time,seconds_elapsed,z,y,x
1772702188058985000,0.05698486328125,-0.0014777880860492587,-0.003162237349897623,-0.008038485422730446
1772702188069034800,0.06703466796875,-0.002469016704708338,0.01799790933728218,0.0020160130225121975
1772702188079084000,0.077083984375,-0.0020037624053657055,-0.0004881574132014066,-0.005871471017599106
1772702188089134000,0.087134033203125,0.0015683355741202831,0.013601296581327915,0.0016817862633615732
1772702188099182800,0.097182861328125,-0.001701759872958064,-0.0011518171522766352,-0.002042910782620311
1772702188109233000,0.10723291015625,-0.0023150858469307423,0.012686766684055328,0.0006769755273126066
1772702188119282000,0.117281982421875,-0.0016964336391538382,0.004207528196275234,-0.002972087822854519
1772702188129331000,0.1273310546875,-0.002825880190357566,0.012266253121197224,0.0008748483960516751
1772702188139381000,0.137381103515625,-0.0031846079509705305,0.006674148142337799,-0.001404018490575254
1772702188149429800,0.1474296875,0.0008639294537715614,0.009038502350449562,0.001683384063653648
1772702188159479800,0.157479736328125,0.0016711335629224777,0.006740726996213198,-0.0028391960076987743
1772702188169529000,0.167529052734375,-0.0019044264918193221,0.01107395626604557,0.001874332781881094
1772702188179579100,0.1775791015625,-0.002162753138691187,0.007168697193264961,-0.0006418218254111707
1772702188189628000,0.1876279296875,-0.0031036478467285633,0.009458483196794987,0.0015217302134260535
1772702188199678000,0.197677978515625,-0.0024461133871227503,0.007744738832116127,0.0003259709046687931
1772702188209726700,0.207726806640625,-0.002802178030833602,0.007281348574906588,0.00035233621019870043
1772702188219776800,0.21777685546875,0.0012998889433220029,0.00808828603476286,-0.0003097256412729621
1772702188229826000,0.227825927734375,-0.00347435986623168,0.007861118763685226,0.000764593540225178
1772702188239875800,0.237875732421875,-0.0032522522378712893,0.008083758875727654,-0.00152306177187711
1772702188249924900,0.2479248046875,-0.0005925533478148282,0.00615110294893384,-0.00022210762836039066
1772702188259974000,0.257973876953125,-0.00036378781078383327,0.006902647204697132,-0.0009986853692680597
1772702188270024000,0.26802392578125,-0.004326837603002787,0.005857622716575861,-0.00026312030968256295
1772702188280073000,0.278072998046875,0.00032410668791271746,0.00803076196461916,-0.00018642126815393567
1772702188290123000,0.288123046875,-0.0007651261985301971,0.009771936573088169,-0.0012796488590538502
1772702188300171800,0.298171875,0.00007456851017195731,0.009475793689489365,-0.0008202536264434457
1772702188310221800,0.308221923828125,-0.0023699470330029726,0.00686030276119709,0.0010378338629379869
1772702188320271000,0.31827099609375,-0.0014146711910143495,0.00703873485326767,-0.0006596649764105678
1772702188330321000,0.32832080078125,-0.0021166803780943155,0.009093097411096096,-0.000027696874894900247
1772702188340370000,0.338369873046875,0.00009241169027518481,0.007220362313091755,-0.0010772485984489322
1772702188350420000,0.348419921875,-0.002445580903440714,0.0073103769682347775,0.0004945489927195013
1772702188360469000,0.358468994140625,-0.0005257080192677677,0.007137005217373371,0.0027214842848479748
1772702188370519000,0.36851904296875,-0.00023515711654908955,0.005358546506613493,0.0012993563432246447
1772702188380567800,0.37856787109375,-0.002299106912687421,0.006609699688851833,0.0004695153038483113
1772702188390617900,0.388617919921875,-0.0009297095239162445,0.008944492787122726,0.000179230744834058
1772702188400667000,0.3986669921875,-0.0027915253303945065,0.007701063062995672,-0.0022397185675799847
1772702188410716000,0.4087158203125,-0.002344646956771612,0.008305867202579975,-0.0015488944482058287
1772702188420766000,0.418765869140625,0.0010929612908512354,0.006357498001307249,0.0001816275907913223
1772702188430815000,0.42881494140625,-0.001776062068529427,0.0062970444560050964,-0.0007355650886893272
1772702188440864800,0.43886474609375,-0.002416286151856184,0.007157511543482542,-0.0026698189321905375
1772702188450913800,0.448913818359375,-0.0009805759182199836,0.008335161954164505,-0.0009888317435979843
1772702188460963800,0.4589638671875,-0.0037057886365801096,0.0073327478021383286,-0.0004599279200192541
1772702188471012900,0.469012939453125,-0.00020000340009573847,0.008014250546693802,0.0035888757556676865
1772702188481063000,0.47906298828125,-0.0007355650886893272,0.0073258234187960625,-0.0022775353863835335
1772702188491112000,0.48911181640625,-0.0033300165086984634,0.0046304380521178246,-0.0025214808993041515
1772702188501161700,0.49916162109375,-0.0001131843455368653,0.006390254944562912,0.000767523015383631
1772702188511211000,0.5092109375,-0.0022626216523349285,0.008943427354097366,-0.0005813680472783744
1772702188521261000,0.519260986328125,-0.0009872338268905878,0.007592139765620232,-0.0011163970921188593
1772702188531309800,0.529309814453125,-0.00014913702034391463,0.009127185679972172,-0.001981391804292798
1772702188541358800,0.53935888671875,-0.0017600831342861056,0.006112487055361271,-0.0007424892974086106
1772702188551409000,0.549408935546875,-0.002150502521544695,0.007721303030848503,-0.0002884203568100929
1772702188561458000,0.5594580078125,-0.003373958868905902,0.0075913406908512115,-0.00019654128118418157
1772702188571508000,0.569508056640625,-0.0023811322171241045,0.007113036699593067,0.0016655409708619118
1772702188581556700,0.579556640625,-0.0010942928493022919,0.005915945861488581,-0.000734766130335629
1772702188591607600,0.589607666015625,-0.0009020126308314502,0.00908750481903553,-0.0006215817993506789
1772702188601656600,0.599656494140625,0.00030067088664509356,0.006705573294311762,-0.0004082625964656472
1772702188611706600,0.60970654296875,-0.0013161342358216643,0.009047024883329868,-0.0011667308863252401
1772702188621755600,0.619755615234375,0.0012713931500911713,0.00888110976666212,-0.0005243764026090503
1772702188631805700,0.6298056640625,-0.0008452873444184661,0.006854177452623844,-0.002812031889334321
1772702188641854500,0.6398544921875,0.0008500810363329947,0.009009473957121372,0.0007488809060305357
1772702188651904500,0.649904541015625,0.0013962953817099333,0.007253651972860098,-0.0031292142812162638
1772702188661953800,0.659953857421875,0.00006711165769957006,0.005945240613073111,-0.003469033632427454
1772702188672003600,0.670003662109375,-0.0032232238445430994,0.009800433181226254,0.002374474424868822
1772702188682052600,0.680052490234375,0.0034647725988179445,0.008951949886977673,0.0008167914929799736
1772702188692102700,0.6901025390625,-0.00006072007090551779,0.007168430835008621,-0.0012397015234455466
1772702188702151400,0.7001513671875,-0.0015867113834246993,0.01004837267100811,0.00019707392493728548
1772702188712200700,0.71020068359375,0.000365918327588588,0.0067782774567604065,0.0019805929623544216
1772702188722250800,0.720250732421875,-0.0014064153656363487,0.009823336265981197,-0.003010969841852784
1772702188732299500,0.730299560546875,-0.002635996788740158,0.007240602280944586,-0.001094559207558632
1772702188742349600,0.740349609375,-0.002689792774617672,0.00890880636870861,-0.0020668793004006147
1772702188752398800,0.75039892578125,0.0000500674286740832,0.006738862954080105,-0.0028093685396015644
1772702188762448600,0.76044873046875,-0.001047687605023384,0.0065444521605968475,-0.002585130510851741
1772702188772497700,0.77049755859375,-0.0005020058597438037,0.006069344002753496,-0.000434361572843045
1772702188782547700,0.780547607421875,-0.0002836266648955643,0.0073165022768080235,0.001133441342972219
1772702188792596500,0.790596435546875,-0.0021797972731292248,0.00692049041390419,0.0005352954030968249
1772702188802646500,0.800646484375,-0.0004822984628845006,0.006933007389307022,0.000972852751147002
1772702188812695600,0.810695556640625,-0.003952929750084877,0.007710383739322424,0.00011691277177305892
1772702188822745600,0.82074560546875,0.00022983079543337226,0.008890430442988873,-0.0008596684201620519
1772702188832794600,0.830794677734375,-0.0006090649403631687,0.009923471137881279,-0.0022652847692370415
1772702188842843600,0.84084375,-0.0010937602492049336,0.008339955471456051,0.0005217132274992764
1772702188852893700,0.850893798828125,-0.0027297399938106537,0.009364739991724491,-0.0014801849611103535
1772702188862942700,0.860942626953125,0.00010998855577781796,0.008931443095207214,-0.0002258360618725419
1772702188872992500,0.870992431640625,0.0008471515611745417,0.007906125858426094,0.0005483448621816933
1772702188883041500,0.88104150390625,0.0014330470003187656,0.007891212590038776,-0.0031755531672388315
1772702188893091600,0.891091552734375,0.000952080066781491,0.008440356701612473,0.0006854976527392864
1772702188903140600,0.901140625,-0.000835966260638088,0.007474428042769432,-0.0014998923288658261
1772702188913190700,0.911190673828125,-0.002802178030833602,0.009489641524851322,0.0010697918478399515
1772702188923239700,0.92123974609375,-0.004026433452963829,0.009456085972487926,-0.0008567389450035989
1772702188933289500,0.93128955078125,0.0011491540353745222,0.006615558639168739,0.0020066918805241585
1772702188943338800,0.9413388671875,-0.001898301183246076,0.007968977093696594,-0.0017185378819704056
1772702188953388800,0.951388916015625,-0.0006649913266301155,0.00965555664151907,0.00036964676110073924
1772702188963437600,0.9614375,-0.0016847157385200262,0.008588427677750587,-0.0026136261876672506
1772702188973487600,0.971487548828125,-0.003123888047412038,0.006958040874451399,0.0004924184759147465
1772702188983536600,0.98153662109375,-0.0015949672088027,0.009732522070407867,0.002008556155487895
1772702188993585700,0.991585693359375,0.0009840379934757948,0.006644320674240589,-0.00046845004544593394
1772702189003635700,1.0016357421875,-0.0008602010202594101,0.005854693241417408,0.0012327772565186024
1772702189013684500,1.0116845703125,0.0011547466274350882,0.007582552265375853,-0.00010066748654935509
1772702189023734500,1.021734619140625,-0.002675145398825407,0.008769523352384567,-0.000499875342939049
1772702189033783600,1.031783447265625,-0.0032285500783473253,0.008731439709663391,0.001172323478385806
1772702189043833900,1.041833740234375,-0.00018722022650763392,0.007464840542525053,-0.00025007082149386406
1772702189053882600,1.051882568359375,-0.0020631509833037853,0.006708502769470215,0.0012343751732259989
1772702189063932700,1.0619326171875,-0.0030005834996700287,0.008974852971732616,-0.0026642263401299715
1772702189073981400,1.0719814453125,-0.0009211873984895647,0.007791876792907715,-0.0011638014111667871
1772702189084031500,1.082031494140625,-0.0017837852938100696,0.006744988262653351,-0.0021140172611922026
1772702189094080800,1.092080810546875,-0.0000500674286740832,0.006647782865911722,0.001088433898985386
1772702189104130600,1.102130615234375,-0.003085005795583129,0.00549197057262063,-0.0021781993564218283
1772702189114179600,1.1121796875,-0.0015611450653523207,0.007178284227848053,0.000319845654303208
1772702189124228600,1.122228515625,-0.0012303803814575076,0.007217432837933302,-0.00009880327706923708
1772702189134278700,1.132278564453125,-0.0009478190331719816,0.007864048704504967,-0.002575809368863702
1772702189144327700,1.14232763671875,-0.0003296993381809443,0.006482134107500315,0.00004234426160110161
1772702189154377700,1.152377685546875,-0.0021784657146781683,0.007592139765620232,-0.0015464976895600557
1772702189164426500,1.162426513671875,-0.0010716560063883662,0.007170028518885374,-0.0011880361707881093
1772702189174476500,1.1724765625,-0.0012338425731286407,0.004818190820515156,0.0026610305067151785
1772702189184525800,1.18252587890625,-0.001972603378817439,0.006894391495734453,-0.0012546151410788298
1772702189194575600,1.19257568359375,-0.0010729875648394227,0.008290686644613743,0.0000798948312876746
1772702189204624600,1.202624755859375,-0.0010298443958163261,0.007014499977231026,0.0016567525453865528
1772702189214674700,1.2126748046875,0.0023435817565768957,0.006244580261409283,0.00003941478280466981
1772702189224723500,1.222723388671875,-0.0014650048688054085,0.006970291491597891,-0.0017915084026753902
1772702189234773800,1.232773681640625,-0.0007006776868365705,0.008898686617612839,0.0018282600212842226
1772702189244822500,1.242822509765625,0.001026115962304175,0.00996315199881792,0.0007025419035926461
1772702189254871600,1.25287158203125,-0.0018463695887476206,0.008885104209184647,0.001219727797433734
1772702189264921600,1.262921630859375,-0.000910268456209451,0.005828327964991331,0.00256382510997355
1772702189274970600,1.272970703125,0.002412024885416031,0.008113053627312183,-0.001047421246767044
1772702189285020700,1.283020751953125,-0.0024019049014896154,0.0070275492034852505,0.0006703176186420023
1772702189295069700,1.293069580078125,-0.002091913018375635,0.00686190091073513,0.0002519350382499397
1772702189305119500,1.303119384765625,-0.002088983543217182,0.0071007865481078625,0.0002103897277265787
1772702189315168500,1.31316845703125,-0.0026048377621918917,0.007377222646027803,0.0007299724384211004
1772702189325218600,1.323218505859375,-0.0010189254535362124,0.005228317808359861,-0.0031244205310940742
1772702189335267600,1.333267578125,-0.0015456987312063575,0.0049430932849645615,0.0004988100845366716
1772702189345317600,1.343317626953125,-0.00027324032271280885,0.006294913589954376,0.0012261193478479981
1772702189355366700,1.35336669921875,0.0012844426091760397,0.008313589729368687,-0.00039175100391730666
1772702189365416400,1.36341650390625,-0.0001651159836910665,0.008154598996043205,0.0005137237603776157
1772702189375465700,1.3734658203125,0.000313986703986302,0.005935919936746359,0.0009302421822212636
1772702189385514500,1.383514404296875,0.00043329631444066763,0.007669637445360422,0.0002335592289455235
1772702189395564500,1.393564453125,-0.0014423680258914828,0.006623015273362398,0.0015760586829856038
1772702189405613600,1.403613525390625,-0.00296329939737916,0.007876299321651459,0.0021230720449239016
1772702189415663600,1.41366357421875,-0.0008146609761752188,0.004101534374058247,0.001443166984245181
1772702189425712600,1.423712646484375,-0.0015606123488396406,0.005548696033656597,-0.00012410330236889422
1772702189435762700,1.4337626953125,-0.0001994707708945498,0.007583351340144873,-0.00126713200006634
1772702189445811500,1.4438115234375,0.0008556736283935606,0.007934356108307838,-0.002302835462614894
1772702189455861500,1.453861572265625,-0.0021044297609478235,0.006639260333031416,0.002682602033019066
1772702189465910800,1.463910888671875,-0.0012982910266146064,0.008117581717669964,-0.0003480751474853605
1772702189475960800,1.4739609375,-0.0021662150975316763,0.007719971239566803,-0.001219461439177394
1772702189486009600,1.484009521484375,-0.0029284118209034204,0.006828877609223127,-0.0005699164466932416
1772702189496059600,1.4940595703125,0.00006950850365683436,0.009285110980272293,-0.0000798948312876746
1772702189506108400,1.5041083984375,-0.0037268276792019606,0.003995806910097599,-0.00009187905379803851
1772702189516158500,1.514158447265625,-0.0027265443932265043,0.0067601678892970085,-0.00036938043194822967
1772702189526207700,1.524207763671875,-0.0007315703551284969,0.00845766719430685,-0.0013342436868697405
1772702189536256500,1.534256591796875,-0.0016106797847896814,0.007102916948497295,-0.001585646066814661
1772702189546306600,1.544306640625,0.0029784792568534613,0.006596649996936321,0.0018783274572342634
1772702189556355800,1.55435595703125,-0.0016056197928264737,0.006385727785527706,-0.0021427792962640524
1772702189566405600,1.564405517578125,-0.0010966897243633866,0.006875482853502035,-0.001957423286512494
1772702189576454700,1.57445458984375,-0.0007952199084684253,0.008979380130767822,0.00042051312630064785
1772702189586505000,1.5845048828125,-0.002398442942649126,0.006324741058051586,-0.0010122675448656082
1772702189596554000,1.594553955078125,-0.002329733222723007,0.005140167195349932,0.0008740494376979768
1772702189606604000,1.60460400390625,0.0006343649583868682,0.007408647798001766,-0.0014591459184885025
1772702189616653000,1.614653076171875,0.001401089015416801,0.00812264159321785,0.003403786104172468
1772702189626703000,1.624703125,-0.00045380264054983854,0.007426224648952484,0.0005579322460107505
1772702189636752000,1.634751953125,-0.0010953581659123302,0.006684800609946251,0.0004980111261829734
1772702189646802000,1.644802001953125,-0.002350505907088518,0.004483964294195175,0.0013411679537966847
1772702189656851000,1.654850830078125,-0.0015180017799139023,0.00580915343016386,-0.00040746363811194897
1772702189666900000,1.66489990234375,-0.00105328019708395,0.006910103838890791,0.0011358382180333138
1772702189676950000,1.674949951171875,-0.000648479734081775,0.008519185706973076,-0.0028570392169058323
1772702189686999000,1.6849990234375,-0.0006807039608247578,0.008058193139731884,-0.002214152133092284
1772702189697048800,1.695048828125,-0.00027270769351162016,0.010702977888286114,0.000258859246969223
1772702189707098000,1.70509814453125,-0.0023787354584783316,0.005904760677367449,-0.0003211772127542645
1772702189717148200,1.715148193359375,-0.0029084382113069296,0.008228635415434837,0.0003683151735458523
1772702189727197000,1.725197021484375,-0.000022370553779182956,0.009692574851214886,0.0010921623324975371
1772702189737247000,1.7352470703125,-0.0012482235906645656,0.008656338788568974,0.0006854976527392864
1772702189747296000,1.7452958984375,-0.00012250541476532817,0.007542072329670191,0.0009448895580135286
1772702189757345800,1.755345703125,0.0010599381057545543,0.00714606000110507,0.0009041432058438659
1772702189767395000,1.76539501953125,-0.000006125270374468528,0.008653675206005573,-0.0009294432238675654
1772702189777445000,1.775445068359375,-0.0005704491049982607,0.006742591038346291,0.00012543488992378116
1772702189787494000,1.785493896484375,-0.0025483788922429085,0.007396663539111614,-0.0015686018159613013
1772702189797543200,1.795543212890625,-0.002293514320626855,0.004818989895284176,0.0011379687348380685
1772702189807593200,1.80559326171875,-0.0008263788768090308,0.006986270658671856,0.001327053178101778
1772702189817642000,1.81564208984375,-0.0002759034978225827,0.005794506054371595,-0.0013126720441505313
1772702189827692000,1.825692138671875,-0.0007667240570299327,0.008387093432247639,0.001975532853975892
1772702189837740800,1.83574072265625,-0.0016383767360821366,0.008473912253975868,0.002261556452140212
1772702189847790800,1.845790771484375,-0.0024884575977921486,0.004975850228220224,-0.0005049353349022567
1772702189857840000,1.855840087890625,-0.0024889903143048286,0.007226753979921341,-0.0006657902849838138
1772702189867890000,1.865889892578125,0.000007190534688561456,0.007767375558614731,0.0005779059720225632
1772702189877939000,1.87593896484375,-0.0016088156262412667,0.007799333427101374,0.002296710154041648
1772702189887989000,1.885989013671875,-0.00033635724685154855,0.006474677007645369,-0.0003147856332361698
1772702189898038000,1.8960380859375,-0.004366785287857056,0.008841694332659245,-0.0015310513554140925
1772702189908088000,1.906088134765625,-0.0019712718203663826,0.007170294877141714,-0.00036964676110073924
1772702189918137000,1.91613720703125,-0.0021281319204717875,0.008666192181408405,0.0006402239087037742
1772702189928185900,1.926185791015625,-0.0011584750609472394,0.007065632846206427,-0.001642371411435306
1772702189938236000,1.93623583984375,-0.0014495585346594453,0.005929261911660433,0.0002593918761704117
1772702189948285200,1.94628515625,-0.0018514295807108283,0.008757272735238075,0.003721767570823431
1772702189958335000,1.9563349609375,0.0003611246356740594,0.0056954361498355865,-0.00020346550445538014
1772702189968384000,1.966384033203125,0.00011584750609472394,0.0065409899689257145,-0.002526008291170001
1772702189978434000,1.97643408203125,-0.0018612833227962255,0.008672051131725311,-0.0004780374001711607
1772702189988483000,1.986483154296875,-0.0044104610569775105,0.006913832388818264,0.000467118457891047
1772702189998533000,1.996533203125,-0.0017209346406161785,0.006235791835933924,-0.0007787083159200847
1772702190008582000,2.006581787109375,-0.0019590212032198906,0.007938084192574024,-0.0011864382540807128
1772702190018632000,2.0166318359375,-0.001924666459672153,0.007673898711800575,0.0011725898366421461
1772702190028681000,2.026680908203125,0.000180029688635841,0.008295746520161629,-0.0008801747462712228
1772702190038731000,2.03673095703125,-0.0012684636749327183,0.008623049594461918,-0.0012751214671880007
1772702190048780000,2.046780029296875,-0.0018559569725766778,0.008583101443946362,-0.0016295883106067777
1772702190058829000,2.0568291015625,-0.0013073458103463054,0.006843258626759052,0.0015472965314984322
1772702190068878800,2.06687890625,-0.0010013486025854945,0.008839564397931099,0.0033401367254555225
1772702190078928000,2.076927978515625,-0.0018634138396009803,0.007400658447295427,0.0004945489927195013
1772702190088978200,2.086978271484375,-0.0011859056539833546,0.007547931279987097,0.001487109111621976
1772702190099027000,2.09702685546875,-0.0017960357945412397,0.00896846130490303,-0.0010120011866092682
1772702190109077000,2.107076904296875,-0.0006215817993506789,0.005976932588964701,-0.0008753810543566942
1772702190119126000,2.1171259765625,-0.0009321063989773393,0.010378604754805565,-0.0000756337758502923
1772702190129175800,2.12717578125,-0.0014988270122557878,0.007781490217894316,0.00159443449229002
1772702190139225000,2.13722509765625,-0.0011582087026908994,0.005498628597706556,-0.0015425028977915645
1772702190149275100,2.147275146484375,-0.0010370349045842886,0.006839263718575239,-0.0003427488263696432
1772702190159324000,2.157323974609375,0.0004780374001711607,0.006729009095579386,-0.0009036105475388467
1772702190169374000,2.1673740234375,-0.00008415588672505692,0.004403270315378904,0.001597630325704813
1772702190179423000,2.177423095703125,-0.0025502429343760014,0.006886934395879507,0.002295911079272628
1772702190189472000,2.187471923828125,0.002544117858633399,0.008081895299255848,0.00006231796578504145
1772702190199522000,2.19752197265625,0.0005403553950600326,0.00771810719743371,-0.0005062668933533132
1772702190209570800,2.20757080078125,0.0012575446162372828,0.005916744936257601,0.0008615325787104666
1772702190219620900,2.217620849609375,0.0009558085002936423,0.009525327943265438,-0.00035979304811917245
1772702190229670100,2.227670166015625,-0.0004394215648062527,0.009874202311038971,0.0023555660154670477
1772702190239720200,2.23772021484375,-0.0008274441352114081,0.00878150761127472,-0.00019627496658358723
1772702190249769000,2.24776904296875,0.00012729909212794155,0.0060445768758654594,-0.0006447513005696237
1772702190259819000,2.257819091796875,0.0010463559301570058,0.008302937261760235,-0.0019086875254288316
1772702190269867800,2.26786767578125,0.0003552656853571534,0.007440072949975729,-0.0011835087789222598
1772702190279918000,2.27791796875,-0.0003968109958805144,0.005047755315899849,0.00015206649550236762
1772702190289967000,2.287967041015625,-0.0014860439114272594,0.008266718126833439,0.001038632821291685
1772702190300017000,2.298016845703125,-0.0018458369886502624,0.007051251363009214,-0.0006588660762645304
1772702190310066000,2.30806591796875,-0.0018399780383333564,0.009147425182163715,0.0011369034182280302
1772702190320115200,2.318115234375,-0.0017963021527975798,0.00974530540406704,0.00032863407977856696
1772702190330165000,2.3281650390625,0.00036432043998502195,0.006129531655460596,-0.001797101111151278
1772702190340214000,2.338214111328125,-0.0019773971289396286,0.005982791539281607,-0.0024202808272093534
1772702190350264000,2.34826416015625,-0.0001685781026026234,0.007859786972403526,0.0014863101532682776
1772702190360312800,2.358312744140625,-0.001284708851017058,0.00592420157045126,0.0012535499408841133
1772702190370363000,2.36836279296875,-0.0015387744642794132,0.006226737052202225,0.0012719257501885295
1772702190380412200,2.378412109375,-0.0008732505375519395,0.008555937558412552,-0.001981924520805478
1772702190390462000,2.3884619140625,-0.0006356965750455856,0.008525577373802662,-0.0018442390719428658
1772702190400511000,2.398510986328125,-0.0013627394801005721,0.009280317462980747,0.0011587414192035794
1772702190410561000,2.40856103515625,-0.0006775081856176257,0.006368683185428381,0.0005049353349022567
1772702190420610000,2.418610107421875,-0.0008743157959543169,0.008736233226954937,-0.0021028320770710707
1772702190430659000,2.4286591796875,-0.0014911039033904672,0.010061688721179962,-0.0017054883064702153
1772702190440708900,2.438708984375,0.0015430354978889227,0.007288272958248854,0.00034940673504024744
1772702190450758000,2.4487578125,-0.0004034689045511186,0.0060118199326097965,0.0007118629291653633
1772702190460808000,2.458807861328125,-0.0020503676496446133,0.006146842148154974,0.0008759136544540524
1772702190470857000,2.46885693359375,0.0003802994033321738,0.005420331843197346,-0.002433596644550562
1772702190480907000,2.478906982421875,-0.0009701895760372281,0.007110639940947294,-0.00026738137239590287
1772702190490956000,2.4889560546875,-0.0014719291357323527,0.004875981714576483,0.0000958738019107841
1772702190501005800,2.499005859375,-0.0008769789128564298,0.005712214391678572,0.0009241168736480176
1772702190511055000,2.50905517578125,-0.0022061625495553017,0.0059724049642682076,-0.0003038666909560561
1772702190521105200,2.519105224609375,0.0021201425697654486,0.0049042110331356525,0.0015725966077297926
1772702190531154000,2.52915380859375,0.0011560781858861446,0.008757272735238075,-0.002502039773389697
1772702190541204000,2.539203857421875,-0.0006372944335453212,0.007523430045694113,-0.00008016114588826895
1772702190551253000,2.5492529296875,-0.0002849582233466208,0.006263222079724073,-0.001582982949912548
1772702190561302000,2.559302001953125,-0.0008639294537715614,0.007464574184268713,0.0033390712924301624
1772702190571352000,2.56935205078125,0.0000577905957470648,0.006537261418998241,-0.00047883635852485895
1772702190581400800,2.57940087890625,0.003108441596850753,0.007677094545215368,-0.0019313243683427572
1772702190591449900,2.589449951171875,-0.0025742114521563053,0.00737242866307497,-0.0026114957872778177
1772702190601499000,2.599498779296875,-0.0012932310346513987,0.007753793615847826,0.00044048685231246054
1772702190611548700,2.609548583984375,-0.0012897689593955874,0.008743423968553543,0.00038296254933811724
1772702190621597700,2.61959765625,-0.0013970943400636315,0.007547398563474417,-0.002139317337423563
1772702190631647700,2.629647705078125,0.0007954862085171044,0.006817159708589315,-0.00005219795639277436
1772702190641696800,2.63969677734375,-0.0036541232839226723,0.007292267866432667,0.0001549959706608206
1772702190651746800,2.649746826171875,0.0007102650706656277,0.006776147056370974,-0.0018881811993196607
1772702190661795800,2.6597958984375,-0.002014148747548461,0.009868876077234745,0.00005246427463134751
1772702190671845600,2.669845703125,-0.0003014698449987918,0.00695005152374506,-0.0019068233668804169
1772702190681894700,2.679894775390625,-0.0023760723415762186,0.008725580759346485,0.0004495415778364986
1772702190691943700,2.689943603515625,-0.0015939018921926618,0.005185707006603479,0.00039494677912443876
1772702190701993700,2.69999365234375,-0.0005997438565827906,0.004766792058944702,-0.0005733785801567137
1772702190712042800,2.710042724609375,-0.0015164038632065058,0.007644870318472385,0.0001257012045243755
1772702190722092500,2.720092529296875,-0.0012932310346513987,0.005934055428951979,-0.001487109111621976
1772702190732141800,2.730141845703125,-0.0013888385146856308,0.008350075222551823,-0.0003403519804123789
1772702190742191900,2.74019189453125,-0.00028628981090150774,0.006287190597504377,-0.00013528858835343271
1772702190752240600,2.75024072265625,-0.0015899071004241705,0.006417419295758009,-0.00364719913341105
1772702190762290700,2.760290771484375,-0.0014998923288658261,0.008414257317781448,0.003556119045242667
1772702190772339700,2.770339599609375,-0.0003382214636076242,0.007570568006485701,0.0011438276851549745
1772702190782389800,2.7803896484375,0.0023907197173684835,0.0054909056052565575,-0.0006410228670574725
1772702190792438800,2.790438720703125,0.0007747135823592544,0.0054419031366705894,0.0010016148444265127
1772702190802488800,2.80048876953125,-0.0008562062866985798,0.007843541912734509,-0.0025537051260471344
1772702190812537600,2.81053759765625,0.00010652644414221868,0.007939682342112064,0.00014514227223116904
1772702190822587000,2.8205869140625,-0.0010021475609391928,0.007626228034496307,-0.0005914880894124508
1772702190832637000,2.830636962890625,-0.0009840379934757948,0.005012867972254753,0.002855707658454776
1772702190842685700,2.840685791015625,-0.00010040117194876075,0.008144479244947433,0.001318264752626419
1772702190852735700,2.85073583984375,-0.0013100089272484183,0.008537561632692814,0.0016647420125082135
1772702190862784500,2.860784423828125,-0.002543585142120719,0.007800132501870394,0.002123870886862278
1772702190872834600,2.87083447265625,-0.003762780223041773,0.008523447439074516,0.0011773834703490138
1772702190882883800,2.8808837890625,-0.0022152173332870007,0.006357764359563589,-0.00247594085521996
1772702190892934000,2.890933837890625,-0.0021920478902757168,0.008130364120006561,0.0006809702608734369
1772702190902982700,2.900982666015625,0.001112935016863048,0.007936219684779644,0.000006924218723725062
1772702190913032700,2.91103271484375,-0.0021856562234461308,0.010305901058018208,0.00018642126815393567
1772702190923081700,2.921081787109375,-0.004711398389190435,0.0065252771601080894,0.002510561840608716
1772702190933131800,2.9311318359375,-0.003093527862802148,0.005033907014876604,-0.0005494101205840707
1772702190943180800,2.941180908203125,0.0003755057114176452,0.00692155584692955,-0.0013614079216495156
1772702190953229600,2.9512294921875,0.002298840554431081,0.004808071069419384,-0.0035566515289247036
1772702190963279600,2.961279541015625,-0.0007254450465552509,0.008247011341154575,0.0009249158320017159
1772702190973329000,2.971328857421875,-0.003936418332159519,0.008707471191883087,-0.002204830991104245
1772702190983378700,2.981378662109375,-0.002591255819424987,0.007982558570802212,0.00021731393644586205
1772702190993427700,2.991427734375,0.00005699164830730297,0.006647782865911722,0.0005081311101093888
1772702191003477800,3.001477783203125,0.0002748382103163749,0.006828877609223127,0.00023702133330516517
1772702191013526800,3.01152685546875,-0.0009062737226486206,0.006906375754624605,-0.0024525050539523363
1772702191023576800,3.021576904296875,-0.0017323862994089723,0.008537028916180134,-0.000014381069377122913
1772702191033625900,3.0316259765625,-0.0032522522378712893,0.009748767130076885,-0.001734250457957387
1772702191043675600,3.041675537109375,0.000969923275988549,0.007379885762929916,0.0022746059112250805
1772702191053724700,3.051724609375,-0.0023185480386018753,0.0070339408703148365,0.00010839065362233669
1772702191063773700,3.061773681640625,-0.002237854292616248,0.007240602280944586,-0.0006564692012034357
1772702191073823700,3.07182373046875,-0.002120675053447485,0.008921856060624123,-0.0019678096286952496
1772702191083872800,3.081872802734375,-0.002139317337423563,0.007613444700837135,-0.0014804512029513717
1772702191093922800,3.0919228515625,-0.0034346787724643946,0.007539941463619471,-0.00019574233738239855
1772702191103971800,3.101971923828125,-0.0014836470363661647,0.008558334782719612,0.0018692727899178863
1772702191114022000,3.11202197265625,-0.0036586506757885218,0.008975119329988956,-0.0013944311067461967
1772702191124070700,3.122070556640625,-0.002951048780232668,0.006338589824736118,-0.0015342470724135637
1772702191134120700,3.13212060546875,0.0015108112711459398,0.007436877116560936,-0.000600809114985168
1772702191144169700,3.142169677734375,0.000672181835398078,0.006330600008368492,0.0010924286907538772
1772702191154219500,3.152219482421875,-0.000025300030756625347,0.007136472500860691,0.002517752582207322
1772702191164268800,3.162268798828125,-0.002267681760713458,0.008596417494118214,-0.0009984191274270415
1772702191174318800,3.17231884765625,-0.003608316881582141,0.006428604479879141,-0.0010881676571443677
1772702191184367600,3.18236767578125,-0.0013741911388933659,0.0062184808775782585,0.001440237509086728
1772702191194416600,3.192416748046875,-0.0025923210196197033,0.007190801203250885,0.0010961571242660284
1772702191204467000,3.202467041015625,-0.0015851134667173028,0.009475527331233025,-0.0003414172388147563
1772702191214515700,3.212515625,-0.00023222764139063656,0.008499478921294212,0.0009693906176835299
1772702191224565800,3.222565673828125,-0.0005757753970101476,0.006970824208110571,-0.0018010957865044475
1772702191234614800,3.23261474609375,-0.0009598032338544726,0.008617190644145012,0.0007297061383724213
1772702191244664600,3.24266455078125,-0.001972603378817439,0.006409695837646723,0.0005893575726076961
1772702191254713900,3.2527138671875,-0.0016053534345701337,0.007649131119251251,-0.0008277104352600873
1772702191264764000,3.262763916015625,0.0022746059112250805,0.007454720325767994,0.0010998855577781796
1772702191274812700,3.272812744140625,-0.001333178486675024,0.00953864399343729,0.0003478088474366814
1772702191284862700,3.28286279296875,-0.0026290726382285357,0.006418750621378422,0.0003890878288075328
1772702191294911700,3.292911865234375,0.001064998097717762,0.007790012285113335,-0.001995772821828723
1772702191304961800,3.3029619140625,-0.0010120011866092682,0.008163121528923512,0.002697515767067671
1772702191315010800,3.3130107421875,0.0001536643976578489,0.007069360930472612,0.0032232238445430994
1772702191325059600,3.3230595703125,-0.002633067313581705,0.007649397477507591,-0.002439455594867468
1772702191335109600,3.333109619140625,-0.00016724651504773647,0.008828112855553627,-0.0013379721203818917
1772702191345159000,3.343158935546875,-0.00004500742215896025,0.008863000199198723,-0.002585130510851741
1772702191355208700,3.353208740234375,0.0008239820599555969,0.006214486435055733,-0.0008812400046736002
1772702191365257700,3.3632578125,-0.0013427657540887594,0.008568454533815384,-0.0012985573848709464
1772702191375307800,3.373307861328125,-0.001579787116497755,0.006114617921411991,-0.0009614011505618691
1772702191385356500,3.3833564453125,-0.0032061797101050615,0.00814980547875166,-0.003459978848695755
1772702191395406800,3.39340673828125,0.00013262542779557407,0.008578307926654816,-0.0019097528420388699
1772702191405456000,3.403455810546875,-0.002650377806276083,0.004053863696753979,-0.0014852449530735612
1772702191415505700,3.413505615234375,-0.0012804478174075484,0.00640783179551363,0.0008889631717465818
1772702191425554700,3.4235546875,-0.0030399984680116177,0.008854744024574757,-0.00344559783115983
1772702191435604000,3.43360400390625,0.0002055960358120501,0.008964466862380505,-0.0011286477092653513
1772702191445653800,3.44365380859375,-0.0015598133904859424,0.00600409647449851,0.0019315907265990973
1772702191455702800,3.453702880859375,-0.001216531964018941,0.007646468002349138,-0.002430667169392109
1772702191465752800,3.4637529296875,-0.0016919062472879887,0.005856025032699108,0.0002759034978225827
1772702191475801600,3.473801513671875,-0.003433613572269678,0.009386044926941395,-0.001826395862735808
1772702191485851600,3.4838515625,-0.002494050422683358,0.007410511840134859,-0.0004966795677319169
1772702191495900700,3.493900634765625,-0.0012458267156034708,0.005812615156173706,0.0012202603975310922
1772702191505950700,3.50395068359375,-0.00021438446128740907,0.00634791050106287,0.000928377965465188
1772702191515999700,3.513999755859375,-0.00001944107498275116,0.00646562222391367,0.0004628573951777071
1772702191526049800,3.5240498046875,-0.0012807141756638885,0.008156197145581245,-0.001070857048034668
1772702191536098800,3.534098876953125,-0.0020985708106309175,0.008469385094940662,0.00022690132027491927
1772702191546148900,3.54414892578125,-0.0012503541074693203,0.008800948038697243,0.0003251719754189253
1772702191556197600,3.55419775390625,0.00001757686368364375,0.009868609718978405,0.00007057376933516935
1772702191566246700,3.56424658203125,-0.0008484831196255982,0.007948203943669796,0.00015100123709999025
1772702191576296700,3.574296630859375,-0.003448527306318283,0.007180148735642433,-0.003335609333589673
1772702191586345700,3.584345703125,-0.00010359696898376569,0.0075721656903624535,-0.0013174657942727208
1772702191596395800,3.594395751953125,-0.0007422229973599315,0.004039482679218054,0.0007166566210798919
1772702191606444800,3.60444482421875,-0.002867958042770624,0.0075513930059969425,0.001531850197352469
1772702191616494800,3.614494873046875,0.0011550129856914282,0.007959389127790928,0.0007896272582001984
1772702191626543900,3.6245439453125,-0.0026937874499708414,0.007641408126801252,0.0011448930017650127
1772702191636594000,3.634593994140625,-0.001186970854178071,0.008174839429557323,-0.00040719733806326985
1772702191646642700,3.644642578125,-0.0009438242996111512,0.007872836664319038,-0.0007691209320910275
1772702191656692700,3.654692626953125,-0.0012210593558847904,0.006345780100673437,0.00027084347675554454
1772702191666741800,3.66474169921875,-0.0004878911131527275,0.009440107271075249,0.00024208133982028812
1772702191676790800,3.674790771484375,-0.000966993800830096,0.00663526589050889,-0.00261788722127676
1772702191686840800,3.6848408203125,-0.0007683219737373292,0.007955394685268402,-0.0037204360123723745
1772702191696889900,3.694889892578125,-0.0009334379574283957,0.005687180440872908,-0.0011086739832535386
1772702191706939600,3.704939697265625,-0.002301770029589534,0.008291485719382763,-0.0013978932984173298
1772702191716989000,3.714989013671875,-0.002695385366678238,0.007098389323800802,-0.0006466155173256993
1772702191727039000,3.7250390625,-0.0017901768442243338,0.0062800003215670586,-0.0013693973887711763
1772702191737087700,3.735087646484375,-0.0008391620358452201,0.007671235594898462,-0.0012120045721530914
1772702191747137800,3.7451376953125,0.00037523938226513565,0.007532484829425812,-0.0015600797487422824
1772702191757186800,3.755186767578125,-0.00021544973424170166,0.006207295693457127,-0.0034405377227813005
1772702191767236600,3.765236572265625,-0.0018881811993196607,0.00723474333062768,-0.0015222628135234118
1772702191777286000,3.775285888671875,0.00032650353386998177,0.003707120195031166,-0.0022128205746412277
1772702191787336000,3.7853359375,-0.0008788431296125054,0.007019826211035252,-0.002364886924624443
1772702191797384700,3.795384765625,-0.0003632551815826446,0.005915413144975901,-0.0020993698853999376
1772702191807433700,3.805433837890625,0.0010700580896809697,0.004978246986865997,0.0008066715090535581
1772702191817483800,3.81548388671875,0.0008066715090535581,0.007443535141646862,0.0020471718162298203
1772702191827532800,3.82553271484375,-0.001511610229499638,0.008674448356032372,-0.0006578007596544921
1772702191837582800,3.835582763671875,0.00267780851572752,0.00863183755427599,0.0006772418855689466
1772702191847631600,3.845631591796875,0.00022157499915920198,0.006844324059784412,0.00032091091270558536
1772702191857681700,3.855681640625,-0.0009773800848051906,0.008066448383033276,-0.0009797769598662853
1772702191867731000,3.86573095703125,0.00088949577184394,0.007394000422209501,0.0023486416321247816
1772702191877780700,3.87578076171875,0.001589108258485794,0.005212338641285896,0.0007395598222501576
1772702191887829800,3.885829833984375,-0.0011486213188618422,0.008570319041609764,-0.0030482541769742966
1772702191897879800,3.8958798828125,0.0003110571997240186,0.006971356924623251,-0.0014178669080138206
1772702191907928800,3.9059287109375,-0.003409911412745714,0.006996656768023968,-0.0003094593121204525
1772702191917979000,3.915978759765625,0.0020751350093632936,0.004268514458090067,0.0016391756944358349
1772702191928028000,3.92602783203125,-0.00022290658671408892,0.008449411019682884,-0.0013251889031380415
1772702191938076700,3.93607666015625,-0.0010868359822779894,0.01001881156116724,-0.0013515542959794402
1772702191948126700,3.946126708984375,0.000027164242055732757,0.006688529159873724,-0.001862614881247282
1772702191958176000,3.956176025390625,0.00030892668291926384,0.007803061977028847,0.0004165183927398175
1772702191968225800,3.966225830078125,-0.000022370553779182956,0.009162073023617268,0.0003312972257845104
1772702191978274800,3.97627490234375,-0.0012945625931024551,0.007645935285836458,-0.0010135991033166647
1772702191988324900,3.986324951171875,-0.00159443449229002,0.00628932099789381,-0.00041492050513625145
1772702191998373600,3.99637353515625,-0.0022770026698708534,0.007422762457281351,0.0009600695921108127
1772702192008423700,4.006423583984375,0.00022796659322921187,0.007703193463385105,-0.0004881574132014066
1772702192018472700,4.01647265625,-0.002083390951156616,0.008022240363061428,0.00024208133982028812
1772702192028522800,4.026522705078125,-0.003087402554228902,0.005224589258432388,-0.0010785802733153105
1772702192038571800,4.03657177734375,0.0023393207229673862,0.007192132994532585,-0.0013086773687973619
1772702192048620800,4.046620849609375,0.0005001416429877281,0.006088519003242254,0.0006490123341791332
1772702192058670800,4.0566708984375,-0.0014985607704147696,0.005281048361212015,-0.004697283264249563
1772702192068719900,4.066719970703125,-0.0030336068011820316,0.007611314300447702,-0.0011976235546171665
1772702192078769700,4.076769775390625,-0.0017483652336522937,0.007507450878620148,0.0021670141723006964
1772702192088818700,4.086818603515625,-0.0012093414552509785,0.00794207863509655,-0.0012540825409814715
1772702192098868700,4.09686865234375,-0.003126284806057811,0.007571633439511061,-0.0015464976895600557
1772702192108917800,4.106917724609375,-0.0012604740913957357,0.005008873529732227,-0.0008788431296125054
1772702192118967800,4.1169677734375,-0.0005169195355847478,0.0059721386060118675,-0.0028786107432097197
1772702192129016800,4.127016845703125,-0.0016295883106067777,0.009254750795662403,0.0000066579027588886674
1772702192139066600,4.137066650390625,-0.00008974852971732616,0.006894657853990793,0.0005989448982290924
1772702192149116000,4.147115966796875,-0.0022711437195539474,0.008829178288578987,-0.000556334329303354
1772702192159166000,4.157166015625,-0.0012093414552509785,0.010164220817387104,-0.0008623315370641649
1772702192169214700,4.167214599609375,-0.002682602033019066,0.009870207868516445,0.000218645524000749
1772702192179263700,4.177263671875,-0.0010873686987906694,0.005399559158831835,-0.0006213154993019998
1772702192189313800,4.187313720703125,-0.002566488226875663,0.007458981592208147,-0.0014564828015863895
1772702192199362800,4.19736279296875,0.001219727797433734,0.00444002216681838,-0.00045327001134864986
1772702192209412900,4.207412841796875,-0.0009265137487091124,0.006328469607979059,-0.0008346347021870315
1772702192219461600,4.217461669921875,-0.003575559938326478,0.010461695492267609,-0.00005805691034765914
1772702192229511700,4.22751171875,-0.0015733955660834908,0.005064533557742834,0.0005078648100607097
1772702192239561000,4.23756103515625,-0.000687361869495362,0.0075577846728265285,0.0003456783015280962
1772702192249610800,4.24761083984375,-0.002549976808950305,0.009922139346599579,0.0009169263648800552
1772702192259659800,4.25765966796875,-0.0032719597220420837,0.007727694697678089,-0.002838130807504058
1772702192269709800,4.267709716796875,-0.0008498146780766547,0.007421963382512331,-0.00045353634050115943
1772702192279758600,4.277758544921875,-0.0013739247806370258,0.008249940350651741,-0.0008034756756387651
1772702192289808000,4.287807861328125,-0.002424009144306183,0.005547896958887577,0.00318940170109272
1772702192299858000,4.29785791015625,-0.001002680161036551,0.005815012380480766,0.00159443449229002
1772702192309906700,4.30790673828125,-0.0022098910994827747,0.006354834884405136,-0.0013217268278822303
1772702192319956700,4.317956787109375,-0.0033630398102104664,0.00729359919205308,-0.0009414274245500565
1772702192330005800,4.328005859375,-0.0011230550007894635,0.006367618218064308,-0.0003880225704051554
1772702192340055800,4.338055908203125,0.0004037352045997977,0.0060182115994393826,-0.002624811604619026
1772702192350104800,4.348104736328125,-0.0015845808666199446,0.006986270658671856,-0.001136104459874332
1772702192360155000,4.35815478515625,-0.0016349145444110036,0.007305583450943232,-0.0008356999605894089
1772702192370203600,4.36820361328125,-0.0020599551498889923,0.008666724897921085,-0.0023102923296391964
1772702192380253700,4.378253662109375,-0.000008255799002654385,0.006125004030764103,-0.001401089015416801
1772702192390303000,4.388302978515625,-0.00013022858183830976,0.006505836267024279,-0.0012205267557874322
1772702192400352800,4.398352783203125,-0.00033182985498569906,0.008013984188437462,0.0001906823308672756
1772702192410401800,4.40840185546875,0.0013225257862359285,0.007871238514780998,-0.00013901700731366873
1772702192420450600,4.418450439453125,-0.0025425199419260025,0.00711862975731492,0.0014034858904778957
1772702192430500900,4.4285009765625,-0.0006442186422646046,0.008474711328744888,-0.003087136195972562
1772702192440550000,4.4385498046875,-0.001904160133562982,0.008509065955877304,-0.00213638786226511
1772702192450599700,4.448599609375,-0.0005448827287182212,0.007040865253657103,-0.0001906823308672756
1772702192460648700,4.458648681640625,0.0016884441720321774,0.009434781037271023,-0.002260491019114852
1772702192470698800,4.46869873046875,0.001019990653730929,0.006460562348365784,0.0006005428149364889
1772702192480747800,4.478747802734375,-0.002663161139935255,0.009905361570417881,-0.003721767570823431
1772702192490797800,4.4887978515625,-0.0022828616201877594,0.008222776465117931,-0.0017843178939074278
1772702192500846800,4.498846923828125,0.000005326322025211994,0.0073042516596615314,-0.0003251719754189253
1772702192510896600,4.508896728515625,-0.0026197514962404966,0.00812024436891079,-0.00014061490946915
1772702192520945700,4.518945556640625,-0.001862614881247282,0.008739163167774677,-0.0015158712631091475
1772702192530995000,4.528994873046875,0.0013741911388933659,0.008347145281732082,-0.0015185344964265823
1772702192541044700,4.539044677734375,-0.001017061178572476,0.0059838565066456795,-0.002103098202496767
1772702192551093800,4.54909375,-0.001654355670325458,0.00881959032267332,-0.0030466562602669
1772702192561143800,4.559143798828125,-0.0017177389236167073,0.008508799597620964,-0.0019403791520744562
1772702192571192800,4.56919287109375,-0.0013723268639296293,0.0063034361228346825,-0.0008442220860160887
1772702192581243000,4.579242919921875,-0.0016996293561533093,0.008431567810475826,-0.002365952357649803
1772702192591292000,4.5892919921875,-0.001306014135479927,0.007381749805063009,0.0015358449891209602
1772702192601342000,4.599342041015625,-0.0007321029552258551,0.008962335996329784,0.0005880259559489787
1772702192611390700,4.609390625,-0.00015419702685903758,0.006098638754338026,0.002123870886862278
1772702192621440800,4.619440673828125,-0.0008551410282962024,0.006449909880757332,-0.003293797606602311
1772702192631490000,4.629489990234375,0.000767523015383631,0.005222458858042955,0.0016311861108988523
1772702192641539800,4.639539794921875,0.000028229507734067738,0.006222475785762072,0.001657285145483911
1772702192651588900,4.6495888671875,-0.0006601976347155869,0.008622516877949238,-0.0022442457266151905
1772702192661638100,4.65963818359375,0.0009483516332693398,0.00714792450889945,0.00033582461765035987
1772702192671688000,4.66968798828125,0.002380599733442068,0.006007825024425983,-0.00000852211542223813
1772702192681737000,4.679737060546875,-0.002374740783125162,0.0065130265429615974,0.0010751180816441774
1772702192691787000,4.689787109375,-0.0027118970174342394,0.008614793419837952,0.0002721750643104315
1772702192701835800,4.699835693359375,-0.0020666129421442747,0.005147890187799931,-0.0010745854815468192
1772702192711885800,4.7098857421875,-0.0005097290268167853,0.0051689292304217815,-0.0022208099253475666
1772702192721934800,4.719934814453125,-0.0024226775858551264,0.0062581622041761875,0.002033855998888612
1772702192731985000,4.72998486328125,-0.002548911375924945,0.007922371849417686,-0.00016298545233439654
1772702192742034000,4.740033935546875,-0.0023608922492712736,0.008072040975093842,-0.0032506543211638927
1772702192752084000,4.750083984375,-0.003569967346265912,0.00717721926048398,0.0005811017472296953
1772702192762133000,4.760133056640625,-0.0029023129027336836,0.009043828584253788,-0.0004900216590613127
1772702192772183000,4.77018310546875,-0.00024341292737517506,0.006435528863221407,-0.0009592706337571144
1772702192782231800,4.780231689453125,-0.001514273346401751,0.00755006168037653,0.0006122607155703008
1772702192792280800,4.79028076171875,0.000952080066781491,0.007772701792418957,-0.0007355650886893272
1772702192802331000,4.800330810546875,-0.0002442118711769581,0.009653160348534584,-0.0016029566759243608
1772702192812380000,4.8103798828125,0.002269279444590211,0.007187339011579752,-0.00033422670094296336
1772702192822430000,4.820429931640625,-0.0012008192716166377,0.0076363482512533665,0.0023672839161008596
1772702192832479000,4.83047900390625,0.0015462313313037157,0.006166016682982445,0.0014647386269643903
1772702192842528800,4.84052880859375,-0.002138784620910883,0.008257663808763027,-0.0009275790071114898
1772702192852578000,4.850578125,-0.0020658141002058983,0.006997722201049328,-0.0011174624087288976
1772702192862628000,4.860628173828125,-0.0003001382574439049,0.00737269502133131,0.00025539714260958135
1772702192872676900,4.8706767578125,-0.00017257283616345376,0.006895190104842186,-0.0005211806274019182
1772702192882727000,4.880726806640625,-0.0024229439441114664,0.005730323493480682,0.0010450243717059493
1772702192892776000,4.89077587890625,-0.0008117315010167658,0.006314354948699474,-0.000592020689509809
1772702192902825000,4.900824951171875,-0.0011715245200321078,0.00806005671620369,-0.0015819176333025098
1772702192912875000,4.910875,-0.0014146711910143495,0.007895739749073982,0.0008277104352600873
1772702192922923800,4.920923828125,-0.0001573928166180849,0.006486927624791861,-0.0015238607302308083
1772702192932973800,4.930973876953125,0.002043443499132991,0.008820655755698681,-0.0012564794160425663
1772702192943022800,4.94102294921875,-0.0004655205411836505,0.009243299253284931,-0.004731105640530586
1772702192953073200,4.9510732421875,0.0001400822657160461,0.008024370297789574,-0.00148125016130507
1772702192963122000,4.961121826171875,-0.0008500810363329947,0.007237140089273453,0.0015017564874142408
1772702192973172000,4.971171875,-0.0004884237423539162,0.006659234408289194,0.0006908240029588342
1772702192983220700,4.981220703125,-0.003718838095664978,0.008460862562060356,-0.0011206581257283688
1772702192993270800,4.991270751953125,0.00042637207661755383,0.009278985671699047,-0.002656236756592989
1772702193003320000,5.001320068359375,-0.002686330582946539,0.005872802808880806,-0.0025395904667675495
1772702193013368800,5.011368896484375,-0.0034533210564404726,0.004848551005125046,0.002088450826704502
1772702193023419000,5.0214189453125,0.0004463458026293665,0.005466138012707233,0.002246642718091607
1772702193033468000,5.031468017578125,-0.004794755019247532,0.008349009789526463,0.0005390237784013152
1772702193043518000,5.04151806640625,-0.0012655340833589435,0.00700890738517046,0.0006045375484973192
1772702193053567000,5.05156689453125,0.000597879639826715,0.006614226847887039,0.0005960154230706394
1772702193063617000,5.061616943359375,-0.0019201391842216253,0.006931941956281662,-0.0012900352012366056
1772702193073665800,5.071665771484375,-0.00276196445338428,0.00803342554718256,-0.0036274916492402554
1772702193083715800,5.0817158203125,-0.003287672298029065,0.00577719509601593,-0.0023225427139550447
1772702193093765000,5.09176513671875,-0.0007342335302382708,0.008197209797799587,0.00021172130072955042
1772702193103815000,5.10181494140625,-0.0022767363116145134,0.00845606904476881,-0.0033878071699291468
1772702193113864000,5.111864013671875,-0.0026290726382285357,0.009867011569440365,-0.0017217335989698768
1772702193123914000,5.1219140625,-0.0017006946727633476,0.00932292826473713,0.00014034859486855567
1772702193133962800,5.131962646484375,-0.0014583469601348042,0.007536213379353285,0.0005930859479121864
1772702193144012000,5.142011962890625,-0.0006165218073874712,0.007360710762441158,-0.000749679864384234
1772702193154061800,5.152061767578125,-0.0017635452095419168,0.007678692229092121,-0.000401604687795043
1772702193164110800,5.16211083984375,0.0012689962750300765,0.00863050576299429,-0.000012783173588104546
1772702193174161000,5.172160888671875,-0.0005147890187799931,0.008992163464426994,-0.000011185276889591478
1772702193184210000,5.1822099609375,0.0009829727932810783,0.007199056912213564,0.001415736391209066
1772702193194260000,5.192260009765625,-0.0023960459511727095,0.00990376342087984,-0.00023036343918647617
1772702193204309000,5.20230908203125,0.00044607947347685695,0.0054941014386713505,0.002435993403196335
1772702193214358800,5.21235888671875,0.0011147991754114628,0.005930859595537186,-0.0005917543894611299
1772702193224407800,5.22240771484375,0.00020532972121145576,0.009415339678525925,-0.0005888249143026769
1772702193234457900,5.232457763671875,-0.0013422331539914012,0.007558051031082869,-0.0005025385180488229
1772702193244507000,5.2425068359375,0.001514273346401751,0.008765527978539467,0.001606418751180172
1772702193254556000,5.252555908203125,-0.000017310547264060006,0.00854608416557312,0.0015520902816206217
1772702193264606000,5.26260595703125,-0.0005560680292546749,0.008241950534284115,0.0019542276859283447
1772702193274655000,5.272655029296875,0.0004652542411349714,0.009383914060890675,-0.001169127761386335
1772702193284705000,5.282705078125,0.00020879182557109743,0.008174306713044643,0.0014418354257941246
1772702193294753800,5.29275390625,0.0006351639167405665,0.007816644385457039,-0.0035750274546444416
1772702193304803800,5.302803955078125,-0.0017771273851394653,0.007534348871558905,0.00031611722079105675
1772702193314852900,5.312852783203125,0.0004338289436418563,0.006942328065633774,0.0003323625132907182
1772702193324903000,5.32290283203125,-0.0008602010202594101,0.005542837083339691,-0.003043460426852107
1772702193334952000,5.332951904296875,-0.0016620787791907787,0.007225688546895981,-0.0013020194601267576
1772702193345001000,5.3430009765625,-0.0012490225490182638,0.00890854001045227,-0.0004564658156596124
1772702193355050800,5.35305078125,0.001059139147400856,0.007209709845483303,0.0012756541837006807
1772702193365100000,5.36310009765625,-0.0009957558941096067,0.004887965973466635,0.0006860303110443056
1772702193375149000,5.373149169921875,-0.00030839405371807516,0.006959106307476759,0.001041562296450138
1772702193385198800,5.38319873046875,-0.002161954063922167,0.008192149922251701,-0.0017379788914695382
1772702193395247900,5.393247802734375,0.00017443705291952938,0.009876599535346031,0.0032322786282747984
1772702193405298000,5.4032978515625,-0.0047060721553862095,0.005887982901185751,-0.0021971079986542463
1772702193415347000,5.413346923828125,0.0009816411184147,0.007472297176718712,-0.0010578075889497995
1772702193425397000,5.42339697265625,-0.0013608753215521574,0.00788375549018383,-0.0017009610310196877
1772702193435446000,5.433446044921875,-0.00047111319145187736,0.0050687943585217,-0.0007480819476768374
1772702193445495800,5.443495849609375,-0.0009859022684395313,0.008304535411298275,-0.0017467673169448972
1772702193455544800,5.453544921875,0.002264219569042325,0.0057127466425299644,0.001788046327419579
1772702193465595000,5.463594970703125,-0.0019228023011237383,0.007508249953389168,-0.002132925670593977
1772702193475644000,5.473643798828125,0.0006884271278977394,0.00586721021682024,-0.00030892668291926384
1772702193485693000,5.48369287109375,-0.0024956483393907547,0.00743341539055109,0.0009339706157334149
1772702193495742700,5.49374267578125,-0.0001030643325066194,0.007893077097833157,-0.0006668555433861911
1772702193505792000,5.5037919921875,-0.0034914042335003614,0.007543403655290604,-0.0014977618120610714
1772702193515842000,5.513842041015625,-0.0033076461404561996,0.01031761895865202,0.0013515542959794402
1772702193525890800,5.523890869140625,-0.0024082965683192015,0.00737402681261301,0.0009123989730142057
1772702193535940900,5.53394091796875,-0.0008615325787104666,0.008216118440032005,-0.0011616708943620324
1772702193545990000,5.543989990234375,-0.00015206649550236762,0.005339904222637415,-0.0002008023438975215
1772702193556040000,5.5540400390625,-0.0013190637109801173,0.008429703302681446,-0.0013992248568683863
1772702193566089000,5.5640888671875,0.000520647969096899,0.0076302229426801205,-0.000054861116950633004
1772702193576139000,5.574138916015625,0.0005795038305222988,0.007767109200358391,-0.0005187837523408234
1772702193586187800,5.584187744140625,-0.00042823629337362945,0.007023288402706385,-0.0013337110867723823
1772702193596238600,5.594238525390625,-0.001253017340786755,0.00791251752525568,0.00011771172285079956
1772702193606287400,5.604287353515625,0.0013627394801005721,0.006274141371250153,0.0004290352517273277
1772702193616336600,5.614336669921875,-0.0013470269041135907,0.008081362582743168,0.0014290522085502744
1772702193626386700,5.62438671875,-0.00407410366460681,0.008774316869676113,-0.0001608549355296418
1772702193636435500,5.634435546875,-0.002182993106544018,0.008274441584944725,-0.0010578075889497995
1772702193646485500,5.644485595703125,-0.0007187871960923076,0.0065447185188531876,0.0015044197207316756
1772702193656534500,5.654534423828125,0.0014141384745016694,0.009483516216278076,-0.001241033081896603
1772702193666584600,5.66458447265625,-0.006603574380278587,0.007447263691574335,-0.0009627327090129256
1772702193676633600,5.674633544921875,-0.003195527009665966,0.0070978570729494095,-0.0002407497668173164
1772702193686683400,5.684683349609375,-0.002302302746102214,0.005518335849046707,-0.00042876892257481813
1772702193696732400,5.694732421875,-0.0024567660875618458,0.007387076038867235,-0.0003587277897167951
1772702193706782500,5.704782470703125,-0.0007044061203487217,0.0051508196629583836,0.0006466155173256993
1772702193716831500,5.71483154296875,-0.0014205301413312554,0.006482134107500315,-0.0006162554491311312
1772702193726881500,5.724881591796875,-0.0008026767172850668,0.008279235102236271,0.001421861699782312
1772702193736930600,5.7349306640625,-0.0010610034223645926,0.006119944155216217,-0.0010572749888524413
1772702193746980400,5.74498046875,-0.0008942894637584686,0.008620119653642178,0.0007997472421266139
1772702193757029600,5.755029541015625,-0.0021816615480929613,0.00754926260560751,-0.002347576431930065
1772702193767079700,5.76507958984375,-0.0034317492973059416,0.007016896735876799,0.002782204421237111
1772702193777128400,5.77512841796875,0.0008633967954665422,0.007054180838167667,0.0015020228456705809
1772702193787178500,5.785178466796875,-0.002442651428282261,0.007752195466309786,0.0004996090428903699
1772702193797227500,5.7952275390625,-0.003061569994315505,0.007136738859117031,-0.0025590313598513603
1772702193807276500,5.805276611328125,-0.0026527747977524996,0.007345797028392553,-0.0025843314360827208
1772702193817326600,5.81532666015625,-0.002650644164532423,0.007535147946327925,-0.0014202637830749154
1772702193827375600,5.825375732421875,-0.0016708672046661377,0.008160457946360111,-0.0026583673898130655
1772702193837425400,5.83542529296875,-0.0023587618488818407,0.007222759071737528,-0.0013467605458572507
1772702193847474700,5.845474609375,-0.001585912425071001,0.0064925202168524265,-0.001561944023706019
1772702193857524700,5.855524658203125,0.0012607404496520758,0.006382265593856573,-0.0007882956997491419
1772702193867573500,5.865573486328125,-0.0006178533658385277,0.008183627389371395,-0.0014527543680742383
1772702193877623600,5.87562353515625,-0.001614940818399191,0.005419532768428326,-0.001773398951627314
1772702193887672300,5.88567236328125,-0.0016117451013997197,0.006343383342027664,0.0011033476330339909
1772702193897722400,5.895722412109375,-0.0025888588279485703,0.00700890738517046,0.00008868326403899118
1772702193907771600,5.905771728515625,-0.0014117417158558965,0.007099188398569822,0.0023273364640772343
1772702193917821700,5.91582177734375,-0.0019124159589409828,0.008673649281263351,-0.0014253237750381231
1772702193927870500,5.925870361328125,-0.001327053178101778,0.007364972028881311,-0.002353968098759651
1772702193937919700,5.935919677734375,-0.001955292886123061,0.008712797425687313,-0.0018306568963453174
1772702193947969500,5.945969482421875,-0.0010894992155954242,0.009846505708992481,0.0018767296569421887
1772702193958018600,5.9560185546875,-0.001499359728768468,0.007956193760037422,0.0022309301421046257
1772702193968068600,5.966068603515625,-0.001127848750911653,0.007866444997489452,0.0007515440811403096
1772702193978117400,5.976117431640625,-0.0015363775892183185,0.007478688843548298,-0.0030543794855475426
1772702193988167400,5.98616748046875,-0.0020186761394143105,0.006363090593367815,-0.0014468954177573323
1772702193998216700,5.996216796875,-0.00038482676609419286,0.007251787465065718,-0.00013315805699676275
1772702194008266500,6.0062666015625,-0.000672448193654418,0.009411078877747059,-0.00039521310827694833
1772702194018315500,6.0163154296875,-0.0006202502408996224,0.007835552096366882,0.001546763931401074
1772702194028365600,6.026365478515625,-0.0007211840129457414,0.00478436890989542,0.0008303736103698611
1772702194038414600,6.03641455078125,-0.0011696603614836931,0.005818740464746952,-0.0015100123127922416
1772702194048464600,6.046464599609375,-0.0009928264189511538,0.006945257540792227,0.0006980145117267966
1772702194058513700,6.056513671875,-0.00038962045800872147,0.01085930597037077,-0.0011994877131655812
1772702194068562400,6.0665625,-0.000993891735561192,0.005619269795715809,-0.00017177389236167073
1772702194078612500,6.076612548828125,0.0014769891276955605,0.007405185606330633,0.000006391586794052273
1772702194088661500,6.08666162109375,-0.0014721954939886928,0.006644853390753269,0.0018373148050159216
1772702194098711600,6.096711669921875,-0.0029491845052689314,0.008321046829223633,-0.000526506919413805
1772702194108760600,6.106760498046875,-0.0008783105295151472,0.007475493010133505,-0.00004900216299574822
1772702194118810400,6.116810302734375,0.0014455638593062758,0.006009955424815416,0.0007454187725670636
1772702194128859400,6.126859375,0.0012032161466777325,0.005647499579936266,0.00027084347675554454
1772702194138909700,6.13690966796875,-0.0018303906545042992,0.008357532322406769,0.0011163970921188593
1772702194148958500,6.14695849609375,-0.003011236200109124,0.007196926511824131,0.000176301269675605
1772702194159008500,6.157008544921875,0.00010759170982055366,0.005478388629853725,0.0001424791116733104
1772702194169057500,6.1670576171875,-0.0030543794855475426,0.008686698973178864,0.0001994707708945498
1772702194179106600,6.1771064453125,-0.0012069445801898837,0.007327687460929155,-0.00007669904152862728
1772702194189156600,6.187156494140625,-0.0019885823130607605,0.017018664628267288,0.003615241264924407
1772702194199205600,6.19720556640625,-0.002412557601928711,0.12960059940814972,0.057125337421894073
1772702194209255400,6.20725537109375,-0.0033784860279411077,0.11811359226703644,0.05308372527360916
1772702194219304400,6.217304443359375,-0.0013313142117112875,0.025894714519381523,0.007279750891029835
1772702194229354500,6.2273544921875,-0.0007797735743224621,-0.10292691737413406,-0.05353406444191933
1772702194239403500,6.237403564453125,0.002918824553489685,-0.1987628936767578,-0.0967760756611824
1772702194249453600,6.24745361328125,-0.005191565956920385,0.1119755357503891,0.048474326729774475
1772702194259502600,6.257502685546875,-0.0004894890007562935,-0.038649123162031174,-0.024149278178811073
1772702194269552400,6.267552490234375,-0.001255680457688868,0.007533816155046225,0.003349191276356578
1772702194279601700,6.2776015625,-0.004601409658789635,0.024892566725611687,0.009107477962970734
1772702194289650400,6.287650390625,0.0002234392159152776,-0.028084365651011467,-0.016143016517162323
