time,seconds_elapsed,z,y,x
1772702131559451600,0.06145166015625,-0.00003302319601061754,-0.0005262406193651259,-0.0020716730505228043
1772702131569500700,0.071500732421875,-0.0010902981739491224,0.009434781037271023,0.0007190534961409867
1772702131579550700,0.08155078125,-0.0033188313245773315,0.007180148735642433,-0.0031364047899842262
1772702131589600500,0.0916005859375,-0.0036165728233754635,0.0055060856975615025,0.00205223192460835
1772702131599649800,0.10164990234375,-0.0041436124593019485,0.00905341561883688,-0.0015313175972551107
1772702131609699800,0.111699951171875,-0.0036818201187998056,0.006875482853502035,-0.001603755634278059
1772702131619748600,0.12174853515625,-0.000041545314161339775,0.00891040451824665,-0.0009558085002936423
1772702131629798700,0.131798583984375,-0.0018040252616629004,0.004756139125674963,-0.0030895331874489784
1772702131639847700,0.14184765625,-0.00009480853623244911,0.00866406224668026,-0.0012492889072746038
1772702131649897500,0.1518974609375,-0.0016255935188382864,0.005518602207303047,-0.0011720572365447879
1772702131659946800,0.16194677734375,0.00016538229829166085,0.007199056912213564,-0.0007126618875190616
1772702131669996800,0.171996826171875,-0.0023289343807846308,0.008363923989236355,-0.0003451456723269075
1772702131680045600,0.182045654296875,-0.004448011517524719,0.006944458931684494,0.00236275652423501
1772702131690095600,0.192095703125,-0.0016450346447527409,0.005945506971329451,0.000023968450477696024
1772702131700144600,0.20214453125,-0.002161954063922167,0.006084257736802101,-0.0016652746126055717
1772702131710194700,0.212194580078125,0.001427987008355558,0.007809187285602093,0.002001631772145629
1772702131720243700,0.22224365234375,-0.0016732640797272325,0.00754979532212019,-0.0001371527905575931
1772702131730293800,0.232293701171875,-0.0012711267918348312,0.009741577319800854,-0.0008649947121739388
1772702131740342500,0.242342529296875,-0.0011877698125317693,0.009230515919625759,0.0005233111442066729
1772702131750392600,0.252392578125,-0.0009448895580135286,0.007836883887648582,-0.002549444092437625
1772702131760442600,0.262442626953125,-0.0009440905996598303,0.008234494365751743,-0.00007323692989302799
1772702131770491600,0.27249169921875,0.0008719189208932221,0.006031260825693607,0.001386175281368196
1772702131780541700,0.282541748046875,-0.000556334329303354,0.009001484140753746,-0.001261805766262114
1772702131790590700,0.2925908203125,0.0008825715631246567,0.006881874520331621,-0.0012207929976284504
1772702131800640500,0.302640625,0.000014381069377122913,0.008927182294428349,0.0007281082216650248
1772702131810689800,0.312689697265625,-0.0011379687348380685,0.008808671496808529,-0.0017235978739336133
1772702131820739800,0.32273974609375,-0.0005640574963763356,0.0075966669246554375,-0.0005014732014387846
1772702131830788600,0.33278857421875,-0.0028724854346364737,0.006415288895368576,-0.00006391586794052273
1772702131840838700,0.342838623046875,-0.0006125270738266408,0.007018494885414839,-0.003710316028445959
1772702131850887700,0.3528876953125,-0.0013422331539914012,0.007002515718340874,-0.0013699301052838564
1772702131860937500,0.3629375,-0.00036964676110073924,0.005898369010537863,0.0010793792316690087
1772702131870986800,0.37298681640625,0.0003789678157772869,0.007995608262717724,0.0007094661123119295
1772702131881036800,0.383036865234375,-0.0002639192680362612,0.0059929112903773785,0.002552107209339738
1772702131891085600,0.39308544921875,-0.000032490566809428856,0.007227818947285414,-0.002011485630646348
1772702131901135600,0.403135498046875,-0.0007118629291653633,0.0068120998330414295,-0.0014969628537073731
1772702131911184600,0.4131845703125,-0.002671416848897934,0.006590258330106735,-0.0015305186389014125
1772702131921234700,0.423234619140625,-0.0016684704460203648,0.007896272465586662,-0.0012383698485791683
1772702131931283700,0.43328369140625,-0.0024410535115748644,0.008469118736684322,-0.00011451592581579462
1772702131941333800,0.443333740234375,0.000297475082334131,0.006976416800171137,0.0014612764352932572
1772702131951383600,0.453383544921875,-0.0001400822657160461,0.007311708759516478,0.0007909588166512549
1772702131961432600,0.4634326171875,0.00037816885742358863,0.008866994641721249,-0.00058323226403445
1772702131971483000,0.47348291015625,-0.0002263686910737306,0.00812104344367981,0.0009462211164645851
1772702131981531600,0.48353173828125,-0.0025561018846929073,0.007890946231782436,-0.003632818115875125
1772702131991581700,0.493581787109375,-0.0026109630707651377,0.008392686024308205,-0.0020903151016682386
1772702132001630500,0.50363037109375,-0.002058357233181596,0.007463775109499693,0.0004138552176300436
1772702132011680500,0.513680419921875,0.00023675501870457083,0.007234210614115,-0.0000021305288555595325
1772702132021729800,0.523729736328125,-0.0009885653853416443,0.00890747457742691,-0.001960885478183627
1772702132031779800,0.53377978515625,-0.0001483380765421316,0.007694138679653406,-0.0003736414946615696
1772702132041828600,0.54382861328125,-0.003234142903238535,0.00896686315536499,-0.0018977685831487179
1772702132051878700,0.553878662109375,-0.0021848573815077543,0.007603857666254044,0.0008380967774428427
1772702132061927700,0.563927734375,-0.00253399764187634,0.006222475785762072,0.0006777744856663048
1772702132071977700,0.573977783203125,-0.002438656520098448,0.008708802983164787,-0.00264851376414299
1772702132082026800,0.58402685546875,-0.0020775320008397102,0.0073388731107115746,0.00008948221511673182
1772702132092076800,0.594076904296875,-0.002326271263882518,0.006906642112880945,0.0004727110790554434
1772702132102125600,0.60412548828125,-0.0005291700945235789,0.008466188795864582,0.0015243934467434883
1772702132112175600,0.614175537109375,0.000016245283404714428,0.009790845215320587,-0.000892691605258733
1772702132122225700,0.6242255859375,-0.0012037487467750907,0.005810484755784273,-0.00008788431296125054
1772702132132274700,0.634274658203125,0.0002878876985050738,0.005272259935736656,-0.00030173614504747093
1772702132142324700,0.64432470703125,-0.0007097324123606086,0.006376939360052347,-0.00047936898772604764
1772702132152373500,0.65437353515625,-0.0020149475894868374,0.006795854307711124,-0.0004617921367753297
1772702132162423600,0.664423583984375,-0.0009153284481726587,0.006287723314017057,0.0004370247188489884
1772702132172472800,0.674472900390625,-0.000996821210719645,0.006106628105044365,0.0012072109384462237
1772702132182523000,0.68452294921875,0.0007731156656518579,0.0068051754496991634,-0.0017411747248843312
1772702132192571600,0.694571533203125,-0.003961984533816576,0.005524727515876293,0.0006250438746064901
1772702132202621700,0.70462158203125,-0.0015243934467434883,0.00657614367082715,0.0014833806781098247
1772702132212670500,0.71467041015625,-0.0008684568456374109,0.009638246148824692,-0.0010410296963527799
1772702132222720500,0.724720458984375,-0.00009640643111197278,0.007511445786803961,-0.0007664577569812536
1772702132232769800,0.734769775390625,-0.0015952334506437182,0.007250189781188965,-0.0010420948965474963
1772702132242819600,0.744819580078125,-0.00045593318645842373,0.007842476479709148,0.0001597896625753492
1772702132252868600,0.75486865234375,0.0022889869287610054,0.00583764910697937,0.0006988134700804949
1772702132262918700,0.764918701171875,-0.0023347933311015368,0.008522648364305496,-0.00012836436508223414
1772702132272967700,0.7749677734375,-0.001282045734114945,0.008611331693828106,-0.0006791060441173613
1772702132283017700,0.785017822265625,-0.0034906051587313414,0.00723607512190938,-0.0015600797487422824
1772702132293067800,0.79506787109375,-0.0010695254895836115,0.00815087091177702,-0.0009339706157334149
1772702132303116500,0.805116455078125,-0.0021915151737630367,0.007725563831627369,0.0009648632840253413
1772702132313166600,0.81516650390625,-0.0018439727136865258,0.009973538108170033,-0.00020666129421442747
1772702132323215600,0.825215576171875,-0.00216568261384964,0.010289388708770275,-0.002758768619969487
1772702132333265700,0.835265625,-0.0009318400407209992,0.00726323900744319,-0.003320961957797408
1772702132343314700,0.845314697265625,-0.0014106763992458582,0.006363889668136835,0.00032144354190677404
1772702132353364700,0.85536474609375,-0.0018698053900152445,0.006988134700804949,-0.003608316881582141
1772702132363413500,0.86541357421875,-0.0008335694437846541,0.006405701395124197,0.00086872314568609
1772702132373463600,0.875463623046875,0.002469815546646714,0.008594286628067493,-0.00014194648247212172
1772702132383512800,0.885512939453125,0.0007307713967747986,0.0073194317519664764,-0.0019560917280614376
1772702132393562600,0.895562744140625,-0.00185063062235713,0.004312456585466862,0.0005994775565341115
1772702132403611600,0.905611572265625,-0.002424009144306183,0.006897853687405586,-0.0023031015880405903
1772702132413661700,0.91566162109375,-0.0019771307706832886,0.009696835651993752,0.0009925601771101356
1772702132423710500,0.92571044921875,0.0011973571963608265,0.006551376078277826,-0.0003837615076918155
1772702132433760800,0.9357607421875,0.001567802974022925,0.005020058713853359,0.003894340479746461
1772702132443809800,0.945809814453125,-0.0016711335629224777,0.005936452187597752,-0.0006551376427523792
1772702132453859600,0.955859619140625,-0.00028868665685877204,0.009366869926452637,0.0009065400226972997
1772702132463908600,0.96590869140625,-0.000931041082367301,0.010994860902428627,-0.0010626012226566672
1772702132473958700,0.975958740234375,0.0015640745405107737,0.00824727676808834,0.0024429175537079573
1772702132484008400,0.986008544921875,-0.001547030289657414,0.007714645005762577,0.0002825613773893565
1772702132494057700,0.9960576171875,-0.0016974988393485546,0.007808654569089413,-0.0011688614031299949
1772702132504107800,1.006107666015625,-0.0008729841792955995,0.008874718099832535,-0.0010516822803765535
1772702132514156500,1.016156494140625,-0.0006788397440686822,0.0065559037029743195,0.00032863407977856696
1772702132524206600,1.02620654296875,0.0005030711181461811,0.008100270293653011,-0.00004713794987765141
1772702132534255600,1.036255615234375,-0.0007182545377872884,0.0076062544248998165,0.00033449303009547293
1772702132544306000,1.046305908203125,-0.00250576832331717,0.007180148735642433,-0.0013813816476613283
1772702132554354700,1.056354736328125,0.00030599720776081085,0.006310093682259321,-0.0015361113473773003
1772702132564404700,1.06640478515625,-0.000011451592399680521,0.00896926037967205,-0.0005083974683657289
1772702132574453800,1.076453857421875,-0.0016964336391538382,0.00968378596007824,-0.0009110674145631492
1772702132584503800,1.08650390625,-0.0018777948571369052,0.007730357814580202,-0.00264851376414299
1772702132594552800,1.096552734375,0.0013142699608579278,0.007149522192776203,0.0007041397620923817
1772702132604603000,1.106602783203125,-0.0013949638232588768,0.00854635052382946,0.0020221380982548
1772702132614651600,1.116651611328125,-0.0015643407823517919,0.007926632650196552,-0.0007709851488471031
1772702132624701700,1.12670166015625,0.0004956142511218786,0.009169263765215874,-0.0004090615548193455
1772702132634750700,1.136750732421875,-0.002495914464816451,0.009012136608362198,-0.0006053365068510175
1772702132644801000,1.146801025390625,0.001517735538072884,0.0068152956664562225,0.0012756541837006807
1772702132654849800,1.156849853515625,-0.0015188007382676005,0.0057652113027870655,-0.00022796659322921187
1772702132664899800,1.16689990234375,-0.003493002150207758,0.007624896243214607,-0.0018261295044794679
1772702132674950000,1.176949951171875,0.0004522047529462725,0.005376123357564211,0.0005882922559976578
1772702132684998700,1.18699853515625,-0.001317998394370079,0.007631554268300533,-0.002430667169392109
1772702132695048700,1.197048583984375,-0.0013875069562345743,0.005849633365869522,-0.0006759102689102292
1772702132705097700,1.20709765625,-0.0009448895580135286,0.007970308884978294,-0.0022980417124927044
1772702132715147800,1.217147705078125,0.0003755057114176452,0.007309045642614365,-0.0009811085183173418
1772702132725196800,1.22719677734375,-0.0006937534781172872,0.008195078931748867,0.0014181332662701607
1772702132735246800,1.237246826171875,-0.0010266485624015331,0.008529040031135082,-0.002612028270959854
1772702132745296000,1.2472958984375,-0.001883121207356453,0.006593986880034208,0.0012743226252496243
1772702132755346000,1.257345947265625,-0.0021499700378626585,0.008857673965394497,0.00038242992013692856
1772702132765394700,1.267394775390625,-0.005576126743108034,0.007669903803616762,-0.0019321233266964555
1772702132775444700,1.27744482421875,-0.0019622170366346836,0.008213188499212265,-0.0015598133904859424
1772702132785493800,1.28749365234375,-0.0022623552940785885,0.007469367701560259,0.00202320353128016
1772702132795543600,1.29754345703125,-0.0019137475173920393,0.006393184419721365,-0.0010133327450603247
1772702132805592800,1.3075927734375,-0.0009526127250865102,0.006047506351023912,-0.002088717184960842
1772702132815643000,1.317642822265625,-0.0007297061383724213,0.008411860093474388,-0.0010964233661070466
1772702132825691600,1.327691650390625,0.00028762139845639467,0.008283762261271477,0.002291117561981082
1772702132835741700,1.33774169921875,-0.0035654399544000626,0.006141782272607088,-0.0000500674286740832
1772702132845791000,1.347791015625,-0.0041558630764484406,0.009890181012451649,0.0006173207075335085
1772702132855840800,1.3578408203125,-0.004577441141009331,0.006119411438703537,0.0022184131667017937
1772702132865889800,1.367889892578125,-0.002779008587822318,0.010659568943083286,-0.000964064325671643
1772702132875939800,1.37793994140625,-0.00012889699428342283,0.005957757588475943,-0.0002942793071269989
1772702132885990000,1.387989990234375,0.00006657902849838138,0.005402222275733948,-0.002522279741242528
1772702132896038700,1.39803857421875,-0.001984321279451251,0.006910370197147131,0.0003499393642414361
1772702132906088700,1.408088623046875,-0.0027680895291268826,0.006396912969648838,-0.00162426196038723
1772702132916137700,1.4181376953125,-0.00048389637959189713,0.006081860978156328,-0.00016192019393201917
1772702132926187800,1.428187744140625,-0.0026117621455341578,0.007501858286559582,0.0000900148443179205
1772702132936236800,1.43823681640625,-0.0026285399217158556,0.004926049150526524,0.0035212314687669277
1772702132946286600,1.44828662109375,-0.003226952161639929,0.00839694682508707,-0.001181644620373845
1772702132956335900,1.4583359375,-0.004199272487312555,0.00683047529309988,0.0006263754912652075
1772702132966386000,1.468385986328125,-0.002831206424161792,0.008534099906682968,0.00024980452144518495
1772702132976434700,1.4784345703125,-0.0034794199746102095,0.007363373879343271,0.003335076617076993
1772702132986484700,1.488484619140625,0.00006231796578504145,0.008195345290005207,0.0011656655697152019
1772702132996533800,1.49853369140625,-0.0018485001055523753,0.009975136257708073,-0.0018037590198218822
1772702133006583800,1.508583740234375,-0.00008495483780279756,0.007132211700081825,0.004312989301979542
1772702133016632800,1.5186328125,-0.0008543420699425042,0.006359628401696682,-0.0003097256412729621
1772702133026683000,1.528682861328125,-0.0008870989549905062,0.00737189594656229,0.0027869981713593006
1772702133036731600,1.538731689453125,-0.001820536912418902,0.006527673918753862,-0.0005901564727537334
1772702133046781700,1.54878173828125,0.00014753911818843335,0.007209443487226963,-0.0014913701452314854
1772702133056831000,1.5588310546875,-0.0023465112317353487,0.007994542829692364,-0.0018967032665386796
1772702133066880800,1.568880859375,-0.0003515372518450022,0.006499178241938353,-0.0004588626616168767
1772702133076929800,1.5789296875,0.0013587448047474027,0.0049556102603673935,0.0010050770360976458
1772702133086979800,1.588979736328125,0.0008751147543080151,0.006836600601673126,0.0025742114521563053
1772702133097029600,1.599029541015625,0.00039547940832562745,0.0054914383217692375,-0.0013877731980755925
1772702133107079000,1.609078857421875,-0.003072488820180297,0.008638495579361916,0.0034445326309651136
1772702133117129000,1.61912890625,-0.0024642229545861483,0.007905061356723309,-0.00011052118497900665
1772702133127177700,1.629177734375,0.0003102582704741508,0.007961786352097988,-0.0015158712631091475
1772702133137227800,1.639227783203125,-0.0007044061203487217,0.00950801745057106,-0.0008575378451496363
1772702133147276800,1.64927685546875,-0.0013757890556007624,0.007773500867187977,0.0010812433902174234
1772702133157326600,1.65932666015625,-0.001603222917765379,0.007834487594664097,0.0022716764360666275
1772702133167376000,1.6693759765625,-0.0012602078495547175,0.006128732580691576,-0.0011608719360083342
1772702133177426000,1.679426025390625,0.0005107942852191627,0.010832940228283405,-0.0005728459218516946
1772702133187474700,1.689474609375,-0.0004543352697510272,0.008742624893784523,-0.00015819176041986793
1772702133197524700,1.699524658203125,0.0011427623685449362,0.007136738859117031,0.0010966897243633866
1772702133207574000,1.709573974609375,-0.0025949841365218163,0.010934406891465187,-0.003428020980209112
1772702133217623800,1.719623779296875,-0.0005603290628641844,0.006987069267779589,0.00028336033574305475
1772702133227672800,1.7296728515625,-0.0002724413643591106,0.007646201644092798,0.0015371765475720167
1772702133237723000,1.739722900390625,-0.0012335762148723006,0.007254450581967831,-0.0006743124104104936
1772702133247771600,1.749771728515625,-0.000749679864384234,0.007285077124834061,-0.0007014766451902688
1772702133257821700,1.75982177734375,-0.0010399643797427416,0.005498628597706556,0.0008578042034059763
1772702133267871000,1.76987109375,0.00019441076437942684,0.007735950406640768,-0.0009387642494402826
1772702133277920800,1.779920654296875,0.00042823629337362945,0.007638212293386459,0.0006290386663749814
1772702133287970800,1.789970703125,-0.0029635655228048563,0.009133310988545418,0.0001001348573481664
1772702133298019800,1.800019775390625,0.00019813918333966285,0.008226770907640457,-0.0007145261042751372
1772702133308069600,1.810069580078125,-0.0013824469642713666,0.008250473067164421,-0.000040746363083599135
1772702133318119000,1.820118896484375,-0.0011270497925579548,0.007843808270990849,-0.0004564658156596124
1772702133328169000,1.8301689453125,-0.002232261700555682,0.006786533165723085,-0.0006551376427523792
1772702133338217700,1.8402177734375,-0.0041406829841434956,0.00606534956023097,-0.0005515406373888254
1772702133348267800,1.850267822265625,-0.0006601976347155869,0.006997722201049328,0.00013662016135640442
1772702133358316800,1.86031689453125,-0.001425057533197105,0.007665643002837896,-0.002651443239301443
1772702133368366600,1.87036669921875,-0.0003904194163624197,0.009783654473721981,0.0005717806634493172
1772702133378415900,1.880415771484375,-0.0022391858510673046,0.007727694697678089,-0.001916144392453134
1772702133388466000,1.8904658203125,-0.0030216225422918797,0.007194796111434698,-0.001583249308168888
1772702133398514700,1.9005146484375,-0.0005611280212178826,0.007633951026946306,-0.0018338527297601104
1772702133408564700,1.910564697265625,0.00021172130072955042,0.005898901727050543,-0.0016881778137758374
1772702133418613800,1.92061376953125,-0.0010285128373652697,0.008914398960769176,0.0001054611784638837
1772702133428663800,1.930663818359375,0.0009544769418425858,0.006398244295269251,0.0017070862231776118
1772702133438712800,1.940712890625,-0.0001448759576305747,0.008570052683353424,-0.0014942996203899384
1772702133448763000,1.950762939453125,-0.0016596820205450058,0.008361526764929295,0.0004599279200192541
1772702133458811600,1.960811767578125,-0.0018274611793458462,0.0059628174640238285,0.0011709919199347496
1772702133468861700,1.97086181640625,-0.0037550569977611303,0.008643022738397121,-0.0015531554818153381
1772702133478910700,1.98091064453125,-0.00026258768048137426,0.007888815365731716,0.0006199838826432824
1772702133488960800,1.990960693359375,0.0002564624010119587,0.007104780990630388,0.0004676510870922357
1772702133499009800,2.001009765625,-0.002510828198865056,0.008237157016992569,0.0007009439868852496
1772702133509059600,2.0110595703125,-0.001261273049749434,0.007923702709376812,-0.0013965616235509515
1772702133519109600,2.021109619140625,-0.00015579492901451886,0.006817159708589315,0.0006998787284828722
1772702133529159000,2.031158935546875,-0.0009853695519268513,0.006703442893922329,0.003228017594665289
1772702133539208200,2.041208251953125,0.0005046690348535776,0.007456052117049694,-0.00041731735109351575
1772702133549257000,2.051257080078125,-0.0012455604737624526,0.008869391866028309,0.0018042916199192405
1772702133559307000,2.06130712890625,-0.002007490722462535,0.008913067169487476,-0.0007129282457754016
1772702133569356000,2.07135595703125,-0.0021875204984098673,0.007964449934661388,-0.004210990387946367
1772702133579406000,2.081406005859375,-0.00042770366417244077,0.008622516877949238,0.0006953513366170228
1772702133589455000,2.091455078125,-0.0020716730505228043,0.006299174856394529,-0.0002561961009632796
1772702133599505200,2.101505126953125,-0.0017422399250790477,0.007481085602194071,0.0011744539951905608
1772702133609554200,2.11155419921875,-0.0010181264951825142,0.008325307630002499,-0.0014860439114272594
1772702133619604200,2.121604248046875,-0.0020383833907544613,0.010480870492756367,-0.0016138756182044744
1772702133629653000,2.131653076171875,-0.00032890037982724607,0.00860520638525486,-0.0017963021527975798
1772702133639703000,2.141703125,0.00013741910515818745,0.008982310071587563,0.001714010490104556
1772702133649752000,2.151751953125,0.00017896443023346364,0.007288006599992514,0.0016445019282400608
1772702133659801900,2.1618017578125,-0.0019920445047318935,0.006387059111148119,0.0019353191601112485
1772702133669851100,2.17185107421875,-0.0015560849569737911,0.009476859122514725,0.0009864348685368896
1772702133679901200,2.181901123046875,-0.0008016114588826895,0.006878945045173168,-0.000815193576272577
1772702133689950000,2.191949951171875,0.0010743191232904792,0.007670436520129442,-0.0015821839915588498
1772702133700000000,2.202,-0.0016460998449474573,0.008323975838720798,0.0007547398563474417
1772702133710049300,2.21204931640625,-0.00270657055079937,0.010751980356872082,-0.0026487798895686865
1772702133720099000,2.22209912109375,-0.0009723200928419828,0.006924485322088003,0.0013342436868697405
1772702133730149000,2.232149169921875,-0.0000977380113909021,0.007445399183779955,-0.0005097290268167853
1772702133740198100,2.2421982421875,-0.0012210593558847904,0.00544323492795229,0.0002854908525478095
1772702133750248200,2.252248291015625,-0.0018239989876747131,0.00942093227058649,0.00040533312130719423
1772702133760297000,2.262296875,-0.0005717806634493172,0.005037635564804077,0.001062334980815649
1772702133770347000,2.272346923828125,-0.0023188143968582153,0.008763131685554981,-0.00017443705291952938
1772702133780396000,2.28239599609375,-0.000264718197286129,0.007660849019885063,-0.0004170510219410062
1772702133790446000,2.292446044921875,-0.002171008847653866,0.007988950237631798,-0.00016245282313320786
1772702133800495000,2.3024951171875,0.0007656587986275554,0.005880525801330805,-0.00017949705943465233
1772702133810545000,2.312544921875,-0.0007486145477741957,0.005596100352704525,-0.0005081311101093888
1772702133820594200,2.32259423828125,-0.0032599754631519318,0.008019576780498028,-0.002299106912687421
1772702133830644200,2.332644287109375,-0.0010373012628406286,0.008348477073013783,-0.003704723436385393
1772702133840693000,2.34269287109375,-0.0013283847365528345,0.008023571223020554,-0.001290834159590304
1772702133850743000,2.352742919921875,0.00010679275874281302,0.008123706094920635,-0.0017331852577626705
1772702133860792000,2.3627919921875,-0.0009584716754034162,0.008175372146070004,0.0005826996639370918
1772702133870841900,2.372841796875,-0.002266349969431758,0.008597216568887234,-0.0017808558186516166
1772702133880891100,2.38289111328125,-0.0005233111442066729,0.007889880798757076,-0.0013859090395271778
1772702133890941200,2.392941162109375,-0.0009446232579648495,0.007141000125557184,0.00000852211542223813
1772702133900990000,2.402989990234375,-0.001306280493736267,0.009727462194859982,-0.0010128001449629664
1772702133911040000,2.4130400390625,-0.0009435579413548112,0.007182279136031866,0.002287122653797269
1772702133921089300,2.42308935546875,-0.0000958738019107841,0.008340754546225071,0.0001310275256400928
1772702133931139000,2.43313916015625,-0.00036218989407643676,0.009006012231111526,0.0006210491410456598
1772702133941188000,2.44318798828125,-0.0001901497016660869,0.005013400688767433,0.0013757890556007624
1772702133951238100,2.453238037109375,-0.0016261261189356446,0.00506852800026536,0.0004242415598127991
1772702133961288000,2.463287841796875,-0.001773132593370974,0.007801996544003487,0.0032551817130297422
1772702133971337000,2.4733369140625,0.00008921589324017987,0.006955111399292946,0.0029140308033674955
1772702133981387300,2.48338720703125,-0.00130947632715106,0.00717588746920228,0.002427471335977316
1772702133991436000,2.49343603515625,0.0006934871198609471,0.00487331859767437,0.00032570460462011397
1772702134001486000,2.503486083984375,-0.002046372974291444,0.007815312594175339,-0.001657018787227571
1772702134011535000,2.51353515625,-0.0015712650492787361,0.007807589136064053,0.001514273346401751
1772702134021585000,2.5235849609375,-0.0026642263401299715,0.010897921398282051,-0.0026639599818736315
1772702134031634200,2.53363427734375,-0.002909237053245306,0.006931675598025322,-0.0025648903101682663
1772702134041684200,2.543684326171875,-0.002201901515945792,0.00686190091073513,-0.0012660667998716235
1772702134051733000,2.55373291015625,-0.0002894856152124703,0.007257113698869944,-0.0008346347021870315
1772702134061783000,2.563782958984375,0.0002516687090974301,0.005251753609627485,0.00044794369023293257
1772702134071832000,2.57383203125,-0.0036362800747156143,0.006042978726327419,-0.0015512913232669234
1772702134081882000,2.583882080078125,-0.0024860608391463757,0.007513576187193394,0.00012676646292675287
1772702134091931100,2.59393115234375,-0.0005520732956938446,0.008385761640965939,-0.0006969492533244193
1772702134101981200,2.603981201171875,0.00037976677413098514,0.007910387590527534,-0.00047084689140319824
1772702134112030000,2.614030029296875,-0.0037968687247484922,0.005795038305222988,0.0018213358707726002
1772702134122080000,2.624080078125,-0.0020069582387804985,0.006732471287250519,-0.0005560680292546749
1772702134132129300,2.63412939453125,-0.0000500674286740832,0.005562810692936182,0.0017654094845056534
1772702134142179000,2.644178955078125,-0.002257827902212739,0.00711809704080224,0.0010556770721450448
1772702134152228000,2.65422802734375,-0.004786232952028513,0.008158328011631966,-0.001068193931132555
1772702134162278100,2.664278076171875,-0.001496430253610015,0.008767925202846527,-0.0015776565996930003
1772702134172327200,2.6743271484375,-0.002514024032279849,0.008569253608584404,-0.00031372037483379245
1772702134182377200,2.684377197265625,-0.00022770027862861753,0.005271194502711296,-0.0012428972404450178
1772702134192427300,2.69442724609375,-0.0009779128013178706,0.0062818643637001514,0.001406947965733707
1772702134202476000,2.70447607421875,-0.0009353021741844714,0.006983074825257063,0.0012093414552509785
1772702134212526000,2.714526123046875,-0.0006175870657898486,0.00893836747854948,-0.0019829897210001945
1772702134222575000,2.7245751953125,-0.0004420847399160266,0.007504255045205355,0.0009731190511956811
1772702134232625000,2.734625,-0.0035950010642409325,0.008657137863337994,-0.0003134540456812829
1772702134242674200,2.744674072265625,-0.0013539510546252131,0.007320763543248177,0.0008037420338951051
1772702134252724200,2.75472412109375,-0.0033129723742604256,0.005416336935013533,-0.0018751317402347922
1772702134262773000,2.76477294921875,-0.002834668615832925,0.0068299430422484875,0.00007004113285802305
1772702134272823000,2.774822998046875,0.00015180018090177327,0.00905794370919466,0.001023452845402062
1772702134282872000,2.7848720703125,-0.00045034053619019687,0.007517038378864527,0.0027659591287374496
1772702134292922000,2.794922119140625,-0.002441585995256901,0.004863997455686331,-0.00007643271965207532
1772702134302971100,2.80497119140625,-0.0033574472181499004,0.00897032581269741,-0.0012301141396164894
1772702134313021200,2.815021240234375,-0.003457582090049982,0.006053098943084478,0.0011065434664487839
1772702134323070000,2.825070068359375,-0.0009627327090129256,0.007927165366709232,0.000182959163794294
1772702134333120000,2.8351201171875,-0.002423742786049843,0.008255266584455967,0.000627973407972604
1772702134343169000,2.8451689453125,0.0015720640076324344,0.005395031534135342,0.0004511394945438951
1772702134353219000,2.855218994140625,-0.0009504822082817554,0.008406267501413822,-0.0026578346733003855
1772702134363268000,2.86526806640625,-0.0008668589289300144,0.007097057998180389,0.00031079089967533946
1772702134373318100,2.875318115234375,0.00012916330888401717,0.006929545197635889,0.002546780975535512
1772702134383367200,2.8853671875,-0.0006801713607273996,0.008253668434917927,-0.0009305084822699428
1772702134393417200,2.895417236328125,-0.0010404969798400998,0.007710383739322424,0.0007219829712994397
1772702134403467300,2.90546728515625,-0.0010093380697071552,0.007872037589550018,-0.0015909724170342088
1772702134413516000,2.91551611328125,-0.0022975089959800243,0.006968693342059851,-0.0011145329335704446
1772702134423566000,2.925566162109375,-0.0006924218614585698,0.007446997333317995,0.00015899071877356619
1772702134433614800,2.93561474609375,-0.0030149647500365973,0.0054640076123178005,0.0015542207984253764
1772702134443665200,2.9456650390625,-0.0001893507578643039,0.007611314300447702,0.0008143946761265397
1772702134453714200,2.955714111328125,-0.0036637107841670513,0.007012103218585253,-0.00199337606318295
1772702134463764200,2.96576416015625,0.001151018193922937,0.007862450554966927,-0.00013315805699676275
1772702134473813000,2.97581298828125,-0.0018615495646372437,0.008711732923984528,-0.0013528858544304967
1772702134483863000,2.985863037109375,0.000532632227987051,0.006657369900494814,0.0006740460521541536
1772702134493912000,2.995912109375,-0.0015869776252657175,0.007051251363009214,-0.00005965480886516161
1772702134503962000,3.005962158203125,-0.0022082931827753782,0.006725014187395573,0.00024208133982028812
1772702134514011100,3.01601123046875,0.000570981705095619,0.004979046061635017,0.0008458199445158243
1772702134524061000,3.02606103515625,-0.0024956483393907547,0.009333580732345581,0.001437308033928275
1772702134534110000,3.03610986328125,-0.001065264455974102,0.007752994541078806,-0.0006442186422646046
1772702134544160300,3.04616015625,0.0008807073463685811,0.007183078210800886,-0.0008729841792955995
1772702134554209300,3.056209228515625,-0.002070607617497444,0.009190835058689117,0.0013819142477586865
1772702134564259300,3.06625927734375,-0.0005302353529259562,0.0055215316824615,0.001407480682246387
1772702134574308400,3.076308349609375,-0.000025566347176209092,0.006564425770193338,-0.000075101139373146
1772702134584358100,3.086358154296875,0.00008388957212446257,0.006825415417551994,-0.0015108112711459398
1772702134594407400,3.096407470703125,0.0006950850365683436,0.008865662850439548,0.0008583368035033345
1772702134604457500,3.10645751953125,-0.0012607404496520758,0.007078682072460651,-0.001511610229499638
1772702134614506200,3.11650634765625,-0.00021944446780253202,0.008734103292226791,-0.0015041533624753356
1772702134624556300,3.126556396484375,-0.003599528456106782,0.006041913293302059,-0.0008135957177728415
1772702134634606300,3.1366064453125,-0.002029328839853406,0.006993727292865515,0.0002495381922926754
1772702134644655000,3.146655029296875,-0.003288205014541745,0.00708693778142333,0.000505734293255955
1772702134654705400,3.156705322265625,-0.0012543488992378116,0.008046208880841732,-0.000316916179144755
1772702134664754400,3.16675439453125,-0.004114584065973759,0.0057473680935800076,-0.0024860608391463757
1772702134674804200,3.17680419921875,-0.0019595539197325706,0.005865079816430807,0.000035686356568476185
1772702134684853200,3.186853271484375,-0.00006444849714171141,0.006461361423134804,0.0005038700764998794
1772702134694903300,3.1969033203125,-0.00101173494476825,0.008596151135861874,0.001761148450896144
1772702134704952300,3.206952392578125,0.0011259844759479165,0.007538077421486378,0.0006175870657898486
1772702134715002400,3.21700244140625,-0.001109739183448255,0.006019542925059795,-0.0012996225850656629
1772702134725051400,3.227051513671875,-0.0008796420879662037,0.00896899402141571,-0.0013345100451260805
1772702134735101200,3.23710107421875,-0.001261273049749434,0.005830192007124424,0.0011406318517401814
1772702134745150200,3.247150146484375,-0.0008439557277597487,0.006056561134755611,-0.002257561543956399
1772702134755200500,3.257200439453125,-0.00015712650201749057,0.007013700902462006,0.0013323795283213258
1772702134765249300,3.267249267578125,-0.0019558256026357412,0.00711623253300786,0.0008146609761752188
1772702134775299300,3.27729931640625,-0.003029079409316182,0.008641957305371761,-0.0020764668006449938
1772702134785348000,3.28734814453125,0.00024820660473778844,0.007832889445126057,-0.0009422263829037547
1772702134795398100,3.297398193359375,0.0005075985100120306,0.008136489428579807,-0.0013230583863332868
1772702134805447400,3.307447509765625,0.0006836334359832108,0.007331416010856628,-0.003739078063517809
1772702134815497500,3.31749755859375,-0.0022956449538469315,0.010688863694667816,0.001603222917765379
1772702134825546200,3.327546142578125,-0.0006921555614098907,0.0059257997199893,-0.0009781790431588888
1772702134835596300,3.33759619140625,-0.0018514295807108283,0.004790494218468666,0.0005787048721686006
1772702134845645300,3.347645263671875,-0.002487126039341092,0.0075780246406793594,-0.0021552962716668844
1772702134855695400,3.3576953125,-0.0023928501177579165,0.007595069240778685,-0.0011147991754114628
1772702134865745400,3.367745361328125,-0.0029830066487193108,0.007666707970201969,-0.0020865867845714092
1772702134875794200,3.377794189453125,-0.002427471335977316,0.009972472675144672,0.0003384877636563033
1772702134885844200,3.38784423828125,0.0008109325426630676,0.005877596326172352,0.0003049319493584335
1772702134895893200,3.397893310546875,-0.0019470370607450604,0.008266185410320759,-0.0004623247659765184
1772702134905943300,3.407943359375,-0.0009456885163672268,0.007677094545215368,-0.0018775284988805652
1772702134915992300,3.417992431640625,-0.0030037793330848217,0.006900516804307699,-0.002027997048571706
1772702134926042400,3.42804248046875,-0.0012780509423464537,0.008372978307306767,0.0020788635592907667
1772702134936091100,3.438091064453125,0.0006649913266301155,0.005852562841027975,0.0009001484140753746
1772702134946141200,3.44814111328125,-0.0015949672088027,0.00953731220215559,-0.0026226809713989496
1772702134956190500,3.4581904296875,-0.001517735538072884,0.007862450554966927,-0.0022237394005060196
1772702134966240300,3.468240234375,0.0007720504072494805,0.0070488546043634415,-0.0020602215081453323
1772702134976289300,3.478289306640625,0.0005752427969127893,0.007669371087104082,-0.0015331818722188473
1772702134986339300,3.48833935546875,-0.002025333931669593,0.005935653578490019,0.0006727144937030971
1772702134996388000,3.49838818359375,-0.0010516822803765535,0.004810467828065157,-0.0014122743159532547
1772702135006438100,3.508438232421875,-0.0013494236627593637,0.006877347361296415,0.001067927572876215
1772702135016487400,3.5184873046875,-0.0015912387752905488,0.007923969067633152,-0.0013006879016757011
1772702135026537200,3.528537109375,0.0011318434262648225,0.00885101594030857,0.002653573639690876
1772702135036586200,3.538586181640625,-0.0032887374982237816,0.00808961782604456,-0.0008037420338951051
1772702135046636300,3.54863623046875,-0.0035302862524986267,0.009070460684597492,-0.0024549018125981092
1772702135056685300,3.558685302734375,0.00036218989407643676,0.006997455842792988,0.0012397015234455466
1772702135066735400,3.5687353515625,0.000809068325906992,0.005076784174889326,-0.0024487765040248632
1772702135076785400,3.578785400390625,-0.002316950121894479,0.009809487499296665,0.000022370553779182956
1772702135086834200,3.588834228515625,-0.001538241864182055,0.00860360823571682,-0.0008647284121252596
1772702135096884200,3.59888427734375,-0.0038895467296242714,0.007874168455600739,0.0003225088003091514
1772702135106933200,3.608933349609375,-0.0014093448407948017,0.007960720919072628,0.0004695153038483113
1772702135116983300,3.6189833984375,-0.0013851100811734796,0.00681263254955411,0.0007683219737373292
1772702135127032300,3.6290322265625,-0.00018881811411119998,0.010018013417720795,-0.00166633992921561
1772702135137082400,3.639082275390625,-0.002432531211525202,0.00711623253300786,0.0003733751946128905
1772702135147131100,3.649131103515625,0.000055660068028373644,0.0049673281610012054,0.002635730430483818
1772702135157181200,3.65918115234375,-0.0009539442835375667,0.007934622466564178,-0.002567553659901023
1772702135167230500,3.66923046875,-0.0027896612882614136,0.008890963159501553,0.00047164582065306604
1772702135177280300,3.6792802734375,0.00019654128118418157,0.006835535634309053,-0.0005012069013901055
1772702135187329300,3.689329345703125,-0.0010306433541700244,0.007443002425134182,-0.0014333132421597838
1772702135197379300,3.69937939453125,-0.003013632958754897,0.006167614832520485,-0.002354234457015991
1772702135207428000,3.709427978515625,-0.001998968655243516,0.007075486239045858,-0.002237321576103568
1772702135217478400,3.719478515625,-0.0022658174857497215,0.010898720473051071,-0.0012237224727869034
1772702135227527400,3.72952734375,-0.0009302421822212636,0.007391070947051048,0.0003067961661145091
1772702135237577200,3.7395771484375,-0.00037710359902121127,0.009006012231111526,0.0010343717876821756
1772702135247626200,3.749626220703125,-0.0012482235906645656,0.007635282818228006,0.0013978932984173298
1772702135257676300,3.75967626953125,0.0000852211524033919,0.007570834364742041,-0.0009843043517321348
1772702135267725300,3.769725341796875,-0.00011371697473805398,0.00632127933204174,-0.0034408040810376406
1772702135277775400,3.779775390625,-0.0028213527984917164,0.005239236634224653,0.0012535499408841133
1772702135287824400,3.789824462890625,-0.0019044264918193221,0.007272826507687569,-0.0036999296862632036
1772702135297874200,3.799874267578125,0.00030173614504747093,0.0057532270438969135,-0.002030926523730159
1772702135307924200,3.80992431640625,-0.0008652610122226179,0.007623032201081514,-0.0004884237423539162
1772702135317973200,3.81997314453125,-0.0022149509750306606,0.006927148438990116,-0.0008045409340411425
1772702135328023300,3.830023193359375,-0.0033457293175160885,0.008861402049660683,0.0011824434623122215
1772702135338072300,3.840072265625,0.000027164242055732757,0.006150037981569767,-0.0016405072528868914
1772702135348122400,3.850122314453125,-0.0003920173039659858,0.005929528269916773,0.00034647725988179445
1772702135358171100,3.860171142578125,0.00019654128118418157,0.008608934469521046,0.0007179882377386093
1772702135368221200,3.87022119140625,0.00041438787593506277,0.007919974625110626,0.0014719291357323527
1772702135378270500,3.8802705078125,-0.003810983384028077,0.005844573490321636,-0.001210406655445695
1772702135388320300,3.8903203125,-0.00036485306918621063,0.007443002425134182,0.0015478292480111122
1772702135398369300,3.900369384765625,-0.002360359765589237,0.007729825098067522,-0.0007462177309207618
1772702135408419300,3.91041943359375,0.001371794263832271,0.007859254255890846,0.0036634444259107113
1772702135418468400,3.92046826171875,0.00039494677912443876,0.007417436223477125,0.002207494108006358
1772702135428518400,3.930518310546875,-0.0033894050866365433,0.006219546310603619,-0.004294613376259804
1772702135438567400,3.9405673828125,-0.0007360977469943464,0.008718656376004219,0.00034354778472334146
1772702135448617200,3.9506171875,-0.001874066423624754,0.006929811555892229,-0.0027201527263969183
1772702135458666200,3.960666259765625,-0.0022242721170186996,0.009311210364103317,-0.005339904222637415
1772702135468716300,3.97071630859375,-0.0011667308863252401,0.010686732828617096,-0.001386707997880876
1772702135478765300,3.980765380859375,-0.0007637945818714797,0.00815087091177702,0.0007326356135308743
1772702135488815400,3.9908154296875,-0.0010998855577781796,0.008887767791748047,-0.001627191435545683
1772702135498864000,4.000864013671875,-0.0037262949626892805,0.007780957501381636,-0.0005866943974979222
1772702135508914200,4.0109140625,-0.004355866461992264,0.005760683678090572,-0.0037228327710181475
1772702135518963500,4.02096337890625,-0.002469282830134034,0.007328486535698175,-0.0013946974650025368
1772702135529013500,4.031013427734375,0.00021997711155563593,0.007795072626322508,0.0024975123815238476
1772702135539062500,4.0410625,-0.0004415521107148379,0.008892028592526913,-0.00013848437811248004
1772702135549112600,4.051112548828125,-0.0008586031035520136,0.008135690353810787,-0.00042796999332495034
1772702135559162600,4.06116259765625,0.0012237224727869034,0.007783088367432356,-0.0015659386990591884
1772702135569211400,4.07121142578125,0.00018375810759607702,0.007977765053510666,-0.0046852994710206985
1772702135579261400,4.081261474609375,-0.0023347933311015368,0.0070307450369000435,-0.0005744438385590911
1772702135589310700,4.091310791015625,-0.0015954998089000583,0.008009723387658596,0
1772702135599360500,4.101360595703125,-0.0018607506062835455,0.00860467366874218,-0.002645584288984537
1772702135609409500,4.111409423828125,-0.0015222628135234118,0.007670170161873102,0.00006684534309897572
1772702135619459600,4.12145947265625,0.0004916195175610483,0.0065564364194869995,-0.0011765845119953156
1772702135629508600,4.131508544921875,-0.0024807346053421497,0.005403819959610701,-0.0029414615128189325
1772702135639558700,4.14155859375,-0.0032053806353360415,0.006927680689841509,0.0004546015989035368
1772702135649607700,4.151607666015625,-0.0017654094845056534,0.006456567905843258,0.00270630419254303
1772702135659657500,4.161657470703125,-0.002109223511070013,0.005792375188320875,0.00036378781078383327
1772702135669706500,4.17170654296875,0.0004340952436905354,0.00842730700969696,-0.0021632856223732233
1772702135679756500,4.181756591796875,-0.00247594085521996,0.00875114742666483,-0.0014530207263305783
1772702135689805600,4.1918056640625,-0.0017696705181151628,0.008216917514801025,-0.0009443568997085094
1772702135699855600,4.201855712890625,-0.0019800602458417416,0.010129067115485668,-0.001169127761386335
1772702135709904600,4.211904541015625,-0.0017062872648239136,0.00871972180902958,0.0023816649336367846
1772702135719954400,4.221954345703125,0.0000018642127770363004,0.0059867859818041325,-0.000621848099399358
1772702135730003700,4.232003662109375,-0.0021462414879351854,0.008153799921274185,0.0004420847399160266
1772702135740053800,4.2420537109375,-0.0006846986943855882,0.008018511347472668,-0.00310577847994864
1772702135750102500,4.2521025390625,-0.0026578346733003855,0.008540225215256214,-0.0011345066595822573
1772702135760152600,4.262152587890625,-0.00019387812062632293,0.004064250271767378,0.0010905644157901406
1772702135770201600,4.27220166015625,0.00015659387281630188,0.006204099860042334,-0.00047590688336640596
1772702135780251400,4.28225146484375,-0.004314321093261242,0.005124987103044987,0.0010396981379017234
1772702135790301400,4.292301513671875,-0.00046046054922044277,0.006903978530317545,-0.0018253305461257696
1772702135800350700,4.302350830078125,-0.003569700988009572,0.007158576976507902,-0.0022146848496049643
1772702135810400500,4.312400390625,-0.0022740731947124004,0.008649947121739388,-0.0011062771081924438
1772702135820449500,4.322449462890625,-0.003108707955107093,0.005855758674442768,-0.00021784658019896597
1772702135830499600,4.33249951171875,-0.0000881506348378025,0.009101352654397488,-0.00016671388584654778
1772702135840548600,4.342548583984375,-0.0015472965314984322,0.006988134700804949,-0.004495415836572647
1772702135850598700,4.3525986328125,-0.0013249226612970233,0.0075796227902174,0.00016165387933142483
1772702135860647700,4.362647705078125,-0.0024109596852213144,0.008497880771756172,0.0017238641157746315
1772702135870697500,4.372697509765625,-0.0024322650860995054,0.009502957575023174,0.001463673310354352
1772702135880746500,4.38274658203125,-0.0014849785948172212,0.00863130483776331,-0.00028282770654186606
1772702135890796500,4.392796630859375,-0.0017358483746647835,0.0073013221845030785,0.0016980315558612347
1772702135900845600,4.402845458984375,-0.00019254654762335122,0.00884755328297615,0.0007576693315058947
1772702135910895600,4.4128955078125,0.0003225088003091514,0.008854477666318417,0.0011709919199347496
1772702135920944600,4.422944580078125,-0.0031092404387891293,0.00875114742666483,-0.0014479606179520488
1772702135930994400,4.432994384765625,-0.00017363809456583112,0.008439557626843452,0.00042770366417244077
1772702135941043700,4.443043701171875,-0.0000023968450477696024,0.006130596622824669,0.000979244359768927
1772702135951093800,4.45309375,-0.001835716888308525,0.007638745009899139,-0.0021816615480929613
1772702135961142500,4.463142578125,-0.001222657272592187,0.008974320255219936,0.0014998923288658261
1772702135971192600,4.473192626953125,-0.0025300029665231705,0.010482468642294407,-0.0024956483393907547
1772702135981241300,4.483241455078125,0.00196354859508574,0.007819040678441525,-0.001284975209273398
1772702135991291600,4.493291748046875,-0.00152359448838979,0.007999603636562824,0.00039947417099028826
1772702136001340700,4.503340576171875,0.0015643407823517919,0.007321562618017197,-0.0011435613268986344
1772702136011390700,4.513390625,0.00011771172285079956,0.0073354109190404415,-0.0015795208746567369
1772702136021439500,4.523439453125,-0.002394714392721653,0.008882706984877586,0.001505484920926392
1772702136031489500,4.533489501953125,0.0012610068079084158,0.0039087217301130295,-0.0002873550693038851
1772702136041539600,4.54353955078125,-0.0013020194601267576,0.008982841856777668,0.000294545607175678
1772702136051588600,4.553588623046875,-0.003353186184540391,0.006913566030561924,-0.003629355924203992
1772702136061638700,4.563638671875,-0.0002412823960185051,0.008901082910597324,0.0004396878939587623
1772702136071687400,4.5736875,-0.002144377212971449,0.006359362509101629,0.0009800433181226254
1772702136081737500,4.583737548828125,-0.0009185242815874517,0.00774686923250556,0.001915878034196794
1772702136091786500,4.593786376953125,0.0006900250446051359,0.00851226132363081,0.0016101471846923232
1772702136101836800,4.6038369140625,-0.0037382792215794325,0.010076602920889854,0.0015448997728526592
1772702136111885600,4.613885498046875,-0.0006266417913138866,0.007555920630693436,-0.00005193164179218002
1772702136121935600,4.623935546875,-0.0030274814926087856,0.0070344735868275166,0.0015576828736811876
1772702136131984400,4.633984375,0.0004271710349712521,0.008199340663850307,-0.003151052165776491
1772702136142034400,4.644034423828125,-0.002712695859372616,0.010062754154205322,0.0002950782363768667
1772702136152083700,4.654083740234375,-0.0016815199051052332,0.007821704261004925,-0.0022740731947124004
1772702136162133800,4.6641337890625,-0.0023036343045532703,0.007158310618251562,-0.0011105381418019533
1772702136172182500,4.6741826171875,0.0005225121858529747,0.007986021228134632,0.0013576794881373644
1772702136182232600,4.684232666015625,-0.004800081718713045,0.00821771565824747,-0.0007105313707143068
1772702136192281600,4.694281494140625,0.000007456851108145202,0.006665625609457493,0.0008048072922974825
1772702136202331600,4.70433154296875,-0.001115864492021501,0.00974716991186142,0.0017694041598588228
1772702136212380700,4.714380615234375,-0.003180613275617361,0.005588909611105919,0.0026264095213264227
1772702136222430500,4.724430419921875,-0.00011957593233091757,0.00993172638118267,-0.0035926043055951595
1772702136232479500,4.7344794921875,0.0025630262680351734,0.007818774320185184,-0.0013733921805396676
1772702136242529500,4.744529541015625,-0.002299373270943761,0.007177751511335373,-0.0023307986557483673
1772702136252578600,4.75457861328125,-0.002528937766328454,0.005812082905322313,-0.0014825817197561264
1772702136262628600,4.764628662109375,-0.0018836538074538112,0.007821437902748585,-0.0022333269007503986
1772702136272678700,4.7746787109375,0.000056459015468135476,0.008700546808540821,-0.0017148094484582543
1772702136282727400,4.7847275390625,-0.0018967032665386796,0.005483182147145271,-0.0011736550368368626
1772702136292777500,4.794777587890625,-0.0017923073610290885,0.005534581374377012,-0.003421895671635866
1772702136302826800,4.80482666015625,-0.0017483652336522937,0.007105313707143068,-0.003163302782922983
1772702136312876500,4.81487646484375,-0.0007890945998951793,0.00800120085477829,-0.0011747203534469008
1772702136322925600,4.824925537109375,0.0015520902816206217,0.005164402071386576,0.000185888638952747
1772702136332975600,4.8349755859375,-0.00016591492749284953,0.006030195392668247,-0.0001549959706608206
1772702136343024400,4.8450244140625,0.000029294771593413316,0.006615824531763792,0.00040480049210600555
1772702136353074400,4.855074462890625,-0.000483363721286878,0.006505303550511599,0.001264735241420567
1772702136363123700,4.865123779296875,-0.00023222764139063656,0.007968977093696594,-0.0012386362068355083
1772702136373173500,4.875173583984375,-0.0009286442655138671,0.0070674968883395195,-0.0020759340841323137
1772702136383222500,4.885222412109375,-0.003437075763940811,0.00700970645993948,-0.002897785510867834
1772702136393272600,4.8952724609375,-0.0014594122767448425,0.005842176266014576,0.0022149509750306606
1772702136403321600,4.905321533203125,-0.0013912353897467256,0.00917645450681448,0.00010199906682828441
1772702136413371600,4.91537158203125,0.00037151097785681486,0.007772968150675297,0.000003728425554072601
1772702136423420700,4.925420654296875,-0.002266882685944438,0.007110639940947294,-0.001678057829849422
1772702136433470500,4.935470458984375,-0.0021699436474591494,0.00771784083917737,-0.002567287301644683
1772702136443519500,4.94551953125,0.0016655409708619118,0.006070942152291536,-0.0008487494196742773
1772702136453569500,4.955569580078125,-0.00034434671397320926,0.007261641323566437,0.00242187874391675
1772702136463618600,4.96561865234375,0.0012093414552509785,0.006388923618942499,-0.0010002832859754562
1772702136473668600,4.975668701171875,-0.00108257494866848,0.007866178639233112,-0.0010266485624015331
1772702136483717600,4.985717529296875,0.002281263703480363,0.007442469708621502,-0.0012620720081031322
1772702136493767400,4.995767333984375,0.0005286374944262207,0.009197759442031384,0.0007411577389575541
1772702136503816700,5.005816650390625,0.0005470133037306368,0.008509065955877304,-0.001434112200513482
1772702136513866800,5.01586669921875,-0.0007323693134821951,0.009462211281061172,-0.0011720572365447879
1772702136523916500,5.02591650390625,-0.0015566176734864712,0.007734884973615408,0.002213353058323264
1772702136533965600,5.035965576171875,0.0003888215287588537,0.00634870957583189,-0.0022154836915433407
1772702136544014800,5.046014892578125,-0.0005065332516096532,0.007707720622420311,0.0015843145083636045
1772702136554064000,5.05606396484375,0.002296710154041648,0.006577741354703903,0.0008562062866985798
1772702136564114000,5.066114013671875,-0.0010772485984489322,0.006314088590443134,-0.0006609965930692852
1772702136574163000,5.076162841796875,-0.0019656792283058167,0.00714579364284873,0.0014365090755745769
1772702136584213000,5.086212890625,-0.002129729837179184,0.008553273975849152,-0.00036751621519215405
1772702136594261800,5.09626171875,-0.0018559569725766778,0.007989216595888138,-0.001748897833749652
1772702136604312000,5.10631201171875,-0.0011954930378124118,0.008730107918381691,0.0023558323737233877
1772702136614360800,5.11636083984375,-0.0004753742541652173,0.007250189781188965,-0.0026375947054475546
1772702136624411000,5.126410888671875,-0.0009392969077453017,0.006961503066122532,-0.0003736414946615696
1772702136634460000,5.1364599609375,-0.003552124137058854,0.006166283041238785,0.0014713965356349945
1772702136644509700,5.146509765625,-0.002255164785310626,0.008591091260313988,-0.0004916195175610483
1772702136654559000,5.15655908203125,-0.0032778186723589897,0.005495166406035423,-0.000651675509288907
1772702136664609000,5.166609130859375,-0.0015374429058283567,0.006911701988428831,-0.001413339632563293
1772702136674657800,5.17665771484375,-0.004995823837816715,0.005940180737525225,0.002061286708340049
1772702136684707800,5.186707763671875,-0.0012985573848709464,0.007783088367432356,0.002573146251961589
1772702136694756900,5.1967568359375,-0.001303084660321474,0.004596083424985409,0.00023435817274730653
1772702136704807000,5.206806884765625,-0.0033955303952097893,0.007603857666254044,-0.0034650389570742846
1772702136714856000,5.21685595703125,-0.0013512879377231002,0.009729859419167042,0.0032509206794202328
1772702136724906000,5.226906005859375,-0.0007893609581515193,0.008578840643167496,-0.00039547940832562745
1772702136734954800,5.236954833984375,-0.0008450209861621261,0.0067452541552484035,0.0005779059720225632
1772702136745004800,5.2470048828125,-0.003573962254449725,0.007261374965310097,0.001377919572405517
1772702136755054000,5.25705419921875,-0.000182959163794294,0.0076177059672772884,-0.00333214714191854
1772702136765103900,5.267103759765625,-0.0016325177857652307,0.009380185976624489,-0.0016852483386173844
1772702136775154000,5.27715380859375,-0.0007352987886406481,0.007252320181578398,0.0005661880713887513
1772702136785203000,5.287202880859375,-0.002098304685205221,0.006404369603842497,-0.0017632789677008986
1772702136795252700,5.297252685546875,0.0006263754912652075,0.006872020661830902,0.00012729909212794155
1772702136805302000,5.307302001953125,-0.0007443535141646862,0.006951382849365473,-0.0014599448768422008
1772702136815351000,5.31735107421875,-0.0009305084822699428,0.0073295519687235355,0.0003813646617345512
1772702136825400800,5.32740087890625,-0.0012980246683582664,0.008321313187479973,-0.0008575378451496363
1772702136835449900,5.337449951171875,-0.0017302557826042175,0.008466188795864582,-0.0011281149927526712
1772702136845500000,5.3475,-0.0017678063595667481,0.007296528667211533,0.0004647216119337827
1772702136855549000,5.357548828125,-0.0011677960865199566,0.006827545817941427,-0.000035420041967881843
1772702136865599000,5.367598876953125,-0.0023635553661733866,0.0073173013515770435,-0.0004269047058187425
1772702136875648000,5.37764794921875,-0.0012120045721530914,0.006485862657427788,0.000681236619129777
1772702136885697800,5.38769775390625,-0.0025723471771925688,0.004880775231868029,-0.0026727484073489904
1772702136895747000,5.3977470703125,-0.002636529505252838,0.008556470274925232,-0.002579271560534835
1772702136905797000,5.407797119140625,0.00021518341964110732,0.007097057998180389,-0.0012604740913957357
1772702136915846000,5.417845947265625,-0.002644518855959177,0.0065015750005841255,-0.0015017564874142408
1772702136925896000,5.42789599609375,-0.0013760552974417806,0.0057106162421405315,0.000030360035452758893
1772702136935944700,5.43794482421875,-0.0005507417372427881,0.007996673695743084,0.0007632619817741215
1772702136945994800,5.447994873046875,-0.002409361768513918,0.008823851123452187,0.0004913532175123692
1772702136956044000,5.4580439453125,-0.0008050735923461616,0.010611898265779018,0.0000828243064461276
1772702136966094000,5.468093994140625,-0.000693220819812268,0.006117813754826784,0.0006913566030561924
1772702136976142800,5.478142822265625,-0.0011062771081924438,0.00615270109847188,-0.0013603427214547992
1772702136986193000,5.48819287109375,-0.003338006092235446,0.010396714322268963,-0.0012591425329446793
1772702136996242000,5.498241943359375,-0.0037377465050667524,0.008054996840655804,0.0007507451227866113
1772702137006292000,5.5082919921875,-0.0009829727932810783,0.007576959673315287,-0.00015686018741689622
1772702137016341000,5.518341064453125,-0.002954510971903801,0.0070794811472296715,-0.0015749934827908874
1772702137026391000,5.52839111328125,-0.0009382316493429244,0.0059814597479999065,-0.0026706180069595575
1772702137036439800,5.538439697265625,-0.0036756948102265596,0.008837699890136719,-0.0016074840677902102
1772702137046489900,5.54848974609375,-0.0010165285784751177,0.005470665637403727,0.0009763148264028132
1772702137056540000,5.558539794921875,-0.003254116512835026,0.006963633466511965,-0.003210174385458231
1772702137066589000,5.5685888671875,-0.0015534218400716782,0.007968710735440254,0.00038003307417966425
1772702137076639000,5.578638916015625,-0.0006141249323263764,0.007810784969478846,0.00021305288828443736
1772702137086687700,5.588687744140625,0.00012516857532318681,0.008461128920316696,-0.0014602112350985408
1772702137096737800,5.59873779296875,0.001508414396084845,0.00995995569974184,-0.0018375811632722616
1772702137106787000,5.608787109375,-0.002429601736366749,0.007760717533528805,-0.001326786819845438
1772702137116837000,5.618837158203125,0.0002335592289455235,0.007468302734196186,-0.0009185242815874517
1772702137126886000,5.628885986328125,0.00007004113285802305,0.00848536379635334,0.0019350528018549085
1772702137136936000,5.63893603515625,-0.001404018490575254,0.005962285213172436,-0.0008490157779306173
1772702137146984700,5.648984619140625,0.0009318400407209992,0.007749265991151333,0.0002359560749027878
1772702137157034800,5.65903466796875,-0.0008729841792955995,0.00869229156523943,-0.0018165421206504107
1772702137167084000,5.669083984375,-0.0009217200567945838,0.005379052832722664,-0.0023398532066494226
1772702137177133800,5.6791337890625,-0.0012575446162372828,0.005681587848812342,0.0022383867762982845
1772702137187183900,5.689183837890625,0.0011728560784831643,0.008533300831913948,0.0003307645965833217
1772702137197233000,5.69923291015625,-0.0018378474051132798,0.005816610064357519,0.0006351639167405665
1772702137207283000,5.709282958984375,-0.001880191732198,0.006571882404386997,0.0003296993381809443
1772702137217332000,5.71933203125,-0.00027057717670686543,0.008386560715734959,0.00101173494476825
1772702137227382000,5.729382080078125,0.0021917815320193768,0.007592139765620232,-0.0016026903176680207
1772702137237430800,5.7394306640625,-0.0010985539993271232,0.009440639987587929,-0.0003818972909357399
1772702137247480800,5.749480712890625,-0.0015158712631091475,0.007439806591719389,-0.002150502521544695
1772702137257529900,5.75952978515625,0.0002545981842558831,0.005815544631332159,-0.003531884169206023
1772702137267580000,5.769579833984375,-0.0009946906939148903,0.00899775605648756,-0.00040480049210600555
1772702137277630000,5.7796298828125,-0.00012996226723771542,0.00646615494042635,-0.00173744629137218
1772702137287679000,5.789678955078125,-0.0003283677506260574,0.007712248247116804,-0.0020301276817917824
1772702137297729000,5.79972900390625,0.0006719155353493989,0.008840896189212799,-0.0019835224375128746
1772702137307777800,5.80977783203125,-0.0008237157016992569,0.006660033017396927,-0.0024953819811344147
1772702137317827800,5.819827880859375,-0.00025353292585350573,0.0037020600866526365,-0.0005880259559489787
1772702137327876900,5.829876953125,0.0000327568814100232,0.009814281016588211,-0.0026405241806060076
1772702137337927000,5.839927001953125,-0.003183542750775814,0.006783603690564632,0.0015313175972551107
1772702137347976000,5.849975830078125,-0.00307595101185143,0.008268049918115139,-0.00355798308737576
1772702137358026000,5.86002587890625,-0.002400306984782219,0.007379086688160896,-0.00549223693087697
1772702137368075000,5.870074951171875,-0.002130795270204544,0.008407066576182842,-0.0013907026732340455
1772702137378125000,5.880125,-0.0010287790792062879,0.009769806638360023,-0.0004796353168785572
1772702137388173800,5.890173828125,-0.00333134806714952,0.009303486905992031,-0.003180879633873701
1772702137398224000,5.900223876953125,-0.0017931063193827868,0.00878896377980709,-0.0017986990278586745
1772702137408273000,5.91027294921875,-0.001796834752894938,0.008870989084243774,-0.0010777813149616122
1772702137418322700,5.92032275390625,-0.0031127026304602623,0.0070342072285711765,-0.0005073322099633515
1772702137428372000,5.9303720703125,-0.0010554107138887048,0.008904811926186085,-0.0016466324450448155
1772702137438422000,5.940422119140625,-0.001005609636195004,0.008019843138754368,-0.004521781112998724
1772702137448470800,5.950470703125,-0.0012921657180413604,0.00788322277367115,-0.0018900453578680754
1772702137458520800,5.960520751953125,-0.00412390474230051,0.006308229640126228,-0.00045806370326317847
1772702137468570000,5.970570068359375,-0.0015195996966212988,0.006338856182992458,0.0008412926108576357
1772702137478620000,5.980619873046875,-0.002700977958738804,0.006985737942159176,-0.0010362359462305903
1772702137488669000,5.9906689453125,-0.0013483584625646472,0.0052086105570197105,0.0013488910626620054
1772702137498719000,6.000718994140625,-0.0014229270163923502,0.007189203519374132,-0.00018455706594977528
1772702137508767700,6.010767822265625,-0.00012490226072259247,0.008098406717181206,0.00023329291434492916
1772702137518817800,6.02081787109375,-0.0026354643050581217,0.005738845560699701,-0.001184574095532298
1772702137528867800,6.030867919921875,-0.001588575541973114,0.006656038574874401,0.0008602010202594101
1772702137538918000,6.04091796875,-0.00040187101694755256,0.005024053156375885,0.001279116258956492
1772702137548968000,6.050968017578125,-0.000720118754543364,0.008292551152408123,0.00014620754518546164
1772702137559016700,6.0610166015625,-0.0033814155030995607,0.008523979224264622,-0.0006154565489850938
1772702137569066800,6.071066650390625,0.0011669971281662583,0.007540207821875811,-0.0034293525386601686
1772702137579115800,6.08111572265625,-0.000024234765078290366,0.007381483446806669,0.0009888317435979843
1772702137589165600,6.09116552734375,-0.00016724651504773647,0.008174040354788303,-0.0015257250051945448
1772702137599214800,6.10121484375,-0.0003235740587115288,0.006617689039558172,-0.001216798322275281
1772702137609265000,6.111264892578125,-0.00022530343267135322,0.008313589729368687,-0.0008426241693086922
1772702137619313700,6.121313720703125,-0.003510312642902136,0.009497098624706268,0.0011440940434113145
1772702137629363700,6.13136376953125,0.0004849616379942745,0.00797270517796278,-0.0007009439868852496
1772702137639413000,6.1414130859375,-0.002606169320642948,0.007894407957792282,-0.0020269318483769894
1772702137649462800,6.151462890625,-0.0006836334359832108,0.0070363376289606094,-0.0013318468118086457
1772702137659511800,6.16151171875,0.0023041670210659504,0.00748987402766943,0.0005161206354387105
1772702137669561900,6.171561767578125,-0.0012056130217388272,0.007520766928792,-0.0012724583502858877
1772702137679610600,6.181610595703125,-0.00033449303009547293,0.00603419030085206,-0.001802960061468184
1772702137689660700,6.19166064453125,-0.0016982977977022529,0.005293032620102167,-0.00011398329661460593
1772702137699710000,6.2017099609375,-0.0002556634717620909,0.008408398367464542,-0.0008428904693573713
1772702137709759700,6.211759765625,0.00036485306918621063,0.00589570589363575,0.0025150892324745655
1772702137719808800,6.221808837890625,-0.0008772452711127698,0.004772118292748928,-0.0005736448802053928
1772702137729858800,6.23185888671875,-0.0011017497163265944,0.007448328658938408,-0.000966993800830096
1772702137739907800,6.241907958984375,-0.0016010924009606242,0.006041114684194326,0.0004655205411836505
1772702137749958000,6.2519580078125,-0.00250470289029181,0.008953547105193138,0.002654106356203556
1772702137760007000,6.2620068359375,-0.0006892260862514377,0.009358081966638565,-0.0009797769598662853
1772702137770056700,6.272056640625,0.00009880327706923708,0.00788615271449089,-0.001073786523193121
1772702137780106800,6.282106689453125,-0.000004261057711119065,0.008737032301723957,0.000743820914067328
1772702137790155800,6.29215576171875,-0.002953711897134781,0.007191600278019905,0.0001781654718797654
1772702137800205800,6.302205810546875,-0.0033907366450875998,0.006485862657427788,-0.0037886130157858133
1772702137810254800,6.3122548828125,-0.002305498579517007,0.009244098328053951,0.00014088122406974435
1772702137820305000,6.322304931640625,-0.0023760723415762186,0.008856342174112797,-0.002176867797970772
1772702137830353700,6.332353759765625,-0.0006886934279464185,0.0083085298538208,-0.0014266553334891796
1772702137840403700,6.34240380859375,-0.002522812457755208,0.005381715949624777,-0.00007669904152862728
1772702137850453000,6.352452880859375,-0.0004796353168785572,0.007900533266365528,-0.0013470269041135907
1772702137860502800,6.362502685546875,-0.003151318524032831,0.006311159115284681,0.001669003046117723
1772702137870551800,6.3725517578125,-0.0024021712597459555,0.0073410035111010075,0.0013193299528211355
1772702137880601900,6.382601806640625,-0.0007472829893231392,0.00663446681573987,-0.00030599720776081085
1772702137890650600,6.392650634765625,-0.004185423720628023,0.006161755882203579,-0.002630404196679592
1772702137900701000,6.402700927734375,-0.004466653801500797,0.008291219361126423,-0.004295678809285164
1772702137910749700,6.412749755859375,-0.000553404854144901,0.006850715726613998,0.0010567422723397613
1772702137920799700,6.4227998046875,-0.0009808422764763236,0.008869924582540989,-0.0005938849062658846
1772702137930848800,6.432848876953125,-0.0019441075855866075,0.008609999902546406,-0.0026381274219602346
1772702137940898800,6.44289892578125,-0.0015108112711459398,0.007541273254901171,-0.002526274649426341
1772702137950947800,6.45294775390625,-0.0011299792677164078,0.006517820525914431,-0.0002442118711769581
1772702137960998000,6.462997802734375,-0.00039840888348408043,0.008480037562549114,0.0006593986763618886
1772702137971046700,6.473046630859375,-0.002273274352774024,0.031495608389377594,0.009229983203113079
1772702137981096700,6.4830966796875,-0.002675145398825407,0.029682261869311333,0.012015383690595627
1772702137991145700,6.493145751953125,-0.0011885687708854675,0.03937510401010513,0.014963769353926182
1772702138001195800,6.50319580078125,-0.001722798915579915,0.046170689165592194,0.020958011969923973
1772702138011245800,6.513245849609375,-0.003314570290967822,0.042996469885110855,0.014651380479335785
1772702138021294800,6.523294921875,-0.0026559706311672926,0.0319661870598793,0.01133654359728098
1772702138031345000,6.533344970703125,-0.0005571332876570523,-0.025114674121141434,-0.01324123702943325
1772702138041393700,6.5433935546875,0.001416269107721746,-0.08509358763694763,-0.04201935604214668
1772702138051443700,6.553443603515625,0.0008040083339437842,-0.043957337737083435,-0.023539680987596512
1772702138061492700,6.56349267578125,-0.002283926820382476,0.02263314090669155,0.006944192573428154
1772702138071542800,6.573542724609375,-0.0024833977222442627,-0.01594354584813118,-0.010586597956717014
1772702138081591800,6.583591796875,0.00018908442871179432,0.02617354691028595,0.00788561999797821
