time,seconds_elapsed,z,y,x
1772702131563219500,0.065219482421875,-0.00009527360089123249,-0.012757694348692894,-0.0071775526739656925
1772702131573268700,0.075268798828125,-0.00009500724263489246,0.00835930835455656,-0.0008131304057314992
1772702131583318800,0.08531884765625,0.0012820237316191196,-0.006484437733888626,-0.0009608049876987934
1772702131593368800,0.095368896484375,0.00029505626298487186,0.002903738059103489,0.002774544758722186
1772702131603417600,0.10541748046875,-0.003648018464446068,-0.00044306181371212006,-0.0024539693258702755
1772702131613467600,0.115467529296875,-0.001472216215915978,0.000327124260365963,-0.0017117464449256659
1772702131623516700,0.1255166015625,-0.0026160513516515493,-0.0016041770577430725,-0.0026873471215367317
1772702131633566700,0.135566650390625,0.0025518126785755157,-0.0011996426619589329,-0.0003309821186121553
1772702131643615700,0.14561572265625,0.0006602598587051034,-0.0004562726244330406,0.0018277160124853253
1772702131653665500,0.15566552734375,-0.002179202390834689,-0.0023732162080705166,-0.0026072461623698473
1772702131663714600,0.165714599609375,0.0026725505013018847,0.00006621610373258591,-0.0010044720256701112
1772702131673764600,0.1757646484375,0.001037369598634541,-0.001056839246302843,0.0006794446962885559
1772702131683813600,0.185813720703125,0.0013177074724808335,0.0006443122401833534,-0.0020383200608193874
1772702131693863700,0.19586376953125,-0.0002519596600905061,-0.002169051207602024,0.0016938339686021209
1772702131703912700,0.20591259765625,0.0005081013077870011,-0.001476349774748087,-0.00003743128036148846
1772702131713962500,0.21596240234375,-0.001622427487745881,0.002599884755909443,0.0005758947227150202
1772702131724011800,0.22601171875,0.0014713662676513195,-0.0007839282043278217,0.0015644601080566645
1772702131734061800,0.236061767578125,0.0018974719569087029,-0.0007445132359862328,0.0014416883932426572
1772702131744110600,0.246110595703125,-0.0005908936727792025,0.0004007224924862385,0.00021850806660950184
1772702131754160600,0.25616064453125,0.00009247346315532923,0.000003378838300704956,0.0012400966370478272
1772702131764210700,0.266210693359375,0.00023912749020382762,-0.00037515535950660706,-0.0042781648226082325
1772702131774259500,0.276259521484375,-0.0018085771007463336,0.0013090278953313828,-0.0014632036909461021
1772702131784309500,0.2863095703125,0.0016419007442891598,-0.003554342081770301,-0.0011761193163692951
1772702131794358800,0.29635888671875,0.0015249879797920585,0.0008710324764251709,0.0012303130934014916
1772702131804408600,0.30640869140625,0.000008939183317124844,0.003454651217907667,0.0008565406897105277
1772702131814457600,0.31645751953125,0.0014510408509522676,0.0015952321700751781,0.00036119273863732815
1772702131824507600,0.326507568359375,0.00016100244829431176,-0.001103340182453394,0.00012323231203481555
1772702131834556700,0.336556640625,-0.001436095219105482,-0.0004074564203619957,0.0008217794820666313
1772702131844606700,0.346606689453125,-0.002378587145358324,-0.0018439698033034801,0.00197340059094131
1772702131854655700,0.35665576171875,-0.00438261590898037,-0.0012631341814994812,-0.00030520008294843137
1772702131864705500,0.36670556640625,-0.001982662361115217,0.0015381500124931335,0.0019670133478939533
1772702131874754600,0.376754638671875,-0.00011312332935631275,0.0032340511679649353,-0.002133722184225917
1772702131884804600,0.3868046875,0.0017644026083871722,-0.00043870555236935616,-0.00180442922282964
1772702131894853600,0.396853515625,-0.0012966347858309746,-0.0009092860855162144,0.001215595519170165
1772702131904903700,0.406903564453125,0.0022975653409957886,0.0008673183619976044,0.0007624516147188842
1772702131914952700,0.41695263671875,-0.0015613550785928965,-0.0010219281539320946,-0.0015835268422961235
1772702131925002500,0.42700244140625,-0.0011704058852046728,0.0019443132914602757,-0.0002516251115594059
1772702131935051800,0.4370517578125,-0.00014455628115683794,-0.00105254165828228,0.004247252829372883
1772702131945101800,0.447101806640625,0.00005305476952344179,0.0001256316900253296,-0.00024455992388539016
1772702131955151600,0.457151611328125,-0.0003533436683937907,0.000336288008838892,0.0007165748975239694
1772702131965200600,0.46720068359375,0.0025804834440350533,0.00029164180159568787,-0.0008520320989191532
1772702131975250700,0.477250732421875,-0.0009796303929761052,0.0017422651872038841,-0.001098374486900866
1772702131985299700,0.4872998046875,-0.0012534826528280973,0.0015615904703736305,-0.0013785194605588913
1772702131995349800,0.497349853515625,0.0008461535908281803,-0.00023497827351093292,0.0020774644799530506
1772702132005398800,0.507398681640625,0.002411917317658663,0.000032755546271800995,-0.000030824594432488084
1772702132015448600,0.517448486328125,0.0015338731463998556,-0.0014567500911653042,0.0006219162023626268
1772702132025497600,0.52749755859375,0.0001675804960541427,-0.0015476411208510399,0.0009510735981166363
1772702132035547600,0.537547607421875,0.0009183255606330931,-0.000011529773473739624,-0.0016034304862841964
1772702132045596700,0.5475966796875,-0.002650926588103175,0.002196663524955511,0.000345279200701043
1772702132055646700,0.557646728515625,0.000019425060600042343,0.0023386101238429546,-0.0012289152946323156
1772702132065695700,0.56769580078125,-0.001627740333788097,-0.000008956994861364365,-0.001096429885365069
1772702132075745500,0.57774560546875,-0.0013193461345508695,-0.001970109064131975,-0.0005781787913292646
1772702132085794600,0.587794677734375,0.0007151495665311813,0.0010675881057977676,-0.00029056225321255624
1772702132095844900,0.597844970703125,0.0005441746325232089,0.0024423114955425262,-0.0012498329160735011
1772702132105893600,0.6078935546875,0.0006691943272016943,-0.000008252914994955063,0.0016652728663757443
1772702132115943700,0.617943603515625,0.0015674785245209932,0.0002530035562813282,0.0020138805266469717
1772702132125993700,0.62799365234375,0.0005671762046404183,0.0007332619279623032,-0.002929147332906723
1772702132136042500,0.63804248046875,-0.0011822542874142528,-0.0013876799494028091,0.0015777201624587178
1772702132146092500,0.648092529296875,0.0005537830875255167,-0.0003045634366571903,0.000021494895918294787
1772702132156141800,0.658141845703125,-0.0012502423487603664,0.0022384892217814922,0.0013482817448675632
1772702132166191600,0.668191650390625,0.0004956719931215048,-0.0012860288843512535,0.0018741905223578215
1772702132176240600,0.67824072265625,0.0005087214522063732,-0.000125157181173563,0.0010515401372686028
1772702132186290700,0.688290771484375,-0.0019822679460048676,0.0019161244854331017,-0.0002649636589922011
1772702132196339700,0.698339599609375,-0.0009814522927626967,0.0016024047508835793,-0.00011902244295924902
1772702132206389800,0.7083896484375,-0.001515930169261992,-0.0009288270957767963,0.0002132126101059839
1772702132216438800,0.718438720703125,0.0016034304862841964,0.00018570572137832642,0.001759976614266634
1772702132226488600,0.728488525390625,-0.0011593833332881331,-0.0010836445726454258,-0.0016857640584930778
1772702132236537600,0.73853759765625,0.00021507416386157274,0.00018109101802110672,-0.0015912220114842057
1772702132246587600,0.748587646484375,-0.00119997828733176,0.002115866169333458,0.0012515881098806858
1772702132256636700,0.75863671875,-0.0019200969254598022,0.0012343600392341614,-0.0010517798364162445
1772702132266686700,0.768686767578125,-0.001262447563931346,0.0003876956179738045,0.0007893601432442665
1772702132276735500,0.778735595703125,0.00036314589669927955,-0.0015383022837340832,0.0037270933389663696
1772702132286785500,0.78878564453125,-0.0016698233084753156,-0.0015754485502839088,0.0015565039357170463
1772702132296835600,0.798835693359375,-0.0005262619815766811,-0.0037366037722676992,-0.0008933378849178553
1772702132306884900,0.808884765625,-0.0015195743180811405,-0.00046252645552158356,0.0002930561313405633
1772702132316934700,0.8189345703125,0.00007139798253774643,0.002203830052167177,0.0019615264609456062
1772702132326983700,0.828983642578125,0.0005125783500261605,-0.002217981033027172,-0.0009502967586740851
1772702132337033700,0.83903369140625,-0.00017132144421339035,-0.0009537786245346069,0.00033148270449601114
1772702132347082500,0.84908251953125,0.0032193053048104048,-0.00034124404191970825,-0.0001753693213686347
1772702132357132800,0.8591328125,0.0015617538010701537,-0.0008019711822271347,-0.0018544923514127731
1772702132367181800,0.869181884765625,0.00023500306997448206,-0.0006392830982804298,-0.002139383926987648
1772702132377231600,0.879231689453125,0.000782016315497458,0.001882198266685009,0.0003176484606228769
1772702132387280600,0.88928076171875,0.0014930830802768469,0.0006016376428306103,-0.0005903152050450444
1772702132397330700,0.89933056640625,-0.0008329218253493309,0.0016120406799018383,-0.0004643476568162441
1772702132407379700,0.909379638671875,-0.00367802195250988,-0.0006295056082308292,-0.0013317279517650604
1772702132417429800,0.9194296875,-0.00021431490313261747,0.0001936773769557476,0.0005569859058596194
1772702132427478500,0.929478515625,0.0013531191507354379,0.000028106383979320526,-0.0006402150029316545
1772702132437528600,0.939528564453125,0.0000393817899748683,-0.001759407576173544,0.003421638160943985
1772702132447577600,0.94957763671875,-0.0004599934909492731,0.0005014422349631786,-0.0006958123994991183
1772702132457627600,0.959627685546875,-0.0006642579101026058,0.0013243588618934155,-0.002066541463136673
1772702132467676700,0.9696767578125,-0.0004627630114555359,-0.00033879373222589493,-0.001913362881168723
1772702132477726700,0.979726806640625,-0.00040310819167643785,-0.00044265715405344963,0.0014552695211023092
1772702132487776800,0.98977685546875,0.0018423792207613587,-0.000893469899892807,0.001469744835048914
1772702132497825500,0.999825439453125,-0.002131856046617031,-0.0005107736214995384,-0.0009585253428667784
1772702132507875600,1.00987548828125,0.0005247545195743442,0.0024665668606758118,-9.514042176306248e-7
1772702132517924600,1.019924560546875,-0.00014822627417743206,0.00014002900570631027,0.000004374916898086667
1772702132527974700,1.029974609375,-0.0006529688835144043,0.0010469448752701283,0.0006901754532009363
1772702132538023700,1.040023681640625,0.0008527823374606669,-0.0007674670778214931,0.00037512349081225693
1772702132548073700,1.05007373046875,-0.0008103098953142762,-0.0010451148264110088,-0.0019461876945570111
1772702132558122800,1.060122802734375,0.00045522424625232816,-0.0002616127021610737,-0.0011991709470748901
1772702132568172800,1.0701728515625,0.0014565668534487486,0.00023765908554196358,0.0005076091038063169
1772702132578221800,1.080221923828125,0.0007660092087462544,-0.001463035587221384,0.0002317056350875646
1772702132588271900,1.09027197265625,0.0000659239012748003,-0.0020417901687324047,-0.00013978854985907674
1772702132598320600,1.100320556640625,0.0020843336824327707,0.001448282040655613,-0.0007829419337213039
1772702132608370700,1.11037060546875,0.0005061536212451756,-0.000432807020843029,0.0009114091517403722
1772702132618420000,1.120419921875,-0.00026243471074849367,0.0005549597553908825,-0.0010113930329680443
1772702132628469800,1.1304697265625,-0.0008092392235994339,-0.00038659293204545975,0.0022858523298054934
1772702132638518800,1.140518798828125,0.002042739884927869,-0.0008949902839958668,0.0016709284391254187
1772702132648568800,1.15056884765625,0.0009676257031969726,0.000004116911441087723,-0.0004130130400881171
1772702132658617900,1.160617919921875,-0.0023536025546491146,-0.00037724757567048073,0.001259718439541757
1772702132668668000,1.17066796875,-0.0009822748834267259,-0.001454661600291729,-0.004120388068258762
1772702132678718000,1.180718017578125,0.00256984937004745,0.0009645535610616207,0.0007009988185018301
1772702132688766700,1.1907666015625,0.0013461015187203884,-0.0008536437526345253,-0.0007402088958770037
1772702132698816800,1.200816650390625,0.0002094643423333764,0.0006347973830997944,-0.0011141166323795915
1772702132708865800,1.21086572265625,0.0015015697572380304,0.0005578435957431793,-0.0018067291239276528
1772702132718915600,1.22091552734375,0.0017833320889621973,0.0008973972871899605,-0.002382504753768444
1772702132728964900,1.23096484375,0.0011307414388284087,-0.00008419714868068695,0.00018212152644991875
1772702132739015000,1.241014892578125,-0.0010831444524228573,-0.0005033789202570915,-0.0009878051932901144
1772702132749063700,1.251063720703125,0.0015174143481999636,0.0008559832349419594,0.0034141617361456156
1772702132759113700,1.26111376953125,-0.00012841913849115372,-0.003132899757474661,0.0019089431734755635
1772702132769163000,1.2711630859375,0.0036470689810812473,0.0011661811731755733,0.00046859681606292725
1772702132779212800,1.281212890625,0.0010097404010593891,-0.0028978027403354645,0.0008941699634306133
1772702132789261800,1.29126171875,0.0012773165944963694,-0.0008150404319167137,-0.0007988667348399758
1772702132799312000,1.301311767578125,0.0007715823594480753,0.002492605708539486,-0.003933141008019447
1772702132809360600,1.311360595703125,0.0004924008389934897,0.00016636913642287254,0.002782321535050869
1772702132819410700,1.32141064453125,0.0016636591171845794,0.00026410678401589394,0.0010483372025191784
1772702132829459700,1.331459716796875,-0.000845456263050437,0.0017404989339411259,0.0005259879399091005
1772702132839509800,1.341509765625,0.0020688408985733986,-0.00071706622838974,-0.0005368796992115676
1772702132849558800,1.351558837890625,-0.001195697346702218,-0.0006583761423826218,-0.001429876545444131
1772702132859608800,1.36160888671875,-0.0010199288371950388,0.0018942640163004398,-0.001281272154301405
1772702132869657900,1.371657958984375,0.0005166413611732423,-0.0006171385757625103,0.0016619432717561722
1772702132879708000,1.3817080078125,0.0004969339934177697,0.0012955442070960999,-0.004166917409747839
1772702132889758000,1.391758056640625,0.00015897402772679925,-0.0018520657904446125,-0.0021526773925870657
1772702132899806700,1.401806640625,-0.0011283979984000325,-0.0002797353081405163,-0.0017859600484371185
1772702132909856800,1.411856689453125,-0.0011904127895832062,0.00017302017658948898,-0.0016620894894003868
1772702132919905800,1.42190576171875,0.0015305387787520885,-0.00197188975289464,0.00047163531417027116
1772702132929955800,1.431955810546875,0.00021717551862820983,0.0009542782790958881,0.0015360425459221005
1772702132940004900,1.4420048828125,0.0011977513786405325,-0.00018182583153247833,-0.0006597337778657675
1772702132950055000,1.452054931640625,-0.0008419658988714218,-0.002442214172333479,-0.0016853054985404015
1772702132960103700,1.462103759765625,-0.0009274533949792385,0.0019259024411439896,0.00014748203102499247
1772702132970153700,1.47215380859375,0.000028490670956671238,-0.001937846653163433,0.0008702127961441875
1772702132980202800,1.48220263671875,-0.000168316881172359,-0.0002826922573149204,-0.0000720135576557368
1772702132990252800,1.492252685546875,0.0006270786980167031,0.0007343282923102379,0.002994912676513195
1772702133000301800,1.5023017578125,0.0002497087698429823,0.001437935046851635,-0.0012552259722724557
1772702133010351900,1.512351806640625,0.00044013187289237976,0.0007912740111351013,-0.001558394287712872
1772702133020400600,1.522400634765625,0.0001839358010329306,0.0005973959341645241,-0.0009647757979109883
1772702133030451000,1.532450927734375,0.0001310200896114111,-0.00007052766159176826,-0.001022959710098803
1772702133040499700,1.542499755859375,-0.0014053574996069074,-0.0005538915283977985,-0.0031814519315958023
1772702133050549800,1.5525498046875,-0.000246503041125834,-0.0014701890759170055,-0.0016109335701912642
1772702133060598800,1.562598876953125,0.0005961211863905191,-0.000030484050512313843,-0.0006418092525564134
1772702133070648600,1.572648681640625,0.0001533027389086783,-0.001113162375986576,0.00038475668407045305
1772702133080697900,1.58269775390625,-0.0018182354979217052,0.0008495869114995003,-0.0025641615502536297
1772702133090748000,1.592747802734375,0.0034034913405776024,-0.0012635951861739159,0.0023155957460403442
1772702133100798000,1.6027978515625,0.00006628420669585466,0.0018443139269948006,-0.00226078019477427
1772702133110846700,1.6128466796875,-0.0003405867610126734,-0.0006977077573537827,-0.00046237086644396186
1772702133120896800,1.622896728515625,0.0012290803715586662,-0.0014172941446304321,0.001352307153865695
1772702133130945800,1.63294580078125,-0.00006290234159678221,-0.0015237987972795963,-0.00044162204721942544
1772702133140995800,1.642995849609375,0.0009648115374147892,0.0006485413759946823,-0.0010592089965939522
1772702133151044900,1.653044921875,-0.0003297793446108699,0.0003378521651029587,0.001002735923975706
1772702133161095000,1.663094970703125,-0.00035694357939064503,-0.0013900063931941986,0.001930847531184554
1772702133171143700,1.673143798828125,0.0026605832390487194,0.000824593473225832,-0.00014091015327721834
1772702133181193700,1.68319384765625,-0.002529651392251253,0.0013068919070065022,0.00020902919641230255
1772702133191242800,1.69324267578125,-0.0013912252616137266,0.0007557636126875877,-0.002215111628174782
1772702133201292800,1.703292724609375,0.0010048206895589828,-0.0014187069609761238,0.0006472538225352764
1772702133211341800,1.713341796875,0.0005493733915500343,0.0005131387151777744,-0.00024703063536435366
1772702133221391600,1.7233916015625,0.00004923180676996708,-0.000041863881051540375,0.000442195450887084
1772702133231441000,1.73344091796875,-0.001082096016034484,0.0003455979749560356,-0.0014652672689408064
1772702133241491000,1.743490966796875,-0.0004298877902328968,0.000007376540452241898,-0.00007056983304210007
1772702133251539700,1.753539794921875,-0.00033395132049918175,0.00014271307736635208,-0.000629240064881742
1772702133261589800,1.76358984375,-0.00035445764660835266,0.0009232861921191216,-0.000060122518334537745
1772702133271638800,1.773638671875,0.000006488291546702385,0.0009505711495876312,-0.0021205402445048094
1772702133281688600,1.7836884765625,0.0025689820758998394,-0.0004750187508761883,-0.0001593884953763336
1772702133291738600,1.793738525390625,-0.00022272963542491198,-0.00011659413576126099,-0.00007490432471968234
1772702133301788000,1.803787841796875,-0.0006885165348649025,0.001195545308291912,-0.0022512394934892654
1772702133311837700,1.813837646484375,0.001513568451628089,-0.0015143267810344696,0.0029397073667496443
1772702133321886700,1.82388671875,-0.00007740396540611982,0.0005711950361728668,-0.0009224087698385119
1772702133331936800,1.833936767578125,0.00016481371130794287,-0.0012577949091792107,0.0011814633617177606
1772702133341985800,1.84398583984375,-0.000200571957975626,0.001264485064893961,-0.0003839427372440696
1772702133352035800,1.854035888671875,-0.0014366443501785398,0.0011819517239928246,-0.003284259233623743
1772702133362084900,1.8640849609375,0.0014662012690678239,-0.000774140004068613,-0.0008434721385128796
1772702133372134700,1.874134765625,-0.0011648716172203422,0.001172573771327734,-0.0006900215521454811
1772702133382183700,1.88418359375,0.0013954913010820746,-0.0008759293705224991,-0.0022620856761932373
1772702133392233700,1.894233642578125,-0.0014865694101899862,0.0010588644072413445,-0.00007755975821055472
1772702133402282800,1.90428271484375,0.0005054750363342464,-0.0007715262472629547,0.002392522292211652
1772702133412332800,1.914332763671875,-0.0008447418222203851,-0.00038162898272275925,0.0015947803622111678
1772702133422381800,1.9243818359375,-0.0021297172643244267,0.0024421210400760174,0.00027784722624346614
1772702133432431600,1.934431640625,0.0004104370018467307,0.002140600699931383,-0.002758393296971917
1772702133442481000,1.94448095703125,0.00033799902303144336,-0.000292197335511446,-0.001076873391866684
1772702133452531000,1.954531005859375,0.00011900230310857296,-0.0021998360753059387,0.0019653653725981712
1772702133462579700,1.964579833984375,0.0009496422717347741,-0.00034680869430303574,0.0008678768062964082
1772702133472629800,1.974629638671875,0.0001584443962201476,0.0007887477986514568,0.0028849097434431314
1772702133482678800,1.9846787109375,-0.0001904297387227416,0.000011371448636054993,0.0015480027068406343
1772702133492728800,1.994728759765625,-0.0017668091459199786,0.0005027549341320992,0.0013604456325992942
1772702133502777900,2.00477783203125,-0.0002501389244571328,0.0018934579566121101,-0.0004963102983310819
1772702133512828000,2.014827880859375,0.0024124090559780598,-0.003156295046210289,0.003938669338822365
1772702133522877700,2.024877685546875,-0.0015058997087180614,-0.00042069610208272934,-0.0031400127336382866
1772702133532926700,2.0349267578125,-0.00017398141790181398,-0.0014336640015244484,0.0011071463814005256
1772702133542976300,2.044976318359375,0.00008168199565261602,0.00010750722140073776,0.001152686425484717
1772702133553025000,2.05502490234375,-0.000277490122243762,-0.0002980027347803116,-0.00010505929822102189
1772702133563075000,2.065074951171875,0.001352897146716714,-0.0006346260197460651,-0.0010960215004161
1772702133573124000,2.0751240234375,-0.0003871240187436342,-0.0003074994310736656,-0.0017396421171724796
1772702133583174000,2.085173828125,-0.00006221840158104897,0.0007375245913863182,-0.002258425811305642
1772702133593223200,2.09522314453125,0.0011392246233299375,0.0013908795081079006,0.000850754207931459
1772702133603273200,2.105273193359375,0.0009812992066144943,-0.00039290590211749077,0.0013905769446864724
1772702133613322000,2.115322021484375,0.00017293880227953196,0.000525803305208683,-0.0032837428152561188
1772702133623372000,2.1253720703125,0.0015926698688417673,-0.00002094358205795288,-0.0029106340371072292
1772702133633421000,2.135421142578125,-0.0003849714994430542,-0.0004125293344259262,-0.001383342081680894
1772702133643471000,2.14547119140625,0.000683755031786859,-0.0024732835590839386,-0.0007543033570982516
1772702133653520100,2.15552001953125,-0.000737131922505796,0.0008160155266523361,-0.00003702560206875205
1772702133663570200,2.165570068359375,-0.0003033030079677701,-0.001484688837081194,0.0020735296420753
1772702133673619000,2.175618896484375,0.0010009941179305315,-0.0006813565269112587,0.00020060635870322585
1772702133683669000,2.1856689453125,-0.0007122174138203263,0.00031892675906419754,0.0006498816655948758
1772702133693718300,2.19571826171875,0.0018087206408381462,-0.0008050990290939808,0.0018820540281012654
1772702133703768000,2.20576806640625,-0.0008357984479516745,0.0017403503879904747,-0.00016005791258066893
1772702133713817000,2.215817138671875,-0.0011459181550890207,0.00036706821992993355,-0.0018414692021906376
1772702133723867100,2.2258671875,0.00010816438589245081,0.0004123421385884285,0.0004616325022652745
1772702133733917000,2.2359169921875,-0.0007631526095792651,0.0000829547643661499,-0.0009212063741870224
1772702133743966200,2.24596630859375,0.00041050242725759745,-0.000241951085627079,0.0037885939236730337
1772702133754016300,2.256016357421875,-0.003051173174753785,0.0002580881118774414,0.0010325165931135416
1772702133764065000,2.26606494140625,-0.0005374156171455979,0.0002703387290239334,-0.002027455484494567
1772702133774115000,2.276114990234375,-0.0024238117039203644,0.0013724872842431068,-0.0005758272018283606
1772702133784164000,2.2861640625,0.001061200862750411,-0.0014728340320289135,0.002281744498759508
1772702133794214000,2.2962138671875,0.0010830628452822566,0.0027413317002356052,0.0006302687688730657
1772702133804263200,2.30626318359375,-0.0014099221443757415,0.0010997592471539974,-0.0014997273683547974
1772702133814313200,2.316313232421875,-0.00202156906016171,-0.001849392894655466,0.0019771165680140257
1772702133824362000,2.326362060546875,0.00026289053494110703,0.00032774126157164574,-0.0008652752148918808
1772702133834412000,2.336412109375,-0.0011446819407865405,0.0013187308795750141,-0.004371831193566322
1772702133844461000,2.3464609375,0.0024460582062602043,0.000024168752133846283,0.0006745924474671483
1772702133854511000,2.356510986328125,-0.00029438058845698833,-0.00005132937803864479,0.00034178016358055174
1772702133864560000,2.36656005859375,-0.00019797415006905794,0.000016049016267061234,0.0027261083014309406
1772702133874610200,2.376610107421875,-0.0025899186730384827,0.0006817393004894257,-0.0007353390683420002
1772702133884659000,2.386658935546875,0.00020906346617266536,0.0014900090172886848,0.002244205679744482
1772702133894709000,2.396708984375,-0.0018480115104466677,-0.0010935664176940918,0.0002549973432905972
1772702133904758000,2.406758056640625,0.0019573792815208435,-0.0014664093032479286,0.0016321178991347551
1772702133914808000,2.41680810546875,0.000043357606045901775,-0.0013790158554911613,-0.00015207251999527216
1772702133924857000,2.426857177734375,-0.0002852764446288347,-0.00033958395943045616,-0.0008021501125767827
1772702133934907000,2.436906982421875,-0.0007121190428733826,0.0013091415166854858,-0.0010338942520320415
1772702133944956200,2.4469560546875,-0.0019342437153682113,-0.00018169637769460678,0.0013978382339701056
1772702133955006200,2.457006103515625,-0.0006055687554180622,-0.0020086304284632206,0.0008818081114441156
1772702133965056300,2.46705615234375,0.00010709313210099936,-0.0014914446510374546,0.0009260165970772505
1772702133975105000,2.47710498046875,0.00026758969761431217,-0.0000842004083096981,0.0012795587535947561
1772702133985155000,2.487155029296875,-0.000959062366746366,-0.000658378005027771,0.00016689006588421762
1772702133995204000,2.4972041015625,-0.0007209584582597017,0.002555152866989374,-0.00268253730610013
1772702134005254100,2.507254150390625,0.0011730818077921867,0.0007013264112174511,-0.0010702596046030521
1772702134015303200,2.51730322265625,0.00032601342536509037,-0.0006552846170961857,0.0001733608078211546
1772702134025353200,2.527353271484375,-0.00011074496433138847,-0.0012489031068980694,-0.0006484907353296876
1772702134035402000,2.537402099609375,-0.00008817203342914581,0.0009707845747470856,-0.0013061172794550657
1772702134045452000,2.5474521484375,0.000018354388885200024,0.0015438972041010857,-0.0002991761430166662
1772702134055501000,2.5575009765625,0.0018055569380521774,-0.0004168180748820305,0.0016293779481202364
1772702134065551000,2.567551025390625,-0.001497561577707529,0.0003722766414284706,0.001827783533371985
1772702134075600100,2.57760009765625,0.000556236132979393,0.002700135577470064,-0.0008503319695591927
1772702134085650000,2.58764990234375,0.0001700777793303132,-0.0012224344536662102,-0.0010671133641153574
1772702134095699000,2.597698974609375,0.00250984076410532,-0.0023577813990414143,0.0023506495635956526
1772702134105749200,2.607749267578125,-0.0004001953639090061,-0.0000437605194747448,0.00084942567627877
1772702134115798000,2.617798095703125,0.0023703642655164003,-0.002305497881025076,-0.00004950328730046749
1772702134125848000,2.62784814453125,-0.0014749739784747362,-0.0006370274350047112,0.0010967212729156017
1772702134135897000,2.63789697265625,0.001027252059429884,0.0016680536791682243,0.0006438924465328455
1772702134145947000,2.64794677734375,0.0026805424131453037,-0.0004520881921052933,0.0014630808727815747
1772702134155996200,2.65799609375,0.0016495108138769865,0.0015254616737365723,-0.0009807755704969168
1772702134166046200,2.668046142578125,0.00003137404564768076,0.0005262438207864761,0.001785982633009553
1772702134176095000,2.678094970703125,0.0025134007446467876,0.00048626959323883057,0.00022600285592488945
1772702134186145000,2.68814501953125,-0.0004195384681224823,0.0023259809240698814,0.0003418503620196134
1772702134196195000,2.698195068359375,0.0005281944759190083,-0.00038258498534560204,-0.0007958367350511253
1772702134206244000,2.708244140625,0.00018890772480517626,-0.0010726102627813816,0.0003168319817632437
1772702134216294100,2.718294189453125,0.002066429238766432,-0.0018067206256091595,0.00011926263687200844
1772702134226343200,2.72834326171875,-0.0001977903302758932,0.001868175808340311,0.0007480349740944803
1772702134236393000,2.73839306640625,0.0011792985023930669,-0.0013182354159653187,0.002948139561340213
1772702134246442000,2.74844189453125,0.0011790322605520487,0.0016541187651455402,-0.00009585352381691337
1772702134256492000,2.758491943359375,-0.0005119547713547945,0.0005609882064163685,-0.0021510038059204817
1772702134266541000,2.768541015625,-0.00002406362909823656,0.0016781841404736042,0.0040704067796468735
1772702134276591000,2.778591064453125,0.0016229602042585611,0.0005649654194712639,-0.001123599475249648
1772702134286640000,2.78864013671875,0.0007156212232075632,0.0003204871900379658,0.0003451338270679116
1772702134296690000,2.79868994140625,-0.0024227628018707037,-0.00014376221224665642,0.0006959270685911179
1772702134306739200,2.8087392578125,0.000170090701431036,-0.00019063381478190422,-0.002287345938384533
1772702134316789200,2.818789306640625,-0.0007340513402596116,0.00007023708894848824,-0.00020904320990666747
1772702134326838000,2.828838134765625,0.00003666756674647331,0.0031453892588615417,0.0010828562080860138
1772702134336888000,2.83888818359375,0.0011722799390554428,0.0015018638223409653,-0.0005877996445633471
1772702134346937000,2.84893701171875,0.0005560244317166507,-0.0007170820608735085,0.0019078485202044249
1772702134356987000,2.85898681640625,-0.0014349549310281873,0.0005952687934041023,0.003082810901105404
1772702134367036200,2.8690361328125,0.0011533714132383466,-0.0020913276821374893,0.00016664975555613637
1772702134377086200,2.879086181640625,0.0014020232483744621,-0.00010540662333369255,0.0016854937421157956
1772702134387135000,2.889135009765625,0.0004142568213865161,0.0014576022513210773,0.00037814793176949024
1772702134397185000,2.89918505859375,0.002732293913140893,0.0006457427516579628,0.00004746744525618851
1772702134407235000,2.909235107421875,-0.001137545332312584,0.0025762682780623436,-0.0019054285949096084
1772702134417284000,2.9192841796875,-0.0006063795881345868,-0.0004053856246173382,-0.0000778127578087151
1772702134427334100,2.929334228515625,0.001386996591463685,0.0004031499847769737,0.000731521868146956
1772702134437383200,2.939383056640625,0.002009469084441662,-0.0022490802221000195,0.0003414416569285095
1772702134447433000,2.949432861328125,-0.00133386324159801,0.0021669729612767696,-0.0008652366232126951
1772702134457482000,2.95948193359375,0.0015193866565823555,-0.0010718614794313908,-0.000933781499043107
1772702134467532000,2.969531982421875,0.0014434866607189178,-0.00015120673924684525,0.0019943639636039734
1772702134477581000,2.9795810546875,0.000472093524876982,-0.0013153022155165672,-0.002017802791669965
1772702134487631000,2.989631103515625,0.002564006485044956,-0.0006654909811913967,0.0036747041158378124
1772702134497680100,2.99968017578125,0.0005049699684605002,0.0004223971627652645,0.002344874432310462
1772702134507730000,3.00972998046875,0.001700729364529252,-0.0006015882827341557,-0.0010583791881799698
1772702134517779200,3.019779296875,-0.00041266053449362516,-0.002041812986135483,-0.0004887440009042621
1772702134527829200,3.029829345703125,-0.00237860600464046,-0.0008519128896296024,-0.0008565265452489257
1772702134537878000,3.0398779296875,-0.0005430723540484905,0.0006176307797431946,-0.0018567064544185996
1772702134547928300,3.04992822265625,0.0022681604605168104,0.0013348199427127838,-0.0009530959650874138
1772702134557977000,3.05997705078125,-0.0029717381112277508,0.0012629092670977116,0.0006133191054686904
1772702134568027100,3.070027099609375,-0.000021221698261797428,0.00007993355393409729,0.00043568629189394414
1772702134578076400,3.080076416015625,0.0016430839896202087,0.0014443802647292614,-0.0009507437353022397
1772702134588126200,3.090126220703125,0.0013240373227745295,0.0014859256334602833,0.00038456518086604774
1772702134598175200,3.10017529296875,-0.0020475112833082676,0.0036566597409546375,0.0006626694812439382
1772702134608225300,3.110225341796875,-0.000019780476577579975,-0.0024028304032981396,-0.0019466957310214639
1772702134618274300,3.1202744140625,0.0018894628155976534,0.00024538254365324974,0.00014602794544771314
1772702134628324400,3.130324462890625,-0.0010333562968298793,0.00004617823287844658,0.0001747900969348848
1772702134638374400,3.14037451171875,0.00048544449964538217,0.0005556251853704453,0.0032987105660140514
1772702134648423200,3.150423095703125,-0.000009637093171477318,-0.003044968470931053,0.0018012149957939982
1772702134658473200,3.16047314453125,-0.00042086036410182714,-0.0011514080688357353,-0.0010209197644144297
1772702134668522200,3.170522216796875,-0.0013420478207990527,-0.0005631158128380775,0.0013221293920651078
1772702134678572300,3.180572265625,0.0006117968587204814,0.0011776895262300968,0.0005808923742733896
1772702134688621300,3.190621337890625,0.0008112676441669464,0.0007601059041917324,0.000525764946360141
1772702134698671400,3.20067138671875,-0.00008832477033138275,0.0016029919497668743,-0.0007795487763360143
1772702134708720000,3.21072021484375,0.0001894430024549365,-0.00016561290249228477,-0.0006237538764253259
1772702134718770200,3.220770263671875,-0.0015046620974317193,-0.00013930676504969597,-0.0017294835997745395
1772702134728819500,3.2308193359375,0.00014063890557736158,-0.0021499930880963802,0.0019459450850263238
1772702134738869200,3.240869140625,0.0005355800385586917,-0.0013026613742113113,-0.0015328375156968832
1772702134748918300,3.250918212890625,0.0007787266513332725,-0.000005967915058135986,-0.001223378349095583
1772702134758968300,3.26096826171875,-0.0006407432956621051,0.002603194210678339,-0.0020808707922697067
1772702134769017300,3.271017333984375,-0.001110258512198925,0.0008023646660149097,-0.0016515691531822085
1772702134779067400,3.2810673828125,-0.0025547961704432964,0.001871099229902029,-0.0006362295825965703
1772702134789116400,3.291116455078125,-0.000271401833742857,-0.00008792243897914886,0.0006119940080679953
1772702134799166200,3.301166259765625,0.0014788061380386353,0.002383274957537651,-0.002176673850044608
1772702134809215200,3.31121533203125,0.001561097800731659,-0.001420518383383751,0.0028654891066253185
1772702134819265300,3.321265380859375,0.0007480637868866324,0.0006436365656554699,-0.0002519014524295926
1772702134829314300,3.331314208984375,-0.00036646914668381214,0.0007293908856809139,-0.0010077066253870726
1772702134839364400,3.3413642578125,-0.000899753998965025,-0.00045655155554413795,0.0013726433971896768
1772702134849413400,3.351413330078125,0.00018974533304572105,-0.0013167527504265308,-0.0003829123452305794
1772702134859463200,3.361463134765625,0.0002990687498822808,0.0005571041256189346,0.0009167222306132317
1772702134869513200,3.37151318359375,0.0011006802087649703,-0.0007659541442990303,-0.00044282147428020835
1772702134879562500,3.3815625,0.0011953406501561403,0.00010248320177197456,-0.00011965486919507384
1772702134889612300,3.3916123046875,-0.00047046656254678965,0.0033494089730083942,0.0005935396766290069
1772702134899661300,3.401661376953125,-0.0004887043032795191,0.0006089857779443264,-0.0009991240222007036
1772702134909711400,3.41171142578125,-0.00040588004048913717,0.0017528128810226917,0.0006080937455408275
1772702134919760100,3.421760009765625,-0.0022427670191973448,0.0012020273134112358,0.003301930846646428
1772702134929810200,3.43181005859375,0.0012438433477655053,0.0010041547939181328,-0.0013740473659709096
1772702134939859500,3.441859375,-0.0008914334466680884,-1.0570511221885681e-7,0.0029734899289906025
1772702134949909200,3.4519091796875,0.000940022524446249,0.0004680776037275791,-0.00199010968208313
1772702134959958300,3.461958251953125,0.002125304192304611,-0.0014802347868680954,0.00015846779569983482
1772702134970008300,3.47200830078125,-0.0013141683302819729,-0.00039819255471229553,0.0017813981976360083
1772702134980057300,3.482057373046875,0.003246463369578123,-0.0009628660045564175,-0.00022564770188182592
1772702134990107400,3.492107421875,0.0010176637442782521,0.0016824519261717796,0.0010361580643802881
1772702135000156400,3.502156494140625,-0.0004528139252215624,0.0007504378445446491,-0.002523986157029867
1772702135010206200,3.512206298828125,0.0010497416369616985,-0.0008346759714186192,-0.0006515176501125097
1772702135020255200,3.522255126953125,-0.0000025865156203508377,-0.0007605901919305325,0.0005294029251672328
1772702135030305300,3.53230517578125,0.000838706037029624,0.0006165304221212864,0.003108674194663763
1772702135040354300,3.542354248046875,-0.001432994962669909,0.000630158931016922,-0.0009424783056601882
1772702135050404400,3.552404296875,0.002621667692437768,-0.000025245361030101776,0.00037445485941134393
1772702135060453000,3.562453125,-0.001781401108019054,-0.0007280167192220688,-0.000972578302025795
1772702135070503200,3.572503173828125,-0.0008090810151770711,0.0016176956705749035,-0.0021267924457788467
1772702135080553200,3.58255322265625,-0.002363568637520075,0.0025024013593792915,-0.0017693318659439683
1772702135090602500,3.5926025390625,-0.0005318464245647192,-0.0021338951773941517,-0.0020582848228514194
1772702135100652300,3.60265234375,0.0005348811973817647,-0.001512432936578989,0.00091903394786641
1772702135110701300,3.612701416015625,0.0022837789729237556,-0.00019123870879411697,0.000636206241324544
1772702135120751400,3.62275146484375,-0.000011801370419561863,-0.0004523233510553837,-0.002534800209105015
1772702135130800000,3.632800048828125,-0.001154297380708158,0.0005394378677010536,0.0003334241337142885
1772702135140850400,3.642850341796875,0.0019365656189620495,-0.00038585811853408813,-0.0008740675984881818
1772702135150899200,3.652899169921875,0.002223920775577426,0.00028392672538757324,0.000981889315880835
1772702135160949200,3.66294921875,0.001120088854804635,0.0001208186149597168,0.0014324903022497892
1772702135170998300,3.672998291015625,-0.002345216227695346,0.000618829857558012,-0.0032437541522085667
1772702135181048300,3.68304833984375,0.0016836955910548568,0.00006724335253238678,0.002458723494783044
1772702135191097300,3.693097412109375,-0.002626630710437894,0.0005932175554335117,-0.00017753976862877607
1772702135201147400,3.7031474609375,0.0020619032438844442,-0.0008667092770338058,0.0011708522215485573
1772702135211196200,3.713196044921875,0.0016227480955421925,0.0003964281640946865,-0.0003636612091213465
1772702135221246200,3.72324609375,-0.00005043379496783018,0.00037881312891840935,0.00044683870510198176
1772702135231295200,3.733295166015625,-0.001671499921940267,0.00011915527284145355,0.0008689496899023652
1772702135241345300,3.74334521484375,0.0012765885330736637,0.00019990280270576477,-0.0008670970564708114
1772702135251394300,3.753394287109375,0.0004339643055573106,0.0016332156956195831,-0.001050322549417615
1772702135261444400,3.7634443359375,-0.00009838154073804617,-0.0001447717659175396,0.0005642458563670516
1772702135271493000,3.7734931640625,0.0010361250024288893,0.00046562496572732925,-0.000264529837295413
1772702135281543200,3.783543212890625,-0.001495582633651793,0.00008941581472754478,-0.002322361571714282
1772702135291592400,3.793592529296875,-0.0017501808470115066,-0.0014986270107328892,0.0001663625007495284
1772702135301642200,3.803642333984375,0.0003308080486021936,-0.002291204407811165,-0.0012368918396532536
1772702135311692300,3.8136923828125,-0.0022796224802732468,0.0017168526537716389,0.0019298731349408627
1772702135321741300,3.8237412109375,-0.0011788922129198909,-0.0004909313283860683,-0.0019473701249808073
1772702135331791400,3.833791259765625,-0.0005141672445461154,0.002301393076777458,0.0007781088352203369
1772702135341840400,3.84384033203125,-0.00022332021035254002,-0.001093616709113121,0.005810503847897053
1772702135351890400,3.853890380859375,-0.00033623818308115005,-0.0017801793292164803,-0.0010529947467148304
1772702135361939200,3.863939208984375,0.0012174959992989898,-0.001460500992834568,-0.00171216344460845
1772702135371989200,3.8739892578125,-0.0005391250597313046,-0.00033478252589702606,0.00035152005148120224
1772702135382038300,3.884038330078125,-0.0030789636075496674,0.0008278079330921173,-0.0006512373802252114
1772702135392088000,3.894088134765625,0.001628173515200615,0.0006858613342046738,-0.003471525153145194
1772702135402137300,3.904137451171875,-0.000789541401900351,-0.0013876440934836864,-0.0016588850412517786
1772702135412187400,3.9141875,-0.0004398683086037636,0.0013756519183516502,0.0016178684309124947
1772702135422236200,3.924236083984375,-0.0013927228283137083,-0.001057276502251625,-0.001384443836286664
1772702135432286200,3.9342861328125,-0.00046274694614112377,0.0006386246532201767,0.0009018799755722284
1772702135442335500,3.94433544921875,-0.0007073006127029657,-0.0026394836604595184,-0.0006881814333610237
1772702135452385300,3.95438525390625,0.0005694188294000924,0.00015656929463148117,-0.0015358654782176018
1772702135462434300,3.964434326171875,0.0015323011903092265,-0.001071256585419178,0.00151791051030159
1772702135472484400,3.974484375,-0.0023316792212426662,0.0011628693901002407,0.0009405371965840459
1772702135482533000,3.984533203125,-0.0010569205041974783,-0.0009654806926846504,0.00010537321213632822
1772702135492583200,3.994583251953125,0.0014381950022652745,0.00003986246883869171,0.0021472189109772444
1772702135502632400,4.004632568359375,-0.0018506795167922974,-0.00024841679260134697,0.0010929821291938424
1772702135512682200,4.01468212890625,-0.0008748972322791815,0.0011444161646068096,-0.000993870897218585
1772702135522731300,4.024731201171875,-0.0008272174745798111,-0.00013151578605175018,0.0007099348586052656
1772702135532781300,4.03478125,-0.0014836867339909077,0.0013247006572782993,-0.001740173203870654
1772702135542830600,4.04483056640625,0.0025642525870352983,-0.0012729116715490818,-0.000001975102350115776
1772702135552880600,4.054880615234375,-0.0007047776598483324,0.0007393732666969299,0.001797522883862257
1772702135562930700,4.0649306640625,0.0004363933694548905,-0.0012711696326732635,-0.0004590140306390822
1772702135572979700,4.074979736328125,-0.000787329045124352,-0.0004519815556704998,0.0015561999753117561
1772702135583029500,4.085029541015625,-0.00038321095053106546,-0.0005655926652252674,-0.0001321109593845904
1772702135593078500,4.09507861328125,-0.00020291493274271488,0.0008389586582779884,-0.0004202650161460042
1772702135603128600,4.105128662109375,-0.002503911964595318,0.000844055786728859,-0.0022104615345597267
1772702135613177600,4.115177490234375,-0.0010402386542409658,0.00023339316248893738,-0.0014661080203950405
1772702135623227600,4.1252275390625,-0.0016989789437502623,0.002301099244505167,-0.0008327492978423834
1772702135633276400,4.1352763671875,0.0013069309061393142,-0.0004736487753689289,0.001848787534981966
1772702135643326500,4.145326416015625,-0.0011831610463559628,-0.0015020878054201603,-0.0024487734772264957
1772702135653375700,4.155375732421875,-0.00017115985974669456,-0.003684281837195158,0.0005978828412480652
1772702135663425800,4.16542578125,-0.00028014229610562325,0.0003265012055635452,-0.0006734135095030069
1772702135673474600,4.175474609375,0.00013983820099383593,0.0015563489869236946,-0.0021706426050513983
1772702135683524600,4.185524658203125,0.00048302492359653115,0.00032872939482331276,-0.0012335311621427536
1772702135693573400,4.195573486328125,0.0002811573212966323,0.0010126293636858463,0.0006679658545181155
1772702135703623400,4.20562353515625,0.0000788132892921567,-0.0006029284559190273,-0.0027349484153091908
1772702135713672700,4.215672607421875,-0.00031133973971009254,-0.000745940487831831,-0.0028111147694289684
1772702135723722800,4.22572265625,0.00034968520049005747,0.0014260420575737953,-0.0009305189014412463
1772702135733771500,4.235771484375,0.0010002953931689262,0.000930427573621273,-0.000956617936026305
1772702135743821600,4.245821533203125,-0.0010579710360616446,-0.0024825194850564003,0.0032040078658610582
1772702135753870600,4.25587060546875,-0.0008260097820311785,0.0012618848122656345,-0.0009710297454148531
1772702135763920600,4.265920654296875,0.0014729134272783995,0.0013828999362885952,0.0008997018449008465
1772702135773969700,4.2759697265625,-0.0011859864462167025,-0.0013990378938615322,-0.0020627984777092934
1772702135784019500,4.28601953125,0.0002638275036588311,-0.0004831184633076191,0.0012367463205009699
1772702135794069500,4.296069580078125,0.0006726227002218366,-0.001319351140409708,0.0013203696580603719
1772702135804118500,4.306118408203125,0.0027886000461876392,0.0002847709693014622,-0.0007627916638739407
1772702135814168600,4.31616845703125,0.0013278562109917402,-0.0008563934825360775,0.0009149998659268022
1772702135824217600,4.326217529296875,-0.0002601558808237314,0.0024365922436118126,-0.0014813300222158432
1772702135834267600,4.336267578125,0.001683951704762876,-0.0000875517725944519,0.001104599330574274
1772702135844316400,4.34631640625,-0.0001493397867307067,-0.0004684128798544407,-0.0006009965436533093
1772702135854366500,4.356366455078125,-0.0007951564621180296,0.0005955197848379612,-0.0006276281783357263
1772702135864415700,4.366415771484375,0.0014339406043291092,0.00038443878293037415,0.000587912043556571
1772702135874465500,4.376465576171875,-0.0009181632194668055,-0.00028774281963706017,0.0028950083069503307
1772702135884514600,4.3865146484375,-0.00022696470841765404,0.0013373778201639652,0.0014135444071143866
1772702135894564600,4.396564697265625,-0.0022847894579172134,0.002160294447094202,0.0017288627568632364
1772702135904613400,4.40661328125,-0.002204766497015953,0.0004849727265536785,0.0019096850883215666
1772702135914663700,4.41666357421875,0.00048422731924802065,0.0015081590972840786,0.00009181129280477762
1772702135924712700,4.426712646484375,-0.0014089017640799284,-0.0006439955905079842,0.000719034462235868
1772702135934762500,4.436762451171875,-0.004323997534811497,0.0013320697471499443,-0.002029614057391882
1772702135944811500,4.4468115234375,0.001109007396735251,0.00014917785301804543,0.0008899364620447159
1772702135954861600,4.456861572265625,0.0007593343034386635,-0.001586404163390398,-0.00015215849271044135
1772702135964910600,4.46691064453125,-0.0008137574186548591,-0.000742672011256218,0.0005805838736705482
1772702135974960600,4.476960693359375,0.0011141049908474088,0.00047119706869125366,-0.0014868282014504075
1772702135985009700,4.487009765625,-0.0003832002403214574,0.000938821118324995,0.0004068820271641016
1772702135995059500,4.4970595703125,0.0006959126330912113,0.0003912756219506264,-0.0012626536190509796
1772702136005108500,4.5071083984375,0.0010211103362962604,0.0006919791921973228,-0.0006086233188398182
1772702136015158500,4.517158447265625,-0.001044437289237976,-0.0009748931042850018,0.0002134944952558726
1772702136025207600,4.52720751953125,0.00018838944379240274,-0.0017106235027313232,0.0018148742383345962
1772702136035257600,4.537257568359375,0.00041102967225015163,-0.0006978237070143223,-0.000747086713090539
1772702136045307600,4.5473076171875,-0.000582962529733777,0.00036741048097610474,-0.00019832770340144634
1772702136055356400,4.5573564453125,-0.0013041466008871794,0.001714437734335661,-0.00044280587462708354
1772702136065406500,4.567406494140625,-0.0012841916177421808,-0.0004663029685616493,0.00007707002805545926
1772702136075455700,4.577455810546875,-0.0008138774428516626,-0.0004415353760123253,-0.00141722965054214
1772702136085505500,4.587505615234375,-0.0009644543752074242,0.00012436090037226677,0.0016129123978316784
1772702136095554600,4.597554443359375,0.00013569730799645185,0.00038987817242741585,0.00008638849249109626
1772702136105604600,4.6076044921875,-0.0013669312465935946,-0.0003211032599210739,-0.0015815900405868888
1772702136115653600,4.617653564453125,-0.0015184651128947735,0.00024348730221390724,-0.0018779997481033206
1772702136125703700,4.62770361328125,-0.0010684935841709375,-0.00010742945596575737,-0.0020149843767285347
1772702136135752700,4.637752685546875,0.0007134274928830564,-0.0023463494144380093,-0.0006887302733957767
1772702136145802500,4.647802490234375,-0.0007903835503384471,0.0012530265375971794,-0.0016883104108273983
1772702136155851500,4.6578515625,0.0015867538750171661,0.001192573457956314,0.0021730067674070597
1772702136165901600,4.667901611328125,0.0013642982812598348,0.0029565352015197277,-0.0008524626027792692
1772702136175950600,4.67795068359375,0.00008118723053485155,0.000539716798812151,-0.001976316561922431
1772702136186000600,4.688000732421875,-0.002343517728149891,-0.0005043693818151951,-0.0013425212819129229
1772702136196049700,4.698049560546875,0.0005707794916816056,-0.0022849589586257935,-0.0009419819107279181
1772702136206099500,4.708099365234375,0.00010572944302111864,0.0005257576704025269,-0.0008711627451702952
1772702136216148700,4.718148681640625,-0.0003651174483820796,-0.0005935686640441418,-0.0009891408262774348
1772702136226198800,4.72819873046875,0.000741180672775954,-0.001470350194722414,0.0004276667896192521
1772702136236247600,4.73824755859375,-0.0014055933570489287,0.0009664418175816536,0.0004500373324844986
1772702136246297600,4.748297607421875,-0.0024237707257270813,-0.0013665067963302135,-0.002473758300766349
1772702136256346400,4.758346435546875,0.0011150375939905643,0.00008944375440478325,-0.0008963681175373495
1772702136266396400,4.768396484375,0.0003152847057208419,-0.0015392005443572998,-0.0018929117359220982
1772702136276446500,4.778446533203125,-0.0019324233289808035,-0.0026225745677948,0.0003800962585955858
1772702136286495700,4.788495849609375,-0.00018947490025311708,0.0016176039353013039,-0.00009384826989844441
1772702136296545500,4.798545654296875,0.0035812947899103165,-0.0008870987221598625,0.0005730072734877467
1772702136306594600,4.808594482421875,0.0016735901590436697,-0.0007150070741772652,-0.0017636348493397236
1772702136316644600,4.81864453125,-0.0004627975868061185,0.0007073874585330486,-0.00018837518291547894
1772702136326693600,4.828693603515625,-0.0017351057613268495,0.000003266613930463791,0.002164066769182682
1772702136336743700,4.83874365234375,0.0012247315607964993,-0.00021724309772253036,-0.00165117799770087
1772702136346792400,4.84879248046875,0.0008487078594043851,-0.00197350000962615,0.0006573402788490057
1772702136356842500,4.858842529296875,0.0006729391752742231,-0.004348507151007652,0.001095163868740201
1772702136366891500,4.8688916015625,0.003129770513623953,-0.00018690526485443115,0.0047696493566036224
1772702136376941600,4.878941650390625,0.0005638147122226655,-0.00009662425145506859,-0.0006075392011553049
1772702136386990600,4.888990478515625,0.0015570421237498522,-0.0018476988188922405,0.002238683169707656
1772702136397040600,4.89904052734375,-0.0011394084431231022,0.0026695551350712776,-0.0029190611094236374
1772702136407089400,4.90908935546875,0.0000998188043013215,0.0001492607407271862,-0.0017415171023458242
1772702136417139500,4.919139404296875,0.00026520114624872804,0.0008608573116362095,-0.001219803700223565
1772702136427188700,4.929188720703125,-0.0010011967970058322,-0.0015186732634902,-0.0009541845647618175
1772702136437238800,4.93923876953125,0.0005836503696627915,-0.0008211913518607616,0.00038059172220528126
1772702136447287600,4.94928759765625,0.0004465625388547778,-0.002589636016637087,0.0015469982754439116
1772702136457337600,4.959337646484375,0.0006739965174347162,-0.001518778968602419,0.0010282144648954272
1772702136467386400,4.969386474609375,0.0007071574800647795,0.0003009773790836334,0.0010304874740540981
1772702136477436400,4.9794365234375,-0.0004063101951032877,-0.0009240764193236828,-0.0028566624969244003
1772702136487485700,4.989485595703125,0.0009488673531450331,-0.0005765892565250397,-0.0030405723955482244
1772702136497535500,4.999535400390625,0.000612510135397315,0.0002761548385024071,-0.0008370729046873748
1772702136507584500,5.00958447265625,-0.0008051603799685836,0.000023581087589263916,-0.0009072083630599082
1772702136517634600,5.019634521484375,0.001957336440682411,-0.001822788268327713,0.0003466079360805452
1772702136527684600,5.0296845703125,0.00170524709392339,-0.0002747955732047558,-0.0006117569282650948
1772702136537733600,5.039733642578125,-0.00032914162147790194,0.001335617620497942,-0.000755301327444613
1772702136547783000,5.049782958984375,0.0007891436689533293,-0.00024497974663972855,0.0002822627720888704
1772702136557832000,5.05983203125,-0.00238427915610373,-0.0012061144225299358,0.001639409689232707
1772702136567881700,5.0698818359375,-0.00020345114171504974,0.0003479206934571266,0.0008184557082131505
1772702136577931000,5.079930908203125,-0.00021729955915361643,-0.001063820905983448,0.0012379036052152514
1772702136587981000,5.08998095703125,-0.002534087747335434,0.000957053154706955,0.0006171351997181773
1772702136598029800,5.10002978515625,-0.0006152801215648651,-0.002872040029615164,0.00026080425595864654
1772702136608080000,5.110079833984375,0.0006140954210422933,-0.0020711286924779415,0.00202523497864604
1772702136618129000,5.12012890625,-0.001281542587094009,-0.0008575259707868099,0.00013572222087532282
1772702136628179000,5.130178955078125,0.0009758093510754406,0.00025051506236195564,0.0015132369007915258
1772702136638228000,5.14022802734375,-0.000144582474604249,-0.000403557438403368,-0.0010274186497554183
1772702136648278000,5.150278076171875,0.00016500393394380808,-0.00023814663290977478,0.0019759265705943108
1772702136658326800,5.160326904296875,0.001018813345581293,-0.0007457449100911617,-0.0010209287283942103
1772702136668376800,5.170376953125,0.002325186738744378,-0.00039004767313599586,0.0002762533549685031
1772702136678426000,5.180426025390625,0.0028285242151468992,0.0009300811216235161,0.0012509702937677503
1772702136688476000,5.190475830078125,0.00031459826277568936,0.0018770229071378708,-0.002977850381284952
1772702136698525000,5.20052490234375,-0.00024360022507607937,0.0007574297487735748,0.0019244967261329293
1772702136708575000,5.210574951171875,-0.0008588832570239902,-0.000336342491209507,-0.0006686404231004417
1772702136718624000,5.2206240234375,-0.0010839203605428338,-0.0004596468061208725,0.00016306480392813683
1772702136728674000,5.230674072265625,0.00045605661580339074,0.00009405333548784256,0.0002444098936393857
1772702136738722800,5.240722900390625,-0.0007860417244955897,0.0015758359804749489,-0.0003811666392721236
1772702136748772900,5.25077294921875,0.00038794882129877806,0.0004891469143331051,0.00039342325180768967
1772702136758822000,5.26082177734375,-0.0004695890238508582,-0.001562285702675581,-0.0024716053158044815
1772702136768872000,5.270871826171875,-0.0004981743404641747,-0.004029489122331142,0.00005135452374815941
1772702136778921700,5.280921630859375,-0.0014790165005251765,-0.0009745769202709198,0.001091318903490901
1772702136788971000,5.290970947265625,-0.0009931803215295076,0.0008004354313015938,-0.0029720596503466368
1772702136799021000,5.30102099609375,0.002364799380302429,0.00018098438158631325,-0.0011291520204395056
1772702136809069800,5.31106982421875,0.000058297417126595974,0.0006394358351826668,0.0005392967141233385
1772702136819119900,5.321119873046875,0.001470045535825193,0.0028579127974808216,-0.0013450529659166932
1772702136829169000,5.3311689453125,-0.003592623397707939,-0.002535521052777767,0.000422486977186054
1772702136839219000,5.341218994140625,0.00026471883757039905,-0.0010922816582024097,-0.0007684641750529408
1772702136849268000,5.35126806640625,-0.002040246967226267,0.0014837943017482758,0.00019160538795404136
1772702136859318000,5.361318115234375,-0.0023260542657226324,0.0010000625625252724,-0.0005896813236176968
1772702136869366800,5.37136669921875,0.0012889206409454346,-0.0009365882724523544,0.0019930521957576275
1772702136879416800,5.381416748046875,-0.0029654228128492832,-0.00009794812649488449,-0.0009216506732627749
1772702136889465900,5.3914658203125,-0.0005906821461394429,0.0008109891787171364,-0.002093974268063903
1772702136899516000,5.401515869140625,-0.0012218590127304196,-0.0002627316862344742,0.0011741768103092909
1772702136909565000,5.41156494140625,0.00023941753897815943,-0.0011034919880330563,-0.000053274212405085564
1772702136919614700,5.42161474609375,-0.0012968950904905796,-0.0022685686126351357,0.0007949548307806253
1772702136929664000,5.4316640625,-0.0027038431726396084,0.001542148645967245,0.00037630589213222265
1772702136939714000,5.441714111328125,0.0015169244725257158,-0.0001914692111313343,-0.0002492126659490168
1772702136949762800,5.4517626953125,0.002606157446280122,0.00024289265275001526,-0.0021469811908900738
1772702136959812900,5.461812744140625,-0.0012381154811009765,-0.0015715193003416061,0.0002549237397033721
1772702136969862000,5.47186181640625,0.0022252285853028297,-0.0012416169047355652,-0.0009375943336635828
1772702136979911700,5.48191162109375,-0.0011903680860996246,0.0004163910634815693,-0.0020806340035051107
1772702136989961000,5.4919609375,-0.00021778163500130177,-0.0012920270673930645,0.0011859993683174253
1772702137000011000,5.502010986328125,0.0007236499805003405,0.00015591969713568687,0.0019500057678669691
1772702137010059800,5.512059814453125,0.0016291247447952628,0.00014340272173285484,0.0007449254626408219
1772702137020109800,5.52210986328125,0.0029573829378932714,0.00010839197784662247,0.0025391019880771637
1772702137030160000,5.532159912109375,0.00017304799985140562,0.0013691321946680546,-0.003034894121810794
1772702137040209000,5.542208984375,-0.0002594051184132695,-0.00264667347073555,0.0038952669128775597
1772702137050259000,5.552259033203125,0.0016359665896743536,-0.002539614215493202,-0.0007908314000815153
1772702137060308000,5.562307861328125,-0.0025769087951630354,0.0016694623045623302,-0.000584151828661561
1772702137070357800,5.572357666015625,0.0010314080864191055,0.001457741018384695,-0.0007335551781579852
1772702137080406800,5.58240673828125,0.0006156917079351842,-0.00005574198439717293,-0.0005161001463420689
1772702137090457000,5.59245703125,-0.0017454669578000903,-0.0004445635713636875,-0.00029559037648141384
1772702137100505900,5.602505859375,0.0001897580223158002,0.00044086482375860214,-0.0022493666037917137
1772702137110556000,5.612555908203125,0.001013473724015057,-0.0010403851047158241,-0.00004213873762637377
1772702137120605000,5.62260498046875,0.0008530645864084363,0.0015270733274519444,-0.0015782444970682263
1772702137130654700,5.63265478515625,0.001596352900378406,-0.0015784385614097118,0.0012494998518377542
1772702137140704000,5.6427041015625,-0.0035356252919882536,0.00007274001836776733,0.00029964192071929574
1772702137150754000,5.652754150390625,-0.0009779257234185934,-0.0025573978200554848,-0.001097718719393015
1772702137160802800,5.662802734375,0.001058784662745893,0.00027181580662727356,0.0006936356658115983
1772702137170852900,5.672852783203125,-0.0010259377304464579,0.0011999276466667652,-0.0020843076054006815
1772702137180902000,5.68290185546875,0.001039614318870008,-0.001900271512567997,0.0007148865843191743
1772702137190952000,5.692951904296875,0.0009764974238350987,0.0008566328324377537,-0.002102737780660391
1772702137201001000,5.7030009765625,0.001259325072169304,-0.000774819403886795,-0.00004251644713804126
1772702137211051000,5.713051025390625,0.0005074264481663704,0.0004352298565208912,-0.0003983800415880978
1772702137221099800,5.723099853515625,-0.0002070997143164277,0.0016565555706620216,0.001472756965085864
1772702137231149800,5.73314990234375,-0.003084736643359065,-0.0013520983047783375,-0.00100552081130445
1772702137241199000,5.74319921875,0.0010913664009422064,-0.0017262725159525871,0.0006384484586305916
1772702137251249000,5.753248779296875,0.002428005449473858,-0.001120931003242731,0.0008466370636597276
1772702137261298000,5.7632978515625,0.0005661895265802741,0.00022050319239497185,-0.0015818995889276266
1772702137271348000,5.773347900390625,-0.00007509533315896988,0.00016970932483673096,0.000489886908326298
1772702137281397800,5.783397705078125,0.0011813839664682746,0.0007468163967132568,-0.00012610224075615406
1772702137291447000,5.793447021484375,0.0009309654124081135,-0.00016581779345870018,-0.0009519568993709981
1772702137301497000,5.8034970703125,0.0003378794062882662,0.0002568257041275501,-0.0005053447675891221
1772702137311545900,5.8135458984375,-0.0002597352722659707,-0.0012298999354243279,0.00020430650329217315
1772702137321596000,5.823595947265625,0.0009956788271665573,0.0014811982400715351,-0.00005348748527467251
1772702137331645000,5.83364501953125,0.00347351236268878,0.0015930188819766045,0.0015071543166413903
1772702137341694700,5.84369482421875,0.0011086255544796586,0.00015517836436629295,-0.001329644932411611
1772702137351744000,5.853743896484375,0.0016690887277945876,-0.000897460151463747,0.0002708995889406651
1772702137361794000,5.8637939453125,-0.0012630517594516277,-0.0008708285167813301,0.0027934457175433636
1772702137371842800,5.8738427734375,-0.0016856128349900246,0.00024179229512810707,-0.00027364410925656557
1772702137381892900,5.883892822265625,-0.00009863509330898523,0.00164314778521657,0.0027194826398044825
1772702137391942100,5.893942138671875,-0.00023565278388559818,-0.0006460142321884632,-0.0009767732117325068
1772702137401992000,5.903991943359375,0.001841346500441432,0.00149490125477314,-0.0006987391971051693
1772702137412041000,5.914041015625,-0.000007430440746247768,0.0027856603264808655,0.0001539662480354309
1772702137422091000,5.924091064453125,0.002854136051610112,0.0012578051537275314,-0.0004332607495598495
1772702137432139800,5.934139892578125,0.0024885511957108974,-0.000055120792239904404,0.0008935231016948819
1772702137442189800,5.94418994140625,0.002501867013052106,-0.0011166566982865334,-0.00032034568721428514
1772702137452238800,5.95423876953125,0.0020035705529153347,0.0005473191849887371,-0.00014922471018508077
1772702137462289000,5.964288818359375,-0.0005786304827779531,-0.0004100874066352844,0.0003250843146815896
1772702137472338000,5.974337890625,0.001171796815469861,0.0010881153866648674,0.0007891999557614326
1772702137482388000,5.984387939453125,0.0001544692786410451,-0.001431767363101244,-0.001702719833701849
1772702137492437000,5.99443701171875,0.0001300441799685359,-0.0007479987107217312,0.00135138095356524
1772702137502487000,6.004487060546875,-0.0006257608765736222,-0.0007314872927963734,0.0026712436228990555
1772702137512535800,6.014535888671875,-0.0021817833185195923,0.0012059472501277924,0.00040827575139701366
1772702137522585900,6.0245859375,-0.0003223643871024251,0.0008946238085627556,0.0007962983218021691
1772702137532636000,6.034635986328125,-0.0002008697483688593,-0.0021439814008772373,0.0011384966783225536
1772702137542685700,6.044685791015625,-0.0015260587679222226,0.0031328056938946247,0.0001536597847007215
1772702137552735700,6.05473583984375,-0.00039241404738277197,0.0033608819358050823,0.0012086190981790423
1772702137562784800,6.06478466796875,0.002070743590593338,0.002245549578219652,-0.0009275024058297276
1772702137572834800,6.074834716796875,0.0009505131165497005,0.002525258343666792,-0.000793605693615973
1772702137582883800,6.0848837890625,-0.000886535388417542,0.0029926435090601444,-0.0004593789344653487
1772702137592934000,6.094933837890625,0.00000597687903791666,-0.0007135830819606781,-0.0010516716865822673
1772702137602982700,6.104982666015625,-0.0008478326490148902,-0.001500546932220459,0.00009801500709727407
1772702137613032700,6.11503271484375,-0.0011470435420051217,0.0007016155868768692,0.0018734035547822714
1772702137623081700,6.125081787109375,-0.0018477212870493531,-0.00044327788054943085,-0.0005535350064747036
1772702137633131800,6.1351318359375,-0.003404376795515418,0.0020832023583352566,-0.00031015247805044055
1772702137643180800,6.145180908203125,0.0014966386370360851,-0.0016806432977318764,-0.0031480169855058193
1772702137653230600,6.155230712890625,0.00032777769956737757,0.001524403691291809,0.0010627852752804756
1772702137663279900,6.16527978515625,0.000546423252671957,-0.00019653094932436943,-0.0026318179443478584
1772702137673330000,6.175329833984375,-0.00014511053450405598,-0.0014580474235117435,0.0015407123137265444
1772702137683378700,6.185378662109375,-0.002206929726526141,0.002112985122948885,-0.0019147391431033611
1772702137693428700,6.1954287109375,0.00011860986705869436,0.0001422329805791378,0.0002675909490790218
1772702137703477800,6.205477783203125,-0.0021746382117271423,0.0010226736776530743,0.002857515122741461
1772702137713527600,6.215527587890625,-0.0003522553015500307,-0.0010913209989666939,-0.0004682106664404273
1772702137723576800,6.225576904296875,-0.0006215008907020092,0.0008799508213996887,0.0011070491746068
1772702137733627000,6.235626953125,-0.0014215803239494562,-0.0004000258632004261,0.0017794944578781724
1772702137743675600,6.245675537109375,-0.00121838110499084,-0.0010809963569045067,0.002031429670751095
1772702137753725700,6.2557255859375,-0.0024480451829731464,-0.0008323653601109982,0.000631622620858252
1772702137763775000,6.26577490234375,0.0012771845795214176,-0.0003769644536077976,0.001613263739272952
1772702137773824800,6.27582470703125,-0.0021084966138005257,-0.0007838821038603783,0.0002599001454655081
1772702137783874800,6.285874755859375,-0.00143072206992656,0.0013676853850483894,-0.0022685048170387745
1772702137793923800,6.295923828125,0.00009375973604619503,0.0012452704831957817,0.00026928650913760066
1772702137803973600,6.3059736328125,-0.0015592642594128847,-0.0005363840609788895,0.003340710187330842
1772702137814022700,6.316022705078125,0.00031687726732343435,0.0007805810309946537,-0.0021106572821736336
1772702137824073000,6.326072998046875,-0.0001742097083479166,-0.0009901546873152256,-0.0008448567241430283
1772702137834121700,6.336121826171875,0.00021825195290148258,0.00022815121337771416,0.0010366011410951614
1772702137844171800,6.346171875,-0.002395640593022108,0.0009320243261754513,0.0014328795950859785
1772702137854220800,6.356220703125,-0.001877301256172359,0.0024993852712213993,0.00010083179222419858
1772702137864270600,6.3662705078125,-0.0011473287595435977,-0.00006497232243418694,0.00026914358022622764
1772702137874320000,6.37631982421875,-0.00015849980991333723,0.0008032266050577164,-0.0031997649930417538
1772702137884370000,6.386369873046875,-0.00008259981404989958,0.001994192600250244,-0.00040610902942717075
1772702137894418700,6.396418701171875,-0.0011723150964826345,-0.00039634155109524727,-0.0007519333157688379
1772702137904468700,6.40646875,-0.0011251771356910467,-0.0005907523445785046,0.0006369051989167929
1772702137914517800,6.416517822265625,0.0016373781254515052,-0.0005738213658332825,0.0017168769845739007
1772702137924567800,6.42656787109375,0.0006807706668041646,-0.0007594432681798935,-0.0014847752172499895
1772702137934616800,6.436616943359375,0.0010379920713603497,-0.0011779670603573322,0.00037088035605847836
1772702137944667000,6.4466669921875,-0.00011062936391681433,-0.0005145734176039696,-0.0005484428256750107
1772702137954715600,6.456715576171875,-0.0010482226498425007,0.0037558251060545444,0.00022144324611872435
1772702137964765700,6.466765625,0.0036059177946299314,0.005211774725466967,0.0035274913534522057
1772702137974815000,6.47681494140625,0.0006631544674746692,0.02626740373671055,0.012989007867872715
1772702137984864800,6.48686474609375,0.00004610000178217888,0.023364290595054626,0.0132883470505476
1772702137994913800,6.496913818359375,-0.00044849340338259935,0.034962885081768036,0.01786346174776554
1772702138004963800,6.5069638671875,0.0004335455014370382,0.03739142417907715,0.017352133989334106
1772702138015013600,6.517013671875,-0.00038711412344127893,0.034556400030851364,0.016283076256513596
1772702138025063000,6.52706298828125,-0.00024543399922549725,0.00702996551990509,0.0011680400930345058
1772702138035113000,6.537113037109375,0.0012556210858747363,-0.0589626207947731,-0.0256723091006279
1772702138045161700,6.54716162109375,0.0037922821938991547,-0.09374803304672241,-0.04400710389018059
1772702138055211800,6.557211669921875,0.0020410753786563873,-0.003734162077307701,-0.003196495119482279
1772702138065260800,6.5672607421875,0.0027601290494203568,-0.011081557720899582,-0.003969877026975155
1772702138075310600,6.577310546875,0.0004263169248588383,-0.0019337022677063942,-0.0006722042453475296
