time,seconds_elapsed,z,y,x
1772697820675027500,0.07502734375,-0.06483458348214625,-0.0026399931147694585,0.09214987590909003
1772697820685075200,0.0850751953125,-0.051316345739364624,-0.00008183306455612182,0.09709902274906634
1772697820695124200,0.095124267578125,-0.0431239791944623,-0.021318390099704265,0.059846858197450635
1772697820705172200,0.105172119140625,-0.0963898515664041,-0.05151245283335447,0.05902735850811004
1772697820715221200,0.11522119140625,-0.040015637915581465,-0.01895925975292921,0.049207390761375425
1772697820725270300,0.125270263671875,0.04117079930007458,-0.04171498917937279,0.037646716827154154
1772697820735318300,0.135318359375,0.08262421493381261,-0.05077917012274265,0.05061491947174072
1772697820745367300,0.1453671875,0.07543927186578511,-0.058849663853645325,0.07655015571713447
1772697820755415300,0.155415283203125,0.08019888748303056,-0.06155103176683187,0.08980068243443966
1772697820765464300,0.16546435546875,0.1053422426983714,-0.01625643053501844,0.08278934236764908
1772697820775513000,0.17551318359375,0.06136807641535997,0.022189327715337274,0.07195055296719075
1772697820785561300,0.185561279296875,-0.0013224807754158973,0.07495324191451072,0.05770341642796993
1772697820795610000,0.195610107421875,-0.021345862628519535,0.10610416698157786,0.018813421541452408
1772697820805659400,0.205659423828125,0.020857494589686394,0.0899839300468564,-0.04188683861494064
1772697820815707100,0.21570703125,0.06821808844059706,0.05666968946605921,-0.0722089116424322
1772697820825756400,0.22575634765625,0.04424363087415695,0.022049334722757337,-0.07193535539805888
1772697820835804200,0.23580419921875,-0.002525719085335731,-0.023303718698024747,-0.12594693157076836
1772697820845853400,0.245853515625,-0.03748626556843519,-0.0074228434771299355,-0.1276519819229841
1772697820855902200,0.255902099609375,-0.03298866188824177,0.028857261171936988,-0.08350596620440483
1772697820865950500,0.265950439453125,0.02952595421373844,0.06671732848882675,-0.11517945384085178
1772697820875999200,0.275999267578125,0.10245412004143,0.0764417269065976,-0.18396423625349997
1772697820886047500,0.286047607421875,0.12362287253737449,0.045532209379971024,-0.22684067042768
1772697820896096300,0.29609619140625,0.08572627260237932,-0.01738718813061714,-0.2976975829392671
1772697820906145300,0.306145263671875,0.07109305935502051,-0.07488339154869318,-0.27162849118113513
1772697820916193300,0.316193359375,0.06482888439372181,-0.07674363246262073,-0.25542437535524365
1772697820926242300,0.3262421875,0.025891981625556944,-0.044729660825431346,-0.21130758573114872
1772697820936291300,0.336291259765625,-0.038832711741328234,-0.07583616222888231,-0.20996084729731082
1772697820946339300,0.34633935546875,-0.11012626210451125,-0.14272943180650471,-0.11285013411045074
1772697820956388400,0.356388427734375,-0.2592364809893071,-0.17337532996088265,-0.0325642989963293
1772697820966436400,0.366436279296875,-0.42684126472473144,-0.20915800648182628,0.00028758476972579955
1772697820976485400,0.3764853515625,-0.6332433966271579,-0.21656214525848627,0.05688040960729122
1772697820986534400,0.386534423828125,-0.7785286503963172,-0.2389727145090699,0.13313538177013395
1772697820996582100,0.39658203125,-0.8037693285062909,-0.1138233630567789,0.14934417377114295
1772697821006631400,0.40663134765625,-0.8521474288366735,0.03992927480638027,0.11553835028111933
1772697821016680400,0.416680419921875,-0.7863833094194531,0.10913725106716156,0.21187632552981375
1772697821026728400,0.426728515625,-0.6515406853400171,0.22215280487239358,0.3144733611732721
1772697821036777500,0.436777587890625,-0.4723953936755657,0.3297933876410126,0.38803193385899065
1772697821046825500,0.446825439453125,-0.35293548603653907,0.3902507789522409,0.3561830896556377
1772697821056874200,0.456874267578125,-0.29338717239424583,0.4141486641511321,0.39337271036505694
1772697821066923300,0.46692333984375,-0.24787118349671364,0.396097459153831,0.3921767785787582
1772697821076971300,0.47697119140625,-0.3307537571057677,0.33041181180030105,0.32744156381785866
1772697821087020300,0.487020263671875,-0.3559410975933075,0.2644073077559471,0.18091420103311537
1772697821097068300,0.497068359375,-0.2595386788062751,0.18760551536530254,0.07370178054869174
1772697821107117300,0.507117431640625,-0.15947949107736348,0.14541794023811816,0.010013444492220878
1772697821117166300,0.517166259765625,-0.14877601849436758,0.15607260524332522,-0.039432431200146674
1772697821127214300,0.52721435546875,-0.23998422963917254,0.21693156309276818,-0.016353168907761572
1772697821137263400,0.537263427734375,-0.35997049923986196,0.29295389554351564,-0.015320903250575064
1772697821147312400,0.5473125,-0.4048755166321993,0.3504468840911984,-0.09109890555143356
1772697821157360400,0.5573603515625,-0.461693382397294,0.35414164695590733,-0.13697452154159545
1772697821167409400,0.567409423828125,-0.501613889375329,0.22870763334333896,-0.09523147531151771
1772697821177457400,0.57745751953125,-0.4558895184241235,0.01598258202970028,-0.04893091190755367
1772697821187506400,0.58750634765625,-0.3100345019429922,-0.1551563671812415,-0.03543488599658012
1772697821197555200,0.59755517578125,-0.2893868507117033,-0.2651303613334894,-0.10409458072483539
1772697821207603500,0.607603515625,-0.3705219961315393,-0.3038093438178301,-0.0969751041084528
1772697821217652200,0.61765234375,-0.5186024335771798,-0.3443763320058584,-0.11061492240428925
1772697821227701500,0.627701416015625,-0.6491080513656139,-0.33242169031798835,-0.21497896772027014
1772697821237749200,0.637749267578125,-0.671112962424755,-0.28413492153286934,-0.26584756969213486
1772697821247798500,0.647798583984375,-0.5884791028797626,-0.19508856459707022,-0.3211743201166391
1772697821257846300,0.65784619140625,-0.4744999647393822,-0.1444993640884757,-0.2988268792301416
1772697821267895600,0.6678955078125,-0.3014069588512182,-0.12413316014707088,-0.2204968543589115
1772697821277944300,0.6779443359375,-0.19175591304302214,-0.022079437600076197,-0.20730711791813372
1772697821287992600,0.68799267578125,-0.07860796502977609,0.11005056651979685,-0.24833646292090414
1772697821298041300,0.698041259765625,-0.0008615852653980255,0.19109832591712475,-0.2535112352102995
1772697821308090400,0.70809033203125,0.09721183547377586,0.17036708805561065,-0.1498299114614725
1772697821318138400,0.718138427734375,0.23625088832974434,0.1753793632596731,-0.025803134298324582
1772697821328187400,0.7281875,0.23817981056571005,0.12313187415003776,0.005351297900080681
1772697821338235400,0.7382353515625,0.09547025250345469,-0.06927841114848851,0.03432370988428592
1772697821348284400,0.748284423828125,-0.10218319414556026,-0.19055822769105432,0.02102174524068832
1772697821358333400,0.75833349609375,-0.2171530968889594,-0.14087445158958434,0.033113165050745005
1772697821368381400,0.76838134765625,-0.30666122611761093,0.017420213617384432,-0.08726794908642768
1772697821378430500,0.778430419921875,-0.3087842096209526,0.09641571666002273,-0.25418168181777
1772697821388479500,0.7884794921875,-0.27285861749798057,0.08144961819648742,-0.33319267469048497
1772697821398527500,0.798527587890625,-0.25145488720238207,0.06355681863129138,-0.349205651858449
1772697821408576500,0.808576416015625,-0.2794564083278179,0.018703531426191328,-0.5100625687688589
1772697821418624500,0.81862451171875,-0.3316509982064366,0.011126374170184136,-0.6010603520333767
1772697821428673300,0.82867333984375,-0.36359132008552547,-0.0027466683596372604,-0.5935206041783094
1772697821438722300,0.838722412109375,-0.4337722330316901,-0.11160334891974925,-0.5527852736860513
1772697821448770300,0.848770263671875,-0.5473313921943307,-0.2644166601061821,-0.4712742806911468
1772697821458819300,0.8588193359375,-0.6165016667932272,-0.3830757727563381,-0.4537643429636955
1772697821468868600,0.86886865234375,-0.5983315115913749,-0.5116577290058135,-0.39990883413553235
1772697821478916400,0.878916259765625,-0.5413713147461414,-0.6378232717633247,-0.3615349720776081
1772697821488965400,0.88896533203125,-0.25730244418680664,-0.7891980745792389,-0.2805950569689274
1772697821499013400,0.899013427734375,0.055610535801947115,-0.808297327324748,-0.21861294030845163
1772697821509062400,0.9090625,0.1000616719469428,-0.6142085874199867,-0.18665362146794795
1772697821519111400,0.919111328125,0.05004939454346895,-0.4111158723264932,-0.2802776615828276
1772697821529159400,0.929159423828125,-0.14593378080576658,-0.2948112138479948,-0.400759898006916
1772697821539208400,0.93920849609375,-0.4345797500222921,-0.2736240489125252,-0.5360018966674804
1772697821549256400,0.94925634765625,-0.6958478829696774,-0.27093232561051844,-0.5567419023573398
1772697821559305500,0.959305419921875,-0.9073740798875689,-0.3202174577832222,-0.4115145162552595
1772697821569354200,0.969354248046875,-0.8679797887407242,-0.5185995109677315,-0.021500468668341634
1772697821579402500,0.979402587890625,-0.7924244892798363,-0.6919651963174343,0.15018997694551944
1772697821589451300,0.989451171875,-0.8179401849389075,-0.5783008232146502,-0.029928689795732495
1772697821599500500,0.99950048828125,-0.900262494316697,-0.45498131753802296,-0.20379355683922767
1772697821609548300,1.00954833984375,-1.0561296401157974,-0.30305998675525186,-0.25905542533397674
1772697821619597300,1.019597412109375,-1.2593690702036022,-0.14697978272736073,-0.24601766458451746
1772697821629646300,1.029646240234375,-1.3634674503207207,-0.0436532637655735,-0.16883213357329369
1772697821639694300,1.0396943359375,-1.3313725224018096,0.00014086977541446686,-0.1824602614313364
1772697821649743400,1.049743408203125,-1.235520723234862,-0.01914309188723564,-0.2555745974808931
1772697821659791400,1.059791259765625,-1.1564162068597972,-0.05642682062089443,-0.2432183892548084
1772697821669840400,1.06984033203125,-1.2168768130414187,-0.09218260913491248,-0.22728023088872432
1772697821679889400,1.079889404296875,-1.3963275173932312,-0.11668518222868442,-0.21892507499754427
1772697821689937400,1.0899375,-1.6248228231601416,-0.13032061661034822,-0.1846253305107355
1772697821699986400,1.099986328125,-1.7875870349965988,-0.15604513271450995,-0.20447510936260221
1772697821710034400,1.110034423828125,-1.9192098202466963,-0.01365063195079565,-0.2547656191855669
1772697821720083500,1.12008349609375,-1.9659832618594169,0.3645513972893357,-0.21256138518452644
1772697821730132200,1.13013232421875,-1.9035884727448225,0.960054699717462,-0.010972644913196564
1772697821740180500,1.140180419921875,-1.7764786348745225,1.5339350761413573,0.5254939466565847
1772697821750229200,1.150229248046875,-1.5389157871633767,1.8873828956142067,0.9863877031087874
1772697821760278500,1.160278564453125,-1.2286147432386874,2.0368635552465912,1.025410384464264
1772697821770326300,1.170326171875,-0.8274977023571729,1.9228309333533047,0.7180541618198156
1772697821780375600,1.18037548828125,-0.4555149860233068,1.5828107507303357,0.4396212513208389
1772697821790423300,1.19042333984375,-0.28062647502049803,1.0877166185125708,0.3004343144267797
1772697821800472600,1.20047265625,-0.36501653058305383,0.5271405448198319,0.23077274917960167
1772697821810521300,1.210521240234375,-0.5950554125301539,0.08419687107801437,0.10970657538771629
1772697821820569300,1.2205693359375,-0.7632697064660489,-0.16935966457873583,-0.1415554195910692
1772697821830618400,1.230618408203125,-0.9241369986400008,-0.448500431086123,-0.36703999923467634
1772697821840667400,1.24066748046875,-1.092044710844755,-0.4719982110515237,-0.587474894273281
1772697821850715400,1.25071533203125,-1.171115617211163,-0.2825157958984375,-0.8776105175256729
1772697821860764200,1.26076416015625,-1.0578079485915601,0.25339900700747964,-1.0536474679112433
1772697821870812400,1.2708125,-0.6474696365088224,0.9147896168410777,-0.9568272621035575
1772697821880861200,1.280861083984375,-0.2626560801744461,1.3396759481057523,-0.6257073020339011
1772697821890910500,1.290910400390625,-0.20890140137225388,1.4993401481002568,-0.2932680760592222
1772697821900958200,1.300958251953125,-0.4261426149360835,1.1241574666813015,0.16126549771130083
1772697821911007500,1.311007568359375,-0.6762304515689611,0.6295958339050411,0.37868250623345373
1772697821921056300,1.32105615234375,-0.7380103236556053,0.2341390107423067,0.3896738558471203
1772697821931104500,1.3311044921875,-0.43226051329448817,0.1122895776182413,0.05318915387392044
1772697821941154300,1.341154296875,0.22903628077581523,0.27073504947274923,-0.3380786931663751
1772697821951202000,1.3512021484375,0.7274860070317983,0.40943449511080976,-0.5997323183000087
1772697821961251300,1.361251220703125,1.018258613013476,0.4260986296638846,-0.7740776623368263
1772697821971300000,1.371300048828125,1.1828665530204772,0.36680005299896,-0.9263368467718363
1772697821981348400,1.381348388671875,1.2744419900424777,0.333990839330852,-0.9960106869786978
1772697821991397000,1.391397216796875,1.1977736147731541,0.2350888588130474,-0.9120487937003373
1772697822001446100,1.401446044921875,1.118813475304842,0.10074234768748283,-0.6695616413295269
1772697822011494100,1.411494140625,1.085294798193127,0.07526976051777601,-0.4451631033569574
1772697822021543200,1.421543212890625,1.102653198620677,0.10719050091356039,-0.25069267065823075
1772697822031591200,1.431591064453125,1.0715022735536097,0.12005027474761008,-0.13242577219605445
1772697822041640200,1.44164013671875,0.9786850197769701,-0.006168167240917682,0.0634428368628025
1772697822051689200,1.451689208984375,0.8642904327034949,-0.16402327198684213,0.20112696797847746
1772697822061737000,1.461737060546875,0.7383681971825659,-0.20231091706603765,0.20749241135716437
1772697822071786200,1.4717861328125,0.7278770521759986,-0.0829278740555048,0.22868659055531024
1772697822081835300,1.481835205078125,0.7168477086395025,-0.04557517173886299,0.3547954346895218
1772697822091883300,1.49188330078125,0.6169833128303289,-0.044484746153652666,0.336508667370677
1772697822101932300,1.501932373046875,0.5298025305707007,0.014849194085597992,0.26439678636193276
1772697822111980300,1.511980224609375,0.40877603120207784,-0.014594634802639483,0.2612666716426611
1772697822122029000,1.522029052734375,0.19530337639153003,0.010070727637410163,0.30684301242530343
1772697822132078000,1.532078125,0.014377484920620917,0.03903846344649792,0.26876667200922966
1772697822142126000,1.5421259765625,-0.0987216555148363,0.08551730602681637,0.20467326228320598
1772697822152175000,1.552175048828125,-0.1508358005683869,0.08535159407109022,0.1580862831532955
1772697822162223000,1.56222314453125,-0.1566793389648199,0.12235387551486492,0.05068389305472373
1772697822172272000,1.572272216796875,-0.16975743172466753,0.1740811401426792,-0.10565116251707077
1772697822182321200,1.582321044921875,-0.16215587067976592,0.20900456948578355,-0.2731827348858118
1772697822192369200,1.592369140625,-0.10291501555144786,0.24868805283755063,-0.3478910621285438
1772697822202418200,1.602418212890625,0.010329086312651633,0.20818010136038065,-0.4348766871422529
1772697822212467200,1.61246728515625,0.1713239503890276,0.17802637063711882,-0.4526958369493484
1772697822222515200,1.62251513671875,0.35584640504717824,0.1806476590514183,-0.4113362370789051
1772697822232564200,1.632564208984375,0.5200905532430857,0.23091946417391299,-0.38263855038285255
1772697822242612200,1.6426123046875,0.6520159747015685,0.20120500165075061,-0.29266952564418314
1772697822252661200,1.6526611328125,0.819279836044833,0.06821428904831409,-0.2998170593112707
1772697822262710000,1.6627099609375,0.8874374995350838,-0.10026508556455373,-0.32708734355270863
1772697822272758300,1.67275830078125,0.9215179752480238,-0.2547241181313991,-0.32765316074192524
1772697822282807000,1.68280712890625,0.91993282494843,-0.3674339669883251,-0.2600029353171587
1772697822292856300,1.692856201171875,0.8018740162789821,-0.390496862667799,-0.25611235761940476
1772697822302904000,1.702904052734375,0.7109213142652064,-0.3495031735002994,-0.23429390904307365
1772697822312953300,1.712953369140625,0.640320422341302,-0.20933920826762914,-0.20679215413331983
1772697822323001000,1.7230009765625,0.5673854614466428,-0.07039338665306567,-0.14824585714042185
1772697822333050400,1.73305029296875,0.39671212045345455,-0.026729893754422664,-0.09627017070949077
1772697822343099100,1.74309912109375,0.12986673536300658,-0.06271189223974943,-0.08863339222073555
1772697822353147400,1.7531474609375,-0.1317301180820912,-0.10765782616436481,-0.16840718615949152
1772697822363196200,1.763196044921875,-0.3332569355657324,-0.07701222027093171,-0.24649404992461202
1772697822373245200,1.7732451171875,-0.47202721795029934,-0.0817754891499877,-0.18333003000319004
1772697822383293200,1.783293212890625,-0.5253010544329881,-0.15600450844317673,-0.08316226733326912
1772697822393342200,1.79334228515625,-0.5722100685914978,-0.2436158641397953,0.02713175255358219
1772697822403390200,1.80339013671875,-0.6541179884821177,-0.3323635303899646,0.036300562915205954
1772697822413439200,1.813439208984375,-0.7211281624376773,-0.39979806723743677,0.07575111429393291
1772697822423488300,1.82348828125,-0.7805120792984962,-0.4408189366728067,0.13031681721806526
1772697822433536300,1.833536376953125,-0.806607474541664,-0.40570846032500263,0.03337561537921428
1772697822443585300,1.843585205078125,-0.8566934017032385,-0.3447530563637614,-0.03555529750585556
1772697822453633000,1.853633056640625,-0.8588210613816976,-0.29201895278096196,-0.0916413418650627
1772697822463682000,1.86368212890625,-0.8414689445644616,-0.32312399287968874,-0.15649872170090676
1772697822473731300,1.8737314453125,-0.8791542398363351,-0.3748579795092344,-0.16689444350898264
1772697822483779000,1.883779052734375,-0.9038631491571665,-0.43669922639429565,-0.1695581097602844
1772697822493828000,1.893828125,-0.9345867887228727,-0.5109715003073215,-0.15189794990718364
1772697822503877000,1.903877197265625,-0.9410568615198135,-0.5751368062257767,-0.11185293976664543
1772697822513925000,1.913925048828125,-0.993966029408574,-0.5914639639094471,-0.12112696406841278
1772697822523974100,1.92397412109375,-1.1207201857089997,-0.5926482052579521,-0.0889753375262022
1772697822534022100,1.934022216796875,-1.228906419661641,-0.5733329716742038,-0.07608546081483364
1772697822544071200,1.9440712890625,-1.303849724704027,-0.6079723233789205,-0.0039437691897153855
1772697822554120000,1.954119873046875,-1.425216927269101,-0.6514668894514442,0.11832125899791716
1772697822564168200,1.964168212890625,-1.5417565635472534,-0.7304194301351904,0.15780162099301814
1772697822574217000,1.974217041015625,-1.686668307828903,-0.7938894472658634,0.17651333572566508
1772697822584266200,1.984266357421875,-1.753752716064453,-0.8764777141034603,0.2778513112187385
1772697822594314000,1.99431396484375,-1.9334674781799315,-0.9781281165465712,0.43367140300571916
1772697822604363300,2.00436328125,-2.1680822897404433,-1.09913174649626,0.5728565863341093
1772697822614411000,2.014410888671875,-2.206737891349196,-1.220014088153839,0.6584492956846952
1772697822624460300,2.024460205078125,-2.0918401770591735,-1.2223469150155781,0.7203197686642407
1772697822634509000,2.034509033203125,-1.9191899465024471,-1.0913403619676827,0.7503074951708316
1772697822644557300,2.044557373046875,-1.6677017415523527,-0.9186573981851339,0.5935726266264915
1772697822654606000,2.054606201171875,-1.4086492388278244,-0.7182409165635705,0.5051350492388009
1772697822664655000,2.064655029296875,-1.2336270184427498,-0.5649520968198776,0.4323649965822696
1772697822674703000,2.074703125,-1.2074264092594384,-0.42842298095822334,0.2465261986285448
1772697822684752100,2.084752197265625,-1.2281535554677248,-0.30733576437830923,0.046480011624097824
1772697822694800100,2.094800048828125,-1.2417980499386787,-0.25124095219075676,0.04770049332976341
1772697822704849200,2.10484912109375,-1.2411141593277453,-0.3052545741900802,0.16323066030442715
1772697822714898200,2.114898193359375,-1.091530331581831,-0.373887088650465,0.38045068494975565
1772697822724946200,2.1249462890625,-0.7656710685193538,-0.4955234635457396,0.8383271394073962
1772697822734995200,2.1349951171875,-0.20509704065322876,-0.36179186944812536,1.8500684794813393
1772697822745044200,2.145044189453125,0.35881343815922734,0.30759996827244757,3.3825486806392666
1772697822755092200,2.15509228515625,0.6263596284627914,1.05249771335423,4.398869749718904
1772697822765141200,2.165141357421875,0.8237684527009725,1.3652192624241113,4.607279860442876
1772697822775189200,2.175189208984375,1.035855790632963,1.246633215010166,4.142490850117802
1772697822785238300,2.18523828125,1.137760167837143,0.803150027564168,3.2626480434954166
1772697822795287000,2.195287109375,1.1130267085969447,0.04533931715637445,2.154464098754525
1772697822805335300,2.205335205078125,1.0292717360675334,-0.8541273506075143,1.0234598349183797
1772697822815384000,2.215384033203125,0.7651286322057247,-1.5268661606684326,-0.06366203257143498
1772697822825432000,2.22543212890625,0.4563292250156402,-1.7733479356333612,-0.9403840768247842
1772697822835481000,2.235481201171875,0.31154428545143453,-1.6106234712854026,-1.3435340848386288
1772697822845530400,2.2455302734375,0.6505880607903003,-1.1269836300179361,-0.9042933572679758
1772697822855578000,2.255578125,1.312915659213066,-0.5589657158866524,-0.25530747097730633
1772697822865627400,2.26562744140625,1.6780477789998054,-0.0039002223089337346,-0.07277005265653133
1772697822875676200,2.27567626953125,1.6847838092565535,0.3212999923229217,-0.1737152294397354
1772697822885724200,2.28572412109375,0.8650596635103225,0.5295297780439258,-0.5413946956217288
1772697822895773200,2.295773193359375,-0.2150023485958576,0.74115329785645,-0.711229284235835
1772697822905821200,2.3058212890625,-0.5008066646456718,0.6924670083597302,-0.7262415599286556
1772697822915870200,2.3158701171875,-0.3607511282235384,0.383357512307167,-0.7619523402571677
1772697822925919000,2.3259189453125,-0.030804888108372685,0.017027414907515047,-0.8817705598145723
1772697822935967200,2.33596728515625,0.4968816001564264,-0.20013444980978964,-0.8886790240287781
1772697822946015500,2.346015380859375,1.0780319675832986,-0.255918004091084,-0.6606956133067607
1772697822956064500,2.356064453125,1.3877362146586179,-0.12140695005357265,-0.32804771301746366
1772697822966112500,2.366112548828125,1.614865638899803,-0.04822627076953649,-0.010297522130608559
1772697822976161500,2.37616162109375,1.6924018830448389,0.04054711444377899,0.21919512411057948
1772697822986209500,2.38620947265625,1.7331261076211928,0.12706161481440068,0.463552746528387
1772697822996258600,2.396258544921875,1.782440465888381,0.20899404809176922,0.5509335083395243
1772697823006307600,2.4063076171875,1.7414245648890734,0.2404050853997469,0.5226917487174272
1772697823016355600,2.41635546875,1.6635668337047098,0.20791297485679386,0.47976972183585165
1772697823026404600,2.426404541015625,1.5242612388670445,0.14789689757227897,0.4400619808256626
1772697823036453400,2.436453369140625,1.33131582377851,0.073982935577631,0.3555471298396587
1772697823046501600,2.446501708984375,1.1835820078134536,0.0798170485585928,0.19334113640785217
1772697823056550400,2.45655029296875,1.0521003115344791,0.06901391499340534,0.05823942300081253
1772697823066598700,2.4665986328125,0.961733154323697,-0.04508563465625048,-0.16480243966579436
1772697823076647400,2.4766474609375,0.8612725461870432,-0.19005553886592386,-0.5546680186927319
1772697823086696700,2.48669677734375,0.5983773965597152,-0.20105214917659758,-0.9039157561272382
1772697823096744400,2.496744384765625,0.22610125023722646,-0.15203735837787388,-1.0115256514966486
1772697823106793700,2.506793701171875,-0.05024374807178974,-0.14738836352825163,-1.0243863021135329
1772697823116842500,2.516842529296875,-0.2443219300499186,-0.09693623340278863,-0.9441700251042843
1772697823126890800,2.526890869140625,-0.2381295051505789,0.04308569301068783,-0.9891846403509378
1772697823136939500,2.536939453125,0.09407825015578418,0.1379611944913864,-1.0209802930623293
1772697823146987500,2.546987548828125,0.43420740957856174,0.21593290744423865,-0.9013111265867948
1772697823157036500,2.55703662109375,0.6217249543994665,0.29139029948860407,-0.6718547207027673
1772697823167085600,2.56708544921875,0.6326222690541297,0.36047406484782696,-0.42014615100026126
1772697823177133600,2.577133544921875,0.5917355473924428,0.4300561351180076,-0.23305472263693808
1772697823187182600,2.5871826171875,0.5681266352027654,0.3809831843912601,-0.24310908366143702
1772697823197231600,2.597231689453125,0.5309014317233115,0.3202838010177016,-0.5045815070092677
1772697823207279400,2.607279296875,0.35804712996184823,0.19076807104945182,-0.6873030497252941
1772697823217328600,2.61732861328125,0.1914881289523095,0.05469985069781542,-0.6622019262164831
1772697823227376400,2.62737646484375,0.06063537822663784,0.048393444029986854,-0.5738350759774447
1772697823237425700,2.63742578125,-0.04841419455707073,0.10736585748046636,-0.45022798553109167
1772697823247474400,2.647474365234375,-0.12703531132936477,0.13867840285003186,-0.23665830008685587
1772697823257522700,2.657522705078125,-0.1665553477477282,0.1167208380639553,-0.023515315622091294
1772697823267571500,2.667571533203125,-0.290479833580181,0.04897328974455595,0.1296750121831894
1772697823277619700,2.67761962890625,-0.425419122967124,-0.04030833725184202,0.35256548368036744
1772697823287668500,2.68766845703125,-0.5781838457714766,-0.1908355833277106,0.6001870763301849
1772697823297717500,2.697717529296875,-0.7216168227374553,-0.3400058618366718,0.6447136157989501
1772697823307765500,2.707765625,-0.8232264547787607,-0.42131519477963447,0.5222334835559129
1772697823317814500,2.717814453125,-1.0383780025869607,-0.4709913720965385,0.21271160731017588
1772697823327863600,2.727863525390625,-1.1456389383882284,-0.5070668940842151,-0.09451835860610008
1772697823337911600,2.73791162109375,-1.0146176992278546,-0.5198585711181164,-0.22079671408832072
1772697823347960600,2.747960693359375,-0.8353823181271552,-0.49567339341044425,-0.3667050681918859
1772697823358008600,2.758008544921875,-0.7033809088230133,-0.45229777754247186,-0.3783043205708265
1772697823368057600,2.7680576171875,-0.6937205155521631,-0.4072515981137752,-0.5173036259382963
1772697823378106600,2.778106689453125,-0.6853619986601174,-0.35607787571549415,-0.6659989804118871
1772697823388154600,2.788154541015625,-0.6399049003429711,-0.33099165751487014,-0.7208458383649587
1772697823398203600,2.79820361328125,-0.6147283735103904,-0.29827421378344293,-0.7329162153869867
1772697823408252400,2.80825244140625,-0.5904483571261168,-0.2910693969711661,-0.6285849032968283
1772697823418300700,2.81830078125,-0.5133196708686649,-0.3095674689531326,-0.5478051471859217
1772697823428349400,2.828349365234375,-0.49098976563885804,-0.2810118210762739,-0.4652624730557203
1772697823438397700,2.838397705078125,-0.5284181635402143,-0.26644261297583577,-0.3911608795344829
1772697823448446500,2.848446533203125,-0.6389822325401008,-0.19551205070614813,-0.33043256232738494
1772697823458495700,2.858495849609375,-0.8073531783424317,-0.18660101449787617,-0.19149404723644256
1772697823468543500,2.86854345703125,-1.0617623853057623,-0.16807430094331502,-0.033331776237487794
1772697823478592500,2.878592529296875,-1.3567438411541282,-0.19572393989115952,0.11132920815348625
1772697823488641500,2.8886416015625,-1.6288343968890606,-0.22202304101288317,0.34488428152799605
1772697823498689500,2.898689453125,-1.8747294580072162,-0.3589961012497544,0.5919540855139493
1772697823508738600,2.908738525390625,-2.033083452185988,-0.48085079507082695,0.7248124039083719
1772697823518786300,2.918786376953125,-2.103046776858717,-0.630045623499155,0.7275204938232899
1772697823528835600,2.928835693359375,-1.9643768495760856,-0.6438005926072597,0.5196095647931098
1772697823538884600,2.938884521484375,-1.7186697122454642,-0.5883300497978925,0.2842313676446676
1772697823548932600,2.9489326171875,-1.4640823722362517,-0.3771972361117601,-0.012026537880301474
1772697823558981600,2.958981689453125,-1.2587719810932874,-0.16350158620029687,-0.08945347643196583
1772697823569030400,2.969030517578125,-0.9963362656712531,0.10383768335431813,0.032119477838277816
1772697823579078400,2.979078369140625,-0.7879284930348396,0.5796925698339939,0.5149649538576603
1772697823589127400,2.98912744140625,-0.8797937067836522,1.2965923009216784,1.5773346574068068
1772697823599175400,2.999175537109375,-1.0971195298910141,1.8496075839713215,2.641782920795679
1772697823609224400,3.009224365234375,-1.125603135444969,2.049979641929269,2.964633649691939
1772697823619273700,3.019273681640625,-0.8605015618145465,2.0828060989931223,2.4286820219069716
1772697823629321500,3.029321533203125,-0.22565876716673372,1.8727847536802291,1.6833172438353299
1772697823639370500,3.03937060546875,0.5646276871711016,1.6169517975240946,0.9638152212947606
1772697823649419500,3.04941943359375,1.1716140682525933,1.2520748215422033,0.14448679686784743
1772697823659467500,3.059467529296875,1.5592916357159614,0.9778066295072436,-0.7272101126998662
1772697823669516500,3.0695166015625,1.6321324155211447,0.8890908197000622,-1.573214947128296
1772697823679564500,3.079564453125,1.5002560939013958,0.8185916345849633,-2.100270736274123
1772697823689613600,3.089613525390625,1.3337842597186564,0.8038912013202906,-1.956065094435215
1772697823699662300,3.099662353515625,1.4904869795590638,0.9718760704144835,-1.4368097499072552
1772697823709710600,3.109710693359375,1.6365829651892185,1.2483245290979743,-1.2998901734232902
1772697823719759400,3.11975927734375,1.5386942533671855,1.2873793591573834,-1.1205711326271295
1772697823729807600,3.1298076171875,1.458306126922369,1.0564277462795375,-0.361775795096159
1772697823739856400,3.1398564453125,1.4951140548378228,0.32303894494473934,0.18643968645632267
1772697823749905700,3.14990576171875,1.5360639048635958,-0.4079670529067516,0.058691842943429946
1772697823759953400,3.159953369140625,1.6300129391491411,-0.829802764429152,-0.2021411134570837
1772697823770002700,3.170002685546875,1.899029202005267,-0.8985349398717284,-0.7356786658376455
1772697823780051500,3.180051513671875,2.2827146310925484,-0.7265048870399594,-1.146284835076332
1772697823790099700,3.190099609375,2.5962030728816985,-0.5190688820451498,-1.1916034017056225
1772697823800148500,3.2001484375,2.6528303845107555,-0.4160375466376543,-1.0260323157548903
1772697823810197500,3.210197509765625,2.439856911394,-0.35625966202318665,-0.8040595436245203
1772697823820245500,3.22024560546875,2.051716840985417,-0.2639960966065526,-0.4146072215735912
1772697823830294500,3.23029443359375,1.63096629435122,-0.15084171885251998,-0.04605798681974411
1772697823840342500,3.240342529296875,1.2759890733540058,0.00941430955529213,0.21210604263246058
1772697823850391600,3.2503916015625,0.9562707972645759,0.14214315635114907,0.43683775808215136
1772697823860440600,3.260440673828125,0.7243798577100038,0.2746539764821529,0.6519219397425651
1772697823870488600,3.270488525390625,0.6018015257894992,0.3690177290484309,0.8056243087232112
1772697823880537600,3.28053759765625,0.4151431916138157,0.449087875585258,0.7439823838025331
1772697823890585600,3.290585693359375,0.22638649691939353,0.4664981523305177,0.5924053364127874
1772697823900634600,3.300634521484375,-0.016124657381512225,0.4646688910767436,0.3291355082541704
1772697823910683600,3.31068359375,-0.3052764572283253,0.5267109212309122,0.27490239828526974
1772697823920731600,3.320731689453125,-0.5770353333234787,0.7197489830389618,0.23310323795378207
1772697823930780700,3.33078076171875,-0.5924953527837992,0.8557800862506032,0.00504851556122303
1772697823940829700,3.34082958984375,-0.21724923247350378,0.867431068816781,-0.26041911490261554
1772697823950877700,3.350877685546875,0.21966624875366686,0.7399956522539257,-0.46953766615688797
1772697823960926700,3.3609267578125,0.4636766651690006,0.5584709181070328,-0.6775836197435855
1772697823970974700,3.370974609375,0.608143003770709,0.28771219549775123,-0.9360545231878757
1772697823981023700,3.381023681640625,0.7335159348458051,0.05699819076806306,-1.04686526042521
1772697823991072800,3.39107275390625,0.8213602225154638,-0.10335574505627154,-1.0541372972548007
1772697824001120500,3.40112060546875,0.7369535080790519,-0.20537673437744378,-1.0521943464934824
1772697824011169800,3.411169677734375,0.549910010510683,-0.21616116324216125,-0.9745669169336557
1772697824021218800,3.42121875,0.36507016046643254,-0.17413462389558554,-0.8377578150868416
1772697824031266800,3.431266845703125,0.297809829408396,-0.1294941026583314,-0.6939882265776396
1772697824041315600,3.441315673828125,0.2852186433826573,-0.04153057252317667,-0.4889730189889669
1772697824051363600,3.451363525390625,0.22171967415213584,0.07791150719821453,-0.23579320769011972
1772697824061412600,3.46141259765625,0.07831541182398796,0.15599778644144535,-0.09075812928974628
1772697824071461600,3.471461669921875,-0.053043023401498794,0.18373714949935674,0.010643559089303017
1772697824081509600,3.481509521484375,-0.11877718607187271,0.12540624882280826,0.029140754288434982
1772697824091558700,3.49155859375,-0.11352116523981094,0.0594780248850584,0.12829612504541874
1772697824101607700,3.501607666015625,-0.08880174365811981,0.03871726866811514,0.24671266111135481
1772697824111655700,3.51165576171875,-0.0709387547092978,0.026943828766047954,0.37920389975905416
1772697824121704700,3.52170458984375,-0.1362017836034298,0.09361351872086525,0.3724000649631023
1772697824131752700,3.531752685546875,-0.2158919909119606,0.14213029686957596,0.25044132624566556
1772697824141801500,3.541801513671875,-0.3501484856665134,0.17406301996409893,0.10268120679557323
1772697824151850800,3.551850830078125,-0.5065243847053498,0.18661913467645644,-0.07210194413661956
1772697824161898500,3.5618984375,-0.6587105769693851,0.19951134947538374,-0.2912105590075254
1772697824171947800,3.57194775390625,-0.7435621125638484,0.1977308957993984,-0.37036826687455177
1772697824181996500,3.58199658203125,-0.7931225545465945,0.18545798194259405,-0.38082127182781694
1772697824192044800,3.592044921875,-0.8839584252476692,0.20622809050977228,-0.3409586325168609
1772697824202093600,3.602093505859375,-1.0582160910010336,0.23843787698000668,-0.268152339503169
1772697824212141800,3.612141845703125,-1.2421136917591094,0.21129355720579623,-0.08104454452693462
1772697824222190600,3.622190673828125,-1.304860947573185,0.1212061667844653,0.03715045774281025
1772697824232239600,3.632239501953125,-1.1856149749457836,0.051209378233551976,0.010566986721754074
1772697824242287600,3.64228759765625,-1.1230009901225566,-0.05993950491696596,-0.030298692151904106
1772697824252336600,3.652336669921875,-1.1406360155344009,-0.18052169458419084,-0.08321779691278934
1772697824262385700,3.6623857421875,-1.2500222729265689,-0.1770961040496826,-0.2460112348437309
1772697824272433700,3.67243359375,-1.2478536967158316,-0.1870671707049012,-0.3294803761690855
1772697824282482700,3.682482666015625,-1.1560767457723617,-0.15491232929229734,-0.3820131119608879
1772697824292530700,3.69253076171875,-1.0439952579468488,-0.07127133853137493,-0.31772154931426044
1772697824302579700,3.702579833984375,-0.9805559282153844,-0.06781622964143752,-0.18482699056267737
1772697824312628700,3.712628662109375,-0.8955699525862931,-0.11947539746910332,-0.0008913958817720412
1772697824322676700,3.7226767578125,-0.7983271374523639,-0.31546441803723574,0.13472528131008146
1772697824332725800,3.732725830078125,-0.7779916209101676,-0.5196230087965726,0.13759411474466324
1772697824342773800,3.742773681640625,-0.8525555712461471,-0.5222916434839368,0.06620294922590256
1772697824352822800,3.75282275390625,-1.0215917029589414,-0.343146205689013,0.026268413722515104
1772697824362871600,3.76287158203125,-1.1564461636066437,-0.13711743714362382,0.029492051944136618
1772697824372919600,3.77291943359375,-1.128891801726818,0.020081834042072293,-0.06050327627956867
1772697824382968600,3.782968505859375,-1.0320207425147294,0.007405015559494495,-0.1231254444092512
1772697824393017900,3.793017822265625,-0.9145300891220569,-0.11725450654923915,-0.16183540655374526
1772697824403065600,3.803065673828125,-0.8421744624853134,-0.3213391552895307,-0.1657540413022041
1772697824413115000,3.813114990234375,-0.7404576437424868,-0.49975218715667724,-0.15124503895640373
1772697824423162600,3.82316259765625,-0.6620405981749296,-0.6373956940010189,-0.1467325299680233
1772697824433211600,3.833211669921875,-0.6440507679760455,-0.7217910102605819,-0.0827922649770975
1772697824443260700,3.8432607421875,-0.7142313886612653,-0.8281248943448066,0.09856149651706218
1772697824453308700,3.85330859375,-0.856330413609743,-0.893518573014438,0.2841968808531761
1772697824463357700,3.863357666015625,-0.9551303950577974,-0.8561638248711824,0.39711072784960266
1772697824473406700,3.87340673828125,-0.9884019655406474,-0.7895587245851755,0.4416086257457733
1772697824483454700,3.883454833984375,-0.94114505125992,-0.7229577159523963,0.5706605375945568
1772697824493503500,3.89350341796875,-0.6417734706938266,-0.6080363285258412,0.9491074815064668
1772697824503551700,3.9035517578125,-0.06868249108195304,-0.23753654422610998,1.8367349506556987
1772697824513600500,3.9136005859375,0.40103696138262745,0.49901978122889995,3.09700973752737
1772697824523649800,3.92364990234375,0.6620873599261045,1.0751344925761221,3.9665497613221405
1772697824533697500,3.933697509765625,0.8208996192663908,1.1608102040350436,4.004896735373139
1772697824543746800,3.943746826171875,1.0376251383930444,0.834646112807095,3.2836978457868096
1772697824553795600,3.953795654296875,1.1265578058212995,0.25228198567628857,2.1930331911236047
1772697824563843800,3.96384375,1.044559906092286,-0.43426469272375107,1.1662374897807837
1772697824573892600,3.973892578125,0.8921341329187155,-1.0404621153846383,0.1794230856925249
1772697824583940900,3.98394091796875,0.6285445712864398,-1.4157505952656269,-0.6922066038578748
1772697824593989600,3.99398974609375,0.3186532772064209,-1.4145745372235774,-1.2119962013930081
1772697824604038700,4.00403857421875,0.2607136956687085,-1.1145935195222496,-1.0802087271004914
1772697824614086700,4.014086669921875,0.6908715558618307,-0.6563017622619867,-0.2547960143238306
1772697824624135700,4.0241357421875,1.2744956199258566,-0.1526572438418865,0.684061875846982
1772697824634184700,4.034184814453125,1.4205384140640496,0.3060460168287158,1.169125612437725
1772697824644232700,4.044232666015625,1.0289672001630068,0.6410276207625866,1.1641285348027943
1772697824654281700,4.05428173828125,0.3742752111852169,0.816171421700716,0.8560837453722954
1772697824664329700,4.064329833984375,0.0807055218309164,0.6679395930856465,0.4871300214707851
1772697824674378800,4.074378662109375,0.14712127355728297,0.31330431739389897,0.039139001211524006
1772697824684427800,4.084427734375,0.42942426695525643,-0.04002075248211622,-0.37401860607564447
1772697824694475800,4.094475830078125,0.905901888443157,-0.37562633353322744,-0.7753875758916139
1772697824704524800,4.10452490234375,1.499686769580841,-0.5007639945477247,-1.0342828422278165
1772697824714573600,4.114573486328125,1.8742051418721675,-0.5113794965863228,-1.08763390866518
1772697824724621800,4.124621826171875,1.9700006808072328,-0.5390045856148005,-1.1592273187577724
1772697824734670600,4.134670654296875,1.9531471611618993,-0.5516895874038338,-1.2706447897166013
1772697824744718800,4.14471875,1.8596482087314128,-0.5027414321005345,-1.210916589462757
1772697824754767600,4.154767578125,1.7567495597928762,-0.33579145901203156,-0.9912269598335027
1772697824764816600,4.164816650390625,1.6354320415884256,-0.1597799353286624,-0.7489590031713247
1772697824774864600,4.17486474609375,1.4658195712924003,0.061168754450976845,-0.5421791239976883
1772697824784913700,4.18491357421875,1.284146076324582,0.3659156713798642,-0.24817396583557128
1772697824794962700,4.194962646484375,1.0854711776733397,0.5404445552900433,0.16726853751838205
1772697824805010400,4.205010498046875,0.7387767049182206,0.6784241622209548,0.5247936894327402
1772697824815059700,4.215059814453125,0.41152503764927384,0.6084951782092451,0.7602513815581798
1772697824825107500,4.225107421875,0.20100005366317927,0.42870004433393477,0.8276613684862851
1772697824835156700,4.23515673828125,0.11375029782056807,0.1369768596291542,0.8892349043458699
1772697824845205800,4.245205810546875,0.09399053533971309,-0.20012451293766498,0.9299895240604877
1772697824855253800,4.255253662109375,0.029261165797710417,-0.38472821613848207,0.6602379326671362
1772697824865302500,4.265302490234375,-0.08263729361109436,-0.393999317830801,0.26238661558330056
1772697824875350800,4.275350830078125,-0.1995300541758537,-0.22714959024637937,-0.2728255920112133
1772697824885399600,4.285399658203125,-0.14794533982388675,-0.036892975850403305,-0.6807955675274133
1772697824895448600,4.295448486328125,0.1226292583901435,0.1258899406865239,-0.9250678497493267
1772697824905496600,4.30549658203125,0.3857734874077141,0.48145489844381806,-1.2944786697685717
1772697824915545600,4.315545654296875,0.5013070884484797,0.6527382245615124,-1.4089379926413297
1772697824925594600,4.3255947265625,0.4554998615194112,0.7929705788552761,-1.3039777349978685
1772697824935642600,4.335642578125,0.39824535790272053,0.9164519970953464,-0.9414642732769251
1772697824945691600,4.345691650390625,0.37627193796038627,1.011148342616856,-0.5997369944751262
1772697824955739600,4.35573974609375,0.37452421751022336,1.1767129988268017,-0.4286304862290621
1772697824965788700,4.36578857421875,0.39605274322927,1.1804340651765466,-0.3067085723906755
1772697824975837700,4.375837646484375,0.37691505816951393,1.0067556606158614,-0.28264029906094074
1772697824985885700,4.3858857421875,0.3294073109328747,0.8534820384413003,-0.4091472026020288
1772697824995934700,4.395934814453125,0.2895101848304272,0.7211153029561043,-0.5851572649806738
1772697825005983500,4.4059833984375,0.20876433098912237,0.5832964395448565,-0.6941472165316342
1772697825016031700,4.41603173828125,0.13265797351673245,0.4768807223960757,-0.5894821424424648
1772697825026080500,4.42608056640625,-0.04117722904086113,0.4530874666154384,-0.4402916979283094
1772697825036128500,4.43612841796875,-0.21140636993050574,0.3693108667761087,-0.2294470535337925
1772697825046177500,4.446177490234375,-0.3827769359402358,0.3528744034990668,-0.17702888403236866
1772697825056226800,4.456226806640625,-0.5306364241115749,0.18280951326042413,-0.11229133118391037
1772697825066274600,4.466274658203125,-0.5422855069816113,0.05217150126397609,-0.1487538066625595
1772697825076323800,4.47632373046875,-0.4912522159673273,-0.1469035026207566,-0.1419575706511736
1772697825086372600,4.48637255859375,-0.4545118003301322,-0.35647564286142586,-0.0630728345066309
1772697825096420600,4.496420654296875,-0.5522030898839235,-0.5463491031587123,-0.09557751227021216
1772697825106469600,4.5064697265625,-0.5790653778463601,-0.6804930774495005,-0.12202128255963325
1772697825116517600,4.516517578125,-0.7009089657515287,-0.6753975078761577,-0.15476561429798602
1772697825126566700,4.526566650390625,-0.7786895400464534,-0.6791863787651061,-0.12700900784432886
1772697825136615400,4.536615478515625,-0.8562808753795921,-0.6595838526725769,-0.15036474899053573
1772697825146663700,4.54666357421875,-0.9270252674274146,-0.558343784596026,-0.39583120943307876
1772697825156712400,4.55671240234375,-1.0507137525469064,-0.47349955552518364,-0.5945119533032178
1772697825166761700,4.56676171875,-1.1357552577555179,-0.5577446496590972,-0.5513537795782089
1772697825176809500,4.5768095703125,-1.0796434944331645,-0.6986594332590699,-0.5227291581183672
1772697825186858800,4.586858642578125,-1.1557114195913076,-0.7739391306489706,-0.602186141192913
1772697825196906500,4.596906494140625,-1.4555109432458877,-0.6966998236238956,-0.6954132909446954
1772697825206955800,4.606955810546875,-1.807567308360338,-0.6447554091140627,-0.5304810874193906
1772697825217004500,4.617004638671875,-2.0633748378142713,-0.5715741453081369,-0.29146073437631126
1772697825227052800,4.627052734375,-2.250907287943363,-0.6508344367668032,-0.021080781951546668
1772697825237101600,4.6371015625,-2.4078297880142925,-0.56715779017061,0.07973521549403667
1772697825247150600,4.647150634765625,-2.401135258811712,-0.3580804477095604,0.1795809066027403
1772697825257198600,4.657198486328125,-2.280730471538007,-0.0022577157989144324,0.14043898278176783
1772697825267247600,4.66724755859375,-2.017460935640335,0.1361377784565091,0.25155600948929785
1772697825277295600,4.677295654296875,-1.657197883194685,0.08648761236369609,0.22661621402204035
1772697825287344600,4.6873447265625,-1.2126553959541022,0.023725451241433618,0.16437983033955098
1772697825297393700,4.6973935546875,-0.8626946879446507,-0.06837415578514337,0.15828794320523737
1772697825307441700,4.707441650390625,-0.6460638613641262,-0.1147360939875245,0.09452361930310725
1772697825317490700,4.71749072265625,-0.5805822121500969,-0.020168927803635595,-0.10765548807680607
1772697825327539700,4.727539794921875,-0.5332110969051719,-0.004147182807326316,-0.10067746575772761
1772697825337587700,4.737587646484375,-0.31594737924858923,0.30839111865013835,-0.1581558412581682
1772697825347636700,4.74763671875,0.011240648199617863,0.9615835167199372,0.19835808778703212
1772697825357684700,4.757684814453125,-0.17727876714020965,1.7771964277550578,1.1359703618109225
1772697825367733800,4.767733642578125,-0.5559526516757906,2.3293545094534753,1.8360925610989332
1772697825377782500,4.777782470703125,-0.8094353914439678,2.591752523213625,1.7555103733867405
1772697825387830800,4.787830810546875,-0.7991422532275319,2.3163287314027547,1.3130524373352528
1772697825397879600,4.797879638671875,-0.42100028361156583,1.772102611747384,0.8832815488994121
1772697825407928800,4.8079287109375,0.2693622998148203,1.2683078712016342,0.48688510679900643
1772697825417976600,4.8179765625,0.8705721433214842,0.7105693590223788,0.11338906329274177
1772697825428025600,4.828025634765625,1.20874742873013,-0.016829261986911297,-0.4746779516547918
1772697825438073600,4.838073486328125,1.169720655721426,-0.6286532923579216,-1.230392858827114
1772697825448122600,4.84812255859375,0.874282103755325,-0.7182984919697046,-2.172964801084995
1772697825458171600,4.858171630859375,0.6801905873715877,-0.31444121246933937,-2.7631249889194964
1772697825468219400,4.868219482421875,0.7150472350887954,0.3093190471500158,-2.7318039679825303
1772697825478268700,4.8782685546875,0.9543876138664782,1.1148048241853714,-1.9455659122526645
1772697825488317700,4.888317626953125,1.0943431970454751,1.555489613084495,-0.6770674869149923
1772697825498365700,4.89836572265625,0.9537458088316023,1.519847514078021,0.9797972188025712
1772697825508414700,4.908414794921875,0.49226972244679923,1.233005671674013,2.242022555220127
1772697825518462700,4.918462646484375,0.03829363642856479,0.9176134420901536,2.520388830223679
1772697825528511500,4.928511474609375,-0.06069558398127556,0.7080564994186163,1.823392069479823
1772697825538560500,4.938560546875,0.42350130664706226,0.6578828939735889,0.6930471463352441
1772697825548608500,4.9486083984375,1.2889629750870168,0.7024816218957305,-0.23038988734185695
1772697825558657500,4.958657470703125,1.8575291707508266,0.7848293579757213,-0.9628811553150415
1772697825568706800,4.968706787109375,1.978821700644493,0.6576224894717335,-1.2246125218600035
1772697825578754600,4.978754638671875,1.9754275281615554,0.5162169997453689,-1.181973403573036
1772697825588803600,4.988803466796875,2.0310576454468072,0.2868748678907752,-0.9000994127094745
1772697825598851600,4.9988515625,1.8820505946755408,0.07331628836244344,-0.6232423732250929
1772697825608900600,5.008900634765625,1.6961545135766267,0.14079028043746947,-0.5650391905814409
1772697825618949600,5.01894970703125,1.6431418853133917,0.3307318375349045,-0.4978793790221214
1772697825628997600,5.02899755859375,1.8598919543594121,0.2845312273740768,-0.3420148635715246
1772697825639046700,5.039046630859375,2.149587578759342,0.3187710583671927,-0.4130266743838787
1772697825649095400,5.049095458984375,2.235194024374336,0.3770592889457941,-0.49403848568499087
1772697825659143700,5.059143798828125,2.096834185954183,0.25689532469063997,-0.3829050923645496
1772697825669192400,5.0691923828125,1.9614923801809547,-0.02534048522263765,-0.16535305928587912
1772697825679240700,5.07924072265625,1.9666373418539762,-0.1465475287899375,0.02131634427309036
1772697825689289500,5.08928955078125,1.9720359860271215,-0.10940203948318958,0.12423895860910415
1772697825699338800,5.0993388671875,1.8204782278597353,0.09351298095583915,0.15648644674122333
1772697825709386500,5.109386474609375,1.4641168590277434,0.25867840871512887,0.2520569447487593
1772697825719435800,5.119435791015625,1.0618436338484287,0.35724984210431576,0.2497591892004013
1772697825729484500,5.129484619140625,0.6535919187813997,0.3627504853472113,0.18568974487185477
1772697825739532800,5.13953271484375,0.35314817893914874,0.310458280313015,0.09407178388237952
1772697825749581600,5.14958154296875,0.2607048730414361,0.27551059331148864,-0.0184346513569355
1772697825759629800,5.1596298828125,0.28266426445841786,0.2747086292788386,-0.23334230740666387
1772697825769678600,5.1696787109375,0.3575486058551818,0.19766922874003648,-0.37314649941623207
1772697825779727600,5.1797275390625,0.5120049350082874,0.05513210463523865,-0.36861177859604355
1772697825789775600,5.189775634765625,0.606977467122674,-0.06483925965726375,-0.2813695484727621
1772697825799824600,5.19982470703125,0.5989502280116081,-0.12695669313520191,-0.17185177365541457
1772697825809873700,5.209873779296875,0.4578040468085557,-0.11612930191159247,-0.05107844533026218
1772697825819921700,5.219921630859375,0.30319091965854167,-0.05745528688579797,0.01707739152908325
1772697825829970700,5.229970703125,0.18864103242550045,0.01606266152858734,0.01611059232354164
1772697825840018700,5.240018798828125,0.1363146328607574,0.162781455232203,0.018403087174892425
1772697825850067700,5.250067626953125,0.05721998029258102,0.2828478043317795,0.02215162605345249
1772697825860116700,5.26011669921875,-0.04138009466920048,0.24735242031961677,0.13042553828954695
1772697825870164700,5.270164794921875,-0.18380170263554899,0.2775885686293244,0.27396073352098466
1772697825880213800,5.2802138671875,-0.2117874782025814,0.2035053875476122,0.35889994739890096
1772697825890262500,5.290262451171875,-0.1552075493792072,0.16959668820500373,0.34827450848817826
1772697825900310500,5.300310546875,-0.13985621445775032,0.2211637938350439,0.22183833209574222
1772697825910359600,5.310359619140625,-0.05514317401852458,0.26301351530998945,0.1823380963563919
1772697825920407600,5.320407470703125,0.06667527944538743,0.23701573522239922,0.13205576983988285
1772697825930456600,5.33045654296875,0.15134093707893043,0.19213059157431125,0.12344868501424788
1772697825940505900,5.340505859375,0.27414493098147213,0.15706892280429602,0.08341770339906215
1772697825950553600,5.3505537109375,0.4175357493061572,0.1534808351844549,-0.02569090609550476
1772697825960602600,5.3606025390625,0.5839742292085662,0.1223714111715555,-0.05075052855014801
1772697825970650400,5.370650390625,0.7534767728567123,0.12962269747406244,-0.05786006829440593
1772697825980699600,5.38069970703125,0.803834502696991,0.06931231341809034,0.07898176677823067
1772697825990748700,5.390748779296875,0.8213853569567203,0.05492518388628959,0.14022855490148067
1772697826000796700,5.400796630859375,0.8876426667183637,0.05347878447026014,0.24283260480761526
1772697826010845700,5.410845703125,1.075148594166711,0.04297989454865456,0.19586977810263634
1772697826020894500,5.42089453125,1.154481585535407,0.03953413800895214,0.07982756995260715
1772697826030942500,5.4309423828125,1.0933113697797059,0.1109691426694393,-0.11552549079954623
1772697826040991500,5.440991455078125,0.9853244577914476,0.2676680631175637,-0.18522914162278173
1772697826051039500,5.45103955078125,0.9387199430048465,0.38797055906057354,-0.2273988888323307
1772697826061088500,5.461088623046875,0.9300006299763918,0.3658773851960897,-0.0816682293832302
1772697826071137800,5.4711376953125,0.9777701699543744,0.20621347746253013,0.20680442909300326
1772697826081185500,5.481185546875,0.9881418532997369,0.006954056921601295,0.46945466404855246
1772697826091234600,5.491234619140625,0.9276297361265867,-0.13706892182677982,0.6597621318489313
1772697826101283600,5.50128369140625,0.7409095522284508,-0.2026791658565402,0.7341513101398944
1772697826111331600,5.51133154296875,0.48000005999300627,-0.26612638663351534,0.8236024484843015
1772697826121380600,5.521380615234375,0.33773795343730595,-0.39571313601136204,0.9630793082356452
1772697826131428600,5.5314287109375,0.39541327628195283,-0.4712307338103652,0.9412374787837267
1772697826141477600,5.5414775390625,0.561874662135914,-0.48717766000479457,0.7437795547068119
1772697826151526400,5.5515263671875,0.8392395780771971,-0.394928123113513,0.6121650988936423
1772697826161574700,5.56157470703125,1.1459873864997179,-0.254875509300828,0.6180880592018365
1772697826171623400,5.57162353515625,1.3203782501786947,0.009983926136791705,0.4680412901192903
1772697826181672400,5.58167236328125,1.1752175726372749,0.32479397191852327,0.07282441319227219
1772697826191720400,5.591720458984375,0.7213654783248901,0.4985024793565273,-0.36130993115007876
1772697826201769500,5.60176953125,0.4388952751338482,0.39342122568190097,-0.5271855530053376
1772697826211817500,5.6118173828125,0.3856669582933187,0.31784079177975655,-0.7106909395754337
1772697826221866500,5.621866455078125,0.5489046328604221,0.3437681369796395,-0.8164917396962642
1772697826231915500,5.63191552734375,0.8481342476725577,0.3339233270525932,-0.7137912436783314
1772697826241963500,5.641963623046875,1.0942688166350125,0.340745866549015,-0.5313181227654218
1772697826252012500,5.652012451171875,1.2058739191204308,0.33920272876024243,-0.46884091606438155
1772697826262061600,5.6620615234375,1.1218313618212938,0.2748623585358262,-0.44447453657090663
1772697826272109600,5.672109619140625,0.7766261047106235,0.21370529452264309,-0.4487643427193165
1772697826282158600,5.68215869140625,0.2652221312701702,0.15115005414932967,-0.37089550561904905
1772697826292207400,5.692207275390625,-0.2635480605781078,0.13152853109538554,-0.28438217429220675
1772697826302255600,5.702255615234375,-0.6718582278341054,0.18527444206923246,-0.1979752259492874
1772697826312304400,5.712304443359375,-0.9457236842870712,0.23681407517045736,-0.10152502249777316
1772697826322352600,5.7223525390625,-0.9922956119783222,0.16058599101454019,0.014750994408130646
1772697826332401400,5.7324013671875,-0.8034815976060926,-0.05386719926595687,0.1257744976133108
1772697826342450700,5.74245068359375,-0.6344116366889327,-0.2388707154393196,0.1551192500412464
1772697826352498400,5.75249853515625,-0.5131060281179846,-0.27943711910545826,0.04638882620930671
1772697826362547700,5.762547607421875,-0.39247254665493964,-0.19546353538930414,-0.1077238771378994
1772697826372596500,5.772596435546875,-0.20248715041577814,-0.06465221265256405,-0.22555706035792827
1772697826382644700,5.782644775390625,0.07753346766605973,0.017018354818224907,-0.26736381947398186
1772697826392693500,5.792693603515625,0.2667243525266647,0.05135375514030456,-0.3738520173370838
1772697826402741500,5.802741455078125,0.27547040743157264,0.07189414660483598,-0.4273918843448162
1772697826412790500,5.81279052734375,0.18003515317626295,0.06557458819448947,-0.38837504820823665
1772697826422839600,5.822839599609375,-0.03733626263849437,0.056712944085896014,-0.1685690987229347
1772697826432887600,5.832887451171875,-0.2662970670253038,0.02288490876406431,0.05562251850068569
1772697826442936600,5.8429365234375,-0.440982602801919,0.007271744568645953,0.1183195054322481
1772697826452985600,5.852985595703125,-0.6062726798541843,-0.000405073669552803,0.09540800092220306
1772697826463033300,5.863033447265625,-0.6917724502243101,0.026604221548140048,0.0319371070086956
1772697826473082600,5.87308251953125,-0.7241530632168054,0.05810878235846757,-0.007326981887221336
1772697826483131600,5.883131591796875,-0.621434008628875,0.11507657798826694,-0.13375439045131204
1772697826493179600,5.8931796875,-0.45723523394465443,0.21384294942766427,-0.2600456054151058
1772697826503228700,5.903228759765625,-0.25316446759924294,0.2506961777895689,-0.29188042109310625
1772697826513276700,5.913276611328125,-0.09514840013794601,0.24039018009155988,-0.3126853087127209
1772697826523325400,5.923325439453125,0.007287965051084757,0.24052228203862905,-0.24903672014474867
1772697826533374500,5.93337451171875,0.049745735421776766,0.2468339494034648,-0.15017302581071854
1772697826543422500,5.94342236328125,0.02773088749051094,0.20308803891837596,-0.11747604034543037
1772697826553471500,5.953471435546875,0.037111879298090934,0.11054127264618872,-0.028670798689126968
1772697826563519500,5.96351953125,0.05245221790149807,0.045971477580070495,0.038346389529109
1772697826573568500,5.973568603515625,0.08895838639140129,-0.03424509169012308,0.16373860982656477
1772697826583617500,5.983617431640625,0.08969144990630447,0.007705459810793399,0.1431979261010885
1772697826593665500,5.99366552734375,0.11539002785161137,0.07297521983981133,0.09628712184429168
1772697826603714600,6.003714599609375,0.16777531799674034,0.1308262280449271,0.12666238636374472
1772697826613763600,6.013763671875,0.16570903311669827,0.18535422930717468,0.11431903761923312
1772697826623811600,6.0238115234375,0.09981894923225045,0.1716094893321395,0.08625029647648334
1772697826633860600,6.033860595703125,0.12012582420185208,0.09302841230928897,0.23779694872796533
1772697826643909400,6.043909423828125,0.16298691467642784,0.006393792690336704,0.2506558457791805
1772697826653957600,6.05395751953125,0.1691062743395567,-0.018985855498909947,0.17756898225843906
1772697826664006400,6.06400634765625,0.23657895124033093,-0.035732407638430594,0.16012041932940482
1772697826674054700,6.0740546875,0.23610665755346416,0.07418459562957286,0.09629647419452667
1772697826684103400,6.084103515625,0.16795608139112592,0.19791355888992546,-0.0007592939347028732
1772697826694152700,6.094152587890625,0.16267258803024887,0.2012412420079112,-0.028106150543689725
1772697826704200400,6.104200439453125,0.14486030635535715,0.11486205845475196,-0.09763035314679146
1772697826714249700,6.114249755859375,0.14618600200116633,0.06617430765330791,-0.20624387260079383
1772697826724298500,6.124298583984375,0.15546587152183056,0.054804480116069317,-0.24098317754864693
1772697826734346800,6.1343466796875,0.11955927636027336,0.0646694560483098,-0.19447920052707193
1772697826744395500,6.1443955078125,0.06811155932620168,0.08200140686035155,-0.12644085256755352
1772697826754443500,6.154443603515625,0.05344064441695809,0.0779585612103343,-0.06539630901813506
1772697826764492500,6.164492431640625,-0.005859831944108009,0.09933014280200005,-0.08987199410498142
1772697826774541600,6.17454150390625,-0.09218903887569904,0.13108224863260984,-0.1930073744088411
1772697826784589600,6.184589599609375,-0.1473936242252588,0.1007043537646532,-0.2149322059690952
1772697826794638600,6.194638671875,-0.1063717318765819,0.03512333582937717,-0.19954057556986807
1772697826804687600,6.2046875,-0.060652329361438745,-0.016299977415800092,-0.1277653791695833
1772697826814735600,6.214735595703125,-0.09447627303004265,0.0016533201649785042,-0.1055272438764572
1772697826824784600,6.22478466796875,-0.1596551399052143,0.08200695981830358,-0.048337622189521784
1772697826834832600,6.23483251953125,-0.21344912780448794,0.13023030797839164,-0.0060725979119539255
1772697826844881400,6.24488134765625,-0.3160416334033012,0.07363835992366075,0.08258709779381751
1772697826854930700,6.2549306640625,-0.3181125944584608,0.004932487966120243,0.08337795591056346
1772697826864978400,6.264978515625,-0.22023674211800098,-0.007209492987394333,0.06174187816381454
1772697826875027700,6.27502783203125,-0.1269714523129165,0.07205868951678275,0.06952303355932235
1772697826885076500,6.285076416015625,-0.059956748312711715,0.10328764825612306,0.030312136155366896
1772697826895124500,6.29512451171875,-0.03137172821089625,0.1065425583988428,0.0660135641336441
1772697826905173500,6.305173583984375,-0.07404138776659965,0.11993716976195573,0.018224807998538015
1772697826915221500,6.315221435546875,-0.13018866079375147,0.11815174764990806,-0.03721183254122734
1772697826925270500,6.3252705078125,-0.21069895231351254,0.1215206395611167,-0.03613514322042465
1772697826935319600,6.335319580078125,-0.3303041136421263,0.1152525190770626,0.01569149012863636
1772697826945367800,6.345367919921875,-0.47450887869819997,0.0788975956261158,0.057020694860816
1772697826955416600,6.35541650390625,-0.535746314471215,-0.006976268753409385,0.08059154006242751
1772697826965465900,6.3654658203125,-0.09200476834997534,-0.14483838678449393,-0.05095861834287643
1772697826975513600,6.375513671875,0.7211569501407444,-0.16715660157650708,0.11225859795808792
1772697826985563000,6.38556298828125,0.7307854869686067,-0.19437720145732162,0.344179348129034
1772697826995611600,6.395611572265625,0.3100397626399994,-0.10235913523435593,0.21529811667203902
1772697827005660000,6.405659912109375,-0.17190204253792762,-0.04034107047766447,0.0008592471778392792
1772697827015708700,6.415708740234375,-0.5990234393782913,-0.0035091771647334097,-0.14840660066008568
1772697827025757000,6.4257568359375,-0.9799391114912926,0.060388125467300414,-0.30476679067313667
1772697827035805700,6.4358056640625,-1.0365490335941314,0.08621347159743309,-0.25584289302825924
1772697827045854700,6.445854736328125,-0.8246138174839317,0.04139554796665907,-0.09382043946981429
1772697827055902700,6.45590283203125,-0.5776191245608031,-0.08980126695632934,-0.07478489961028098
1772697827065951700,6.46595166015625,-0.3701134153306484,-0.11942834345698355,-0.07008183648586273
1772697827075999700,6.475999755859375,-0.2184405063509941,-0.0903235372647643,-0.01590191800892353
