time,seconds_elapsed,z,y,x
1772697820657442300,0.0574423828125,-0.2042999267578125,0.4393463134765625,0.8765869140625
1772697820667490300,0.067490234375,-0.2063140869140625,0.4398651123046875,0.880859375
1772697820677539300,0.077539306640625,-0.20623779296875,0.443206787109375,0.884521484375
1772697820687587300,0.08758740234375,-0.20367431640625,0.443206787109375,0.881744384765625
1772697820697636400,0.09763623046875,-0.2061614990234375,0.4408721923828125,0.8788909912109375
1772697820707685000,0.10768505859375,-0.208740234375,0.440155029296875,0.87933349609375
1772697820717733000,0.117733154296875,-0.2019805908203125,0.442596435546875,0.876800537109375
1772697820727782100,0.1277822265625,-0.1953582763671875,0.441070556640625,0.8772125244140625
1772697820737831400,0.13783154296875,-0.192626953125,0.4405975341796875,0.8785552978515625
1772697820747879200,0.147879150390625,-0.192718505859375,0.4390716552734375,0.8804168701171875
1772697820757928400,0.157928466796875,-0.1912994384765625,0.441619873046875,0.8812408447265625
1772697820767976200,0.16797607421875,-0.189910888671875,0.44659423828125,0.8798675537109375
1772697820778025200,0.178025146484375,-0.1966552734375,0.45172119140625,0.8774566650390625
1772697820788074200,0.18807421875,-0.201141357421875,0.456695556640625,0.8760528564453125
1772697820798122200,0.198122314453125,-0.202056884765625,0.4603729248046875,0.8708953857421875
1772697820808171300,0.208171142578125,-0.196807861328125,0.457244873046875,0.86444091796875
1772697820818219300,0.21821923828125,-0.19354248046875,0.4566497802734375,0.8626861572265625
1772697820828268300,0.228268310546875,-0.19708251953125,0.4526824951171875,0.86041259765625
1772697820838317000,0.238317138671875,-0.2024688720703125,0.450347900390625,0.8543243408203125
1772697820848365300,0.248365234375,-0.205230712890625,0.45318603515625,0.8569183349609375
1772697820858414000,0.2584140625,-0.2029876708984375,0.45770263671875,0.8590850830078125
1772697820868463400,0.26846337890625,-0.1957550048828125,0.4624786376953125,0.8542938232421875
1772697820878511000,0.278510986328125,-0.187469482421875,0.4632110595703125,0.846893310546875
1772697820888560400,0.288560302734375,-0.1863861083984375,0.460723876953125,0.84149169921875
1772697820898608000,0.298608154296875,-0.1894683837890625,0.454833984375,0.8359832763671875
1772697820908657400,0.308657470703125,-0.190338134765625,0.451568603515625,0.8385162353515625
1772697820918706200,0.3187060546875,-0.191070556640625,0.4551544189453125,0.8399200439453125
1772697820928754400,0.32875439453125,-0.195159912109375,0.458465576171875,0.8433990478515625
1772697820938803500,0.338803466796875,-0.202789306640625,0.455352783203125,0.8424835205078125
1772697820948852200,0.348852294921875,-0.2114105224609375,0.450958251953125,0.8537139892578125
1772697820958900500,0.358900390625,-0.2294158935546875,0.4484710693359375,0.85772705078125
1772697820968949200,0.36894921875,-0.2487640380859375,0.447052001953125,0.86138916015625
1772697820978997500,0.37899755859375,-0.2732696533203125,0.4469451904296875,0.867584228515625
1772697820989046300,0.38904638671875,-0.2867279052734375,0.4487762451171875,0.8721466064453125
1772697820999095600,0.399095458984375,-0.2939453125,0.4652252197265625,0.86968994140625
1772697821009143300,0.409143310546875,-0.3003997802734375,0.479156494140625,0.8680419921875
1772697821019192600,0.419192626953125,-0.292388916015625,0.487548828125,0.878631591796875
1772697821029240300,0.429240234375,-0.279083251953125,0.500823974609375,0.8871917724609375
1772697821039289600,0.43928955078125,-0.2608489990234375,0.5115966796875,0.89166259765625
1772697821049338400,0.44933837890625,-0.2519683837890625,0.517852783203125,0.888214111328125
1772697821059386400,0.459386474609375,-0.2462615966796875,0.5189666748046875,0.8922882080078125
1772697821069435400,0.469435302734375,-0.246551513671875,0.5160980224609375,0.889373779296875
1772697821079484400,0.479484375,-0.257720947265625,0.5106658935546875,0.878997802734375
1772697821089532400,0.489532470703125,-0.260406494140625,0.5026702880859375,0.8635711669921875
1772697821099581400,0.49958154296875,-0.2513275146484375,0.496002197265625,0.85394287109375
1772697821109629400,0.50962939453125,-0.24444580078125,0.4936370849609375,0.845611572265625
1772697821119678500,0.519678466796875,-0.248077392578125,0.496337890625,0.8427734375
1772697821129727500,0.5297275390625,-0.260498046875,0.5046844482421875,0.8438568115234375
1772697821139775200,0.539775146484375,-0.272216796875,0.5121917724609375,0.8420867919921875
1772697821149824300,0.54982421875,-0.2771148681640625,0.5184173583984375,0.833282470703125
1772697821159873500,0.55987353515625,-0.2851104736328125,0.51605224609375,0.8306732177734375
1772697821169921300,0.56992138671875,-0.29046630859375,0.5003509521484375,0.834381103515625
1772697821179970300,0.57997021484375,-0.2848968505859375,0.4795074462890625,0.838134765625
1772697821190018300,0.590018310546875,-0.274444580078125,0.464080810546875,0.8351898193359375
1772697821200067300,0.6000673828125,-0.2801055908203125,0.4566802978515625,0.826812744140625
1772697821210116400,0.610116455078125,-0.295196533203125,0.45330810546875,0.827972412109375
1772697821220164400,0.620164306640625,-0.314208984375,0.4522705078125,0.82061767578125
1772697821230213400,0.63021337890625,-0.3293914794921875,0.45440673828125,0.8096466064453125
1772697821240262100,0.64026220703125,-0.330780029296875,0.4611053466796875,0.8035736083984375
1772697821250310400,0.650310302734375,-0.3233795166015625,0.47210693359375,0.7978363037109375
1772697821260359200,0.660359130859375,-0.3120880126953125,0.47540283203125,0.8005828857421875
1772697821270407400,0.670407470703125,-0.2973480224609375,0.48162841796875,0.807098388671875
1772697821280456200,0.680456298828125,-0.286834716796875,0.4933013916015625,0.804931640625
1772697821290505500,0.69050537109375,-0.279083251953125,0.5081024169921875,0.7985382080078125
1772697821300553200,0.70055322265625,-0.2725982666015625,0.5140533447265625,0.80029296875
1772697821310602500,0.7106025390625,-0.2630462646484375,0.513275146484375,0.8114471435546875
1772697821320651300,0.7206513671875,-0.2511138916015625,0.51397705078125,0.821319580078125
1772697821330699500,0.730699462890625,-0.2569732666015625,0.5057373046875,0.8233795166015625
1772697821340748300,0.740748291015625,-0.2724609375,0.485809326171875,0.824462890625
1772697821350796500,0.750796630859375,-0.294403076171875,0.4790191650390625,0.8229827880859375
1772697821360845300,0.76084521484375,-0.303955078125,0.4890899658203125,0.8215789794921875
1772697821370894300,0.770894287109375,-0.3127593994140625,0.50469970703125,0.806365966796875
1772697821380942300,0.7809423828125,-0.3095703125,0.50982666015625,0.79052734375
1772697821390991400,0.790991455078125,-0.3061981201171875,0.509765625,0.7849273681640625
1772697821401039400,0.801039306640625,-0.305450439453125,0.507537841796875,0.7790374755859375
1772697821411088400,0.81108837890625,-0.30877685546875,0.5037689208984375,0.7615814208984375
1772697821421137400,0.821137451171875,-0.31280517578125,0.505645751953125,0.755767822265625
1772697821431185400,0.831185302734375,-0.316680908203125,0.5018768310546875,0.7579193115234375
1772697821441234400,0.841234375,-0.325592041015625,0.4898681640625,0.7620849609375
1772697821451283500,0.851283447265625,-0.33685302734375,0.4753875732421875,0.7688446044921875
1772697821461331500,0.86133154296875,-0.3415069580078125,0.4639434814453125,0.7710418701171875
1772697821471380500,0.87138037109375,-0.3386688232421875,0.4508819580078125,0.7764129638671875
1772697821481428500,0.881428466796875,-0.3294525146484375,0.4387359619140625,0.7811431884765625
1772697821491477500,0.8914775390625,-0.2903289794921875,0.4237213134765625,0.7888336181640625
1772697821501526300,0.9015263671875,-0.2669525146484375,0.4310760498046875,0.795684814453125
1772697821511574300,0.91157421875,-0.26220703125,0.45208740234375,0.793792724609375
1772697821521623300,0.921623291015625,-0.26812744140625,0.4730377197265625,0.785369873046875
1772697821531672600,0.931672607421875,-0.2889862060546875,0.48382568359375,0.77105712890625
1772697821541720300,0.94172021484375,-0.312408447265625,0.4858856201171875,0.760345458984375
1772697821551769600,0.95176953125,-0.33502197265625,0.486114501953125,0.763153076171875
1772697821561817300,0.9618173828125,-0.34588623046875,0.476959228515625,0.7870330810546875
1772697821571866400,0.971866455078125,-0.3343963623046875,0.4528656005859375,0.8270416259765625
1772697821581915400,0.981915283203125,-0.3274078369140625,0.443145751953125,0.8359222412109375
1772697821591963400,0.99196337890625,-0.3321075439453125,0.4557647705078125,0.81365966796875
1772697821602012400,1.002012451171875,-0.338287353515625,0.4680023193359375,0.8013153076171875
1772697821612061400,1.0120615234375,-0.3551025390625,0.484466552734375,0.7990875244140625
1772697821622109400,1.022109375,-0.3702545166015625,0.4987030029296875,0.8036346435546875
1772697821632158200,1.032158203125,-0.3724822998046875,0.505859375,0.8132171630859375
1772697821642206500,1.04220654296875,-0.3644866943359375,0.5064239501953125,0.8105926513671875
1772697821652255200,1.052255126953125,-0.348907470703125,0.5019378662109375,0.8065338134765625
1772697821662304500,1.062304443359375,-0.3399505615234375,0.49603271484375,0.811553955078125
1772697821672352300,1.072352294921875,-0.3453826904296875,0.490203857421875,0.8148956298828125
1772697821682401500,1.082401611328125,-0.3632354736328125,0.4853515625,0.8191680908203125
1772697821692450300,1.0924501953125,-0.3824462890625,0.4808349609375,0.8236541748046875
1772697821702498600,1.10249853515625,-0.3961639404296875,0.477386474609375,0.8219757080078125
1772697821712547300,1.11254736328125,-0.4066314697265625,0.4973297119140625,0.8205718994140625
1772697821722595300,1.12259521484375,-0.4062652587890625,0.53826904296875,0.828460693359375
1772697821732644400,1.132644287109375,-0.3958892822265625,0.6013641357421875,0.8589324951171875
1772697821742693400,1.142693359375,-0.3771820068359375,0.652313232421875,0.9189300537109375
1772697821752741400,1.152741455078125,-0.3466796875,0.6835479736328125,0.957611083984375
1772697821762790400,1.162790283203125,-0.3087615966796875,0.6910552978515625,0.9519805908203125
1772697821772839400,1.17283935546875,-0.2638702392578125,0.6721038818359375,0.9198455810546875
1772697821782887400,1.182887451171875,-0.227264404296875,0.633056640625,0.8958740234375
1772697821792936400,1.1929365234375,-0.21466064453125,0.5789794921875,0.8837738037109375
1772697821802984400,1.202984375,-0.22735595703125,0.5217132568359375,0.880340576171875
1772697821813033200,1.213033203125,-0.25018310546875,0.485809326171875,0.8595428466796875
1772697821823082500,1.22308251953125,-0.2693634033203125,0.4583282470703125,0.8361663818359375
1772697821833130200,1.233130126953125,-0.2888641357421875,0.4335174560546875,0.8113861083984375
1772697821843179500,1.243179443359375,-0.3099365234375,0.4379425048828125,0.786895751953125
1772697821853227300,1.253227294921875,-0.3187408447265625,0.4639434814453125,0.7572021484375
1772697821863276500,1.263276611328125,-0.30096435546875,0.5246734619140625,0.7449951171875
1772697821873325300,1.2733251953125,-0.2547760009765625,0.58697509765625,0.7624969482421875
1772697821883373600,1.28337353515625,-0.22113037109375,0.6227874755859375,0.8004302978515625
1772697821893422300,1.29342236328125,-0.220184326171875,0.6258697509765625,0.83721923828125
1772697821903471400,1.303471435546875,-0.241363525390625,0.575927734375,0.8838958740234375
1772697821913519400,1.313519287109375,-0.2597503662109375,0.5246429443359375,0.9019317626953125
1772697821923568400,1.323568359375,-0.258056640625,0.4846343994140625,0.900054931640625
1772697821933616400,1.333616455078125,-0.2096405029296875,0.4795379638671875,0.86029052734375
1772697821943666200,1.343666259765625,-0.1402740478515625,0.4931182861328125,0.8280792236328125
1772697821953715200,1.353715087890625,-0.090606689453125,0.5027313232421875,0.804351806640625
1772697821963763200,1.36376318359375,-0.0604705810546875,0.4964141845703125,0.7920684814453125
1772697821973812200,1.373812255859375,-0.0368804931640625,0.4910125732421875,0.77838134765625
1772697821983861200,1.383861328125,-0.026092529296875,0.48321533203125,0.7773284912109375
1772697821993909200,1.3939091796875,-0.0278167724609375,0.471160888671875,0.7931365966796875
1772697822003958300,1.403958251953125,-0.0301361083984375,0.4557952880859375,0.8197479248046875
1772697822014006000,1.414006103515625,-0.0263519287109375,0.4547576904296875,0.84344482421875
1772697822024055300,1.42405517578125,-0.0213165283203125,0.45526123046875,0.86431884765625
1772697822034104000,1.43410400390625,-0.02142333984375,0.453094482421875,0.8778228759765625
1772697822044152300,1.44415234375,-0.0286407470703125,0.4342193603515625,0.90118408203125
1772697822054201000,1.454201171875,-0.0374603271484375,0.416229248046875,0.91302490234375
1772697822064250000,1.46425,-0.043304443359375,0.4158782958984375,0.9133148193359375
1772697822074298000,1.474298095703125,-0.0380859375,0.42523193359375,0.92218017578125
1772697822084347100,1.48434716796875,-0.036834716796875,0.4243927001953125,0.9339599609375
1772697822094395100,1.49439501953125,-0.0443878173828125,0.4237823486328125,0.9308319091796875
1772697822104444200,1.504444091796875,-0.0474853515625,0.42706298828125,0.9246673583984375
1772697822114493200,1.5144931640625,-0.0609588623046875,0.42144775390625,0.9282073974609375
1772697822124541200,1.524541259765625,-0.08087158203125,0.4247894287109375,0.933135986328125
1772697822134590200,1.534590087890625,-0.096771240234375,0.4252777099609375,0.928253173828125
1772697822144639200,1.54463916015625,-0.106781005859375,0.428192138671875,0.92303466796875
1772697822154687200,1.554687255859375,-0.11065673828125,0.4259185791015625,0.918548583984375
1772697822164736300,1.564736328125,-0.111419677734375,0.428131103515625,0.9064788818359375
1772697822174784300,1.5747841796875,-0.11309814453125,0.4308624267578125,0.89111328125
1772697822184833300,1.584833251953125,-0.1114349365234375,0.43328857421875,0.87591552734375
1772697822194882000,1.594882080078125,-0.1023101806640625,0.434173583984375,0.8699951171875
1772697822204930000,1.604929931640625,-0.0872802734375,0.42626953125,0.8630218505859375
1772697822214979000,1.61497900390625,-0.06903076171875,0.422149658203125,0.8648223876953125
1772697822225028400,1.6250283203125,-0.0464935302734375,0.4220123291015625,0.86932373046875
1772697822235076000,1.635076171875,-0.0284423828125,0.423980712890625,0.875457763671875
1772697822245125000,1.645125,-0.00933837890625,0.415069580078125,0.885162353515625
1772697822255173000,1.655173095703125,0.0095367431640625,0.398529052734375,0.8841552734375
1772697822265222100,1.66522216796875,0.0182647705078125,0.378692626953125,0.88140869140625
1772697822275271200,1.675271240234375,0.0229034423828125,0.3622894287109375,0.8864288330078125
1772697822285319200,1.685319091796875,0.0236968994140625,0.35162353515625,0.8913726806640625
1772697822295368200,1.6953681640625,0.0118408203125,0.3506622314453125,0.893402099609375
1772697822305416200,1.705416259765625,0.00634765625,0.355316162109375,0.8966064453125
1772697822315465200,1.71546533203125,0.0025482177734375,0.3709716796875,0.8989410400390625
1772697822325514000,1.725513916015625,-0.0049285888671875,0.382720947265625,0.90704345703125
1772697822335562200,1.735562255859375,-0.023681640625,0.38555908203125,0.910400390625
1772697822345611000,1.745611083984375,-0.050537109375,0.380340576171875,0.9097747802734375
1772697822355660300,1.755660400390625,-0.073944091796875,0.3774871826171875,0.89984130859375
1772697822365708000,1.7657080078125,-0.090972900390625,0.381439208984375,0.8952178955078125
1772697822375757300,1.77575732421875,-0.1015472412109375,0.380462646484375,0.9029693603515625
1772697822385805000,1.78580517578125,-0.1020965576171875,0.372955322265625,0.91400146484375
1772697822395854300,1.795854248046875,-0.1063079833984375,0.3641815185546875,0.9222564697265625
1772697822405903000,1.805903076171875,-0.111053466796875,0.3559112548828125,0.9230804443359375
1772697822415951400,1.815951416015625,-0.1139984130859375,0.3503875732421875,0.9280242919921875
1772697822426000100,1.826000244140625,-0.1149749755859375,0.3492584228515625,0.92901611328125
1772697822436049200,1.836049072265625,-0.11578369140625,0.35565185546875,0.919464111328125
1772697822446097200,1.84609716796875,-0.1157379150390625,0.3625946044921875,0.912078857421875
1772697822456146200,1.856146240234375,-0.1112213134765625,0.36712646484375,0.9061737060546875
1772697822466194200,1.866194091796875,-0.1068878173828125,0.3643035888671875,0.900787353515625
1772697822476243200,1.8762431640625,-0.1078338623046875,0.3598785400390625,0.899810791015625
1772697822486292200,1.886292236328125,-0.108062744140625,0.35479736328125,0.8974151611328125
1772697822496340200,1.89634033203125,-0.1075897216796875,0.3475494384765625,0.902008056640625
1772697822506389200,1.90638916015625,-0.1056671142578125,0.344757080078125,0.903045654296875
1772697822516438300,1.916438232421875,-0.1101226806640625,0.3441925048828125,0.9026947021484375
1772697822526486300,1.926486328125,-0.1222686767578125,0.3467864990234375,0.90533447265625
1772697822536535300,1.936535400390625,-0.12982177734375,0.3490142822265625,0.9061737060546875
1772697822546583300,1.946583251953125,-0.136962890625,0.3467864990234375,0.91485595703125
1772697822556632300,1.95663232421875,-0.1490325927734375,0.34344482421875,0.92578125
1772697822566681000,1.96668115234375,-0.16290283203125,0.3368377685546875,0.92694091796875
1772697822576729000,1.97672900390625,-0.1764984130859375,0.3319244384765625,0.9297027587890625
1772697822586778000,1.986778076171875,-0.185394287109375,0.3247833251953125,0.941192626953125
1772697822596827400,1.996827392578125,-0.2097320556640625,0.315277099609375,0.9566192626953125
1772697822606875100,2.006875244140625,-0.2297515869140625,0.303558349609375,0.9685211181640625
1772697822616924200,2.016924072265625,-0.2296905517578125,0.2944488525390625,0.9762115478515625
1772697822626972200,2.02697216796875,-0.217193603515625,0.2991485595703125,0.982269287109375
1772697822637021200,2.037021240234375,-0.1962127685546875,0.314849853515625,0.97943115234375
1772697822647070200,2.0470703125,-0.1705474853515625,0.3351593017578125,0.963348388671875
1772697822657118200,2.0571181640625,-0.1463165283203125,0.3557281494140625,0.9558868408203125
1772697822667167200,2.067167236328125,-0.1312408447265625,0.3707733154296875,0.9451751708984375
1772697822677215000,2.077215087890625,-0.13250732421875,0.386566162109375,0.923675537109375
1772697822687264300,2.08726416015625,-0.137420654296875,0.3984832763671875,0.9069061279296875
1772697822697313000,2.09731298828125,-0.1420745849609375,0.401824951171875,0.9101409912109375
1772697822707361300,2.107361328125,-0.1441192626953125,0.396728515625,0.9250946044921875
1772697822717410000,2.11741015625,-0.130584716796875,0.38873291015625,0.948577880859375
1772697822727459000,2.127458984375,-0.0966796875,0.377838134765625,1.0075531005859375
1772697822737507000,2.137507080078125,-0.0388946533203125,0.4039764404296875,1.128814697265625
1772697822747556000,2.14755615234375,0.01068115234375,0.47845458984375,1.2833404541015625
1772697822757604000,2.15760400390625,0.03631591796875,0.543212890625,1.366180419921875
1772697822767653000,2.167653076171875,0.06280517578125,0.559326171875,1.371337890625
1772697822777702100,2.1777021484375,0.091278076171875,0.5335540771484375,1.3119354248046875
1772697822787750100,2.187750244140625,0.1071624755859375,0.4773406982421875,1.21844482421875
1772697822797799200,2.197799072265625,0.114654541015625,0.3896331787109375,1.102203369140625
1772697822807848200,2.20784814453125,0.112762451171875,0.29974365234375,0.98895263671875
1772697822817896200,2.217896240234375,0.093597412109375,0.2411346435546875,0.8821258544921875
1772697822827945200,2.2279453125,0.07061767578125,0.2283172607421875,0.799041748046875
1772697822837993200,2.2379931640625,0.0676116943359375,0.257110595703125,0.7769012451171875
1772697822848042200,2.248042236328125,0.115020751953125,0.3126220703125,0.8372955322265625
1772697822858091000,2.258091064453125,0.1754302978515625,0.372833251953125,0.8920135498046875
1772697822868139300,2.26813916015625,0.2004241943359375,0.4273223876953125,0.9012908935546875
1772697822878188000,2.27818798828125,0.181427001953125,0.4561309814453125,0.8833465576171875
1772697822888237300,2.2882373046875,0.07232666015625,0.4805755615234375,0.8432464599609375
1772697822898285000,2.29828515625,-0.0277099609375,0.5020294189453125,0.834014892578125
1772697822908334300,2.308334228515625,-0.047454833984375,0.4906768798828125,0.8284149169921875
1772697822918382000,2.318382080078125,-0.0346832275390625,0.4593658447265625,0.823699951171875
1772697822928431400,2.328431396484375,0.0008392333984375,0.4276275634765625,0.808319091796875
1772697822938479600,2.338479736328125,0.0546112060546875,0.4120941162109375,0.8134765625
1772697822948527600,2.348527587890625,0.105194091796875,0.415191650390625,0.83978271484375
1772697822958576400,2.358576416015625,0.1321258544921875,0.4322509765625,0.8718414306640625
1772697822968625700,2.368625732421875,0.1496124267578125,0.4394073486328125,0.9019622802734375
1772697822978673400,2.37867333984375,0.1528472900390625,0.4514312744140625,0.9249725341796875
1772697822988722700,2.38872265625,0.1566619873046875,0.4615936279296875,0.9453582763671875
1772697822998770400,2.3987705078125,0.159027099609375,0.4708404541015625,0.94964599609375
1772697823008819500,2.4088193359375,0.152496337890625,0.4732208251953125,0.945068359375
1772697823018868500,2.418868408203125,0.1430206298828125,0.4703216552734375,0.940093994140625
1772697823028916500,2.42891650390625,0.125030517578125,0.4638824462890625,0.9365386962890625
1772697823038965500,2.438965576171875,0.1060943603515625,0.4582366943359375,0.92462158203125
1772697823049013500,2.449013427734375,0.08935546875,0.4605865478515625,0.907073974609375
1772697823059062500,2.4590625,0.077117919921875,0.4577484130859375,0.8944244384765625
1772697823069111600,2.469111572265625,0.06658935546875,0.4439239501953125,0.8649749755859375
1772697823079159600,2.47915966796875,0.0536651611328125,0.432220458984375,0.825347900390625
1772697823089208600,2.48920849609375,0.0205078125,0.435455322265625,0.791748046875
1772697823099257300,2.49925732421875,-0.017547607421875,0.4421234130859375,0.78582763671875
1772697823109305600,2.5093056640625,-0.0465545654296875,0.4449005126953125,0.7843780517578125
1772697823119354400,2.519354248046875,-0.0694732666015625,0.4541778564453125,0.7910308837890625
1772697823129402600,2.529402587890625,-0.0677337646484375,0.471923828125,0.780426025390625
1772697823139451400,2.539451416015625,-0.036834716796875,0.4826507568359375,0.780853271484375
1772697823149500700,2.549500732421875,-0.0121612548828125,0.4950714111328125,0.792755126953125
1772697823159548400,2.55954833984375,-0.0040283203125,0.5049896240234375,0.81689453125
1772697823169597700,2.56959765625,-0.01080322265625,0.516204833984375,0.8385467529296875
1772697823179646500,2.579646484375,-0.0185394287109375,0.5229644775390625,0.853179931640625
1772697823189694700,2.58969482421875,-0.0242919921875,0.519317626953125,0.8420257568359375
1772697823199743500,2.599743408203125,-0.0349884033203125,0.5133209228515625,0.8135833740234375
1772697823209791700,2.609791748046875,-0.05548095703125,0.5006866455078125,0.798797607421875
1772697823219840500,2.619840576171875,-0.072723388671875,0.4920806884765625,0.802886962890625
1772697823229889500,2.6298896484375,-0.0866851806640625,0.4966278076171875,0.8103179931640625
1772697823239937500,2.6399375,-0.09765625,0.504547119140625,0.8242034912109375
1772697823249986600,2.649986572265625,-0.104400634765625,0.5066375732421875,0.8466033935546875
1772697823260035600,2.66003564453125,-0.112274169921875,0.506195068359375,0.8655853271484375
1772697823270083600,2.67008349609375,-0.12628173828125,0.498992919921875,0.8808441162109375
1772697823280132600,2.680132568359375,-0.142181396484375,0.4904632568359375,0.9039154052734375
1772697823290180400,2.690180419921875,-0.16046142578125,0.475433349609375,0.92572021484375
1772697823300229600,2.700229736328125,-0.1752777099609375,0.462310791015625,0.9239654541015625
1772697823310278700,2.710278564453125,-0.19097900390625,0.456298828125,0.907470703125
1772697823320326700,2.72032666015625,-0.2165069580078125,0.451263427734375,0.8707122802734375
1772697823330375400,2.73037548828125,-0.2251739501953125,0.4490509033203125,0.8451995849609375
1772697823340424400,2.740424560546875,-0.213897705078125,0.4477996826171875,0.8306121826171875
1772697823350472400,2.750472412109375,-0.1996612548828125,0.4500579833984375,0.818450927734375
1772697823360521500,2.760521484375,-0.194366455078125,0.455108642578125,0.816619873046875
1772697823370569500,2.770569580078125,-0.1990814208984375,0.45867919921875,0.7989654541015625
1772697823380618500,2.780618408203125,-0.1998748779296875,0.462554931640625,0.7864990234375
1772697823390667500,2.79066748046875,-0.1977081298828125,0.4636993408203125,0.7830810546875
1772697823400715500,2.800715576171875,-0.1966705322265625,0.4658203125,0.7853851318359375
1772697823410764500,2.8107646484375,-0.192718505859375,0.4628753662109375,0.7980804443359375
1772697823420813600,2.8208134765625,-0.1865081787109375,0.46026611328125,0.8068695068359375
1772697823430861600,2.830861572265625,-0.18548583984375,0.46087646484375,0.81640625
1772697823440910600,2.84091064453125,-0.191375732421875,0.4610748291015625,0.8241729736328125
1772697823450958600,2.85095849609375,-0.2044677734375,0.4650115966796875,0.833831787109375
1772697823461007600,2.861007568359375,-0.224456787109375,0.464202880859375,0.8499908447265625
1772697823471056400,2.871056396484375,-0.25537109375,0.46124267578125,0.86614990234375
1772697823481104600,2.881104736328125,-0.2880706787109375,0.456512451171875,0.883331298828125
1772697823491153400,2.8911533203125,-0.3208770751953125,0.4471282958984375,0.9101104736328125
1772697823501201700,2.90120166015625,-0.349517822265625,0.4310302734375,0.93438720703125
1772697823511250400,2.91125048828125,-0.3702239990234375,0.413970947265625,0.9456787109375
1772697823521299700,2.9212998046875,-0.3799285888671875,0.3978729248046875,0.939971923828125
1772697823531347500,2.931347412109375,-0.3669281005859375,0.39593505859375,0.9183197021484375
1772697823541396700,2.941396728515625,-0.3451385498046875,0.4010772705078125,0.8933563232421875
1772697823551445500,2.951445556640625,-0.323516845703125,0.42242431640625,0.8672332763671875
1772697823561493800,2.96149365234375,-0.3036956787109375,0.4405975341796875,0.865997314453125
1772697823571542500,2.97154248046875,-0.27557373046875,0.466766357421875,0.8866119384765625
1772697823581590500,2.981590576171875,-0.260986328125,0.5205078125,0.951171875
1772697823591639600,2.9916396484375,-0.2767181396484375,0.591888427734375,1.07037353515625
1772697823601688600,3.0016884765625,-0.2941436767578125,0.6374359130859375,1.1661376953125
1772697823611736600,3.011736572265625,-0.2859649658203125,0.6502685546875,1.1760711669921875
1772697823621785600,3.02178564453125,-0.2412872314453125,0.64471435546875,1.1135711669921875
1772697823631834600,3.031834716796875,-0.15924072265625,0.6193389892578125,1.0405120849609375
1772697823641882600,3.041882568359375,-0.06671142578125,0.5898895263671875,0.9679412841796875
1772697823651931600,3.051931640625,0.0018157958984375,0.550567626953125,0.88580322265625
1772697823661979400,3.0619794921875,0.0500946044921875,0.5284271240234375,0.797393798828125
1772697823672028400,3.0720283203125,0.0641937255859375,0.5196685791015625,0.717803955078125
1772697823682077700,3.08207763671875,0.0595550537109375,0.5132293701171875,0.6804656982421875
1772697823692125400,3.09212548828125,0.0565185546875,0.515472412109375,0.7124176025390625
1772697823702174700,3.1021748046875,0.0808258056640625,0.5377044677734375,0.76116943359375
1772697823712223500,3.112223388671875,0.089324951171875,0.56121826171875,0.766693115234375
1772697823722271500,3.122271484375,0.075958251953125,0.559234619140625,0.8000030517578125
1772697823732320500,3.132320556640625,0.0707550048828125,0.5226287841796875,0.8837127685546875
1772697823742368500,3.142368408203125,0.07598876953125,0.43975830078125,0.918670654296875
1772697823752417500,3.15241748046875,0.080810546875,0.369476318359375,0.9034881591796875
1772697823762466300,3.16246630859375,0.0966796875,0.3313140869140625,0.870574951171875
1772697823772514600,3.1725146484375,0.1289825439453125,0.3298797607421875,0.8163299560546875
1772697823782563300,3.182563232421875,0.1703338623046875,0.347747802734375,0.7859344482421875
1772697823792612600,3.192612548828125,0.1984405517578125,0.364227294921875,0.7908782958984375
1772697823802660400,3.202660400390625,0.199249267578125,0.37054443359375,0.80767822265625
1772697823812709600,3.212709716796875,0.17376708984375,0.3764495849609375,0.8364715576171875
1772697823822757400,3.22275732421875,0.1360321044921875,0.3851470947265625,0.8778228759765625
1772697823832806700,3.232806640625,0.099029541015625,0.397613525390625,0.914276123046875
1772697823842855400,3.24285546875,0.069305419921875,0.4125518798828125,0.938629150390625
1772697823852903700,3.252903564453125,0.044342041015625,0.42523193359375,0.96319580078125
1772697823862952400,3.262952392578125,0.0322723388671875,0.4366607666015625,0.9852447509765625
1772697823873001500,3.27300146484375,0.0240936279296875,0.445037841796875,0.9965667724609375
1772697823883049500,3.283049560546875,0.0118408203125,0.449188232421875,0.98822021484375
1772697823893098500,3.293098388671875,-0.0058441162109375,0.448333740234375,0.97015380859375
1772697823903146500,3.303146484375,-0.0325164794921875,0.4473876953125,0.94622802734375
1772697823913195500,3.313195556640625,-0.063262939453125,0.456634521484375,0.94677734375
1772697823923244500,3.32324462890625,-0.09063720703125,0.47601318359375,0.9358673095703125
1772697823933292500,3.33329248046875,-0.082183837890625,0.48406982421875,0.912933349609375
1772697823943341800,3.343341796875,-0.041778564453125,0.480682373046875,0.8846282958984375
1772697823953390600,3.353390625,-0.00091552734375,0.4644317626953125,0.8665313720703125
1772697823963438800,3.36343896484375,0.0207366943359375,0.4431304931640625,0.842437744140625
1772697823973487600,3.373487548828125,0.034820556640625,0.413970947265625,0.8202972412109375
1772697823983535900,3.383535888671875,0.0489959716796875,0.39227294921875,0.8124237060546875
1772697823993584600,3.393584716796875,0.0554656982421875,0.3759918212890625,0.81329345703125
1772697824003633700,3.403633544921875,0.0449066162109375,0.367218017578125,0.8137359619140625
1772697824013681700,3.413681640625,0.0258331298828125,0.36968994140625,0.8255462646484375
1772697824023730700,3.423730712890625,0.012298583984375,0.3731536865234375,0.838958740234375
1772697824033778700,3.43377880859375,0.010589599609375,0.378082275390625,0.8540191650390625
1772697824043827700,3.44382763671875,0.0124359130859375,0.388458251953125,0.877685546875
1772697824053876700,3.453876708984375,0.0076751708984375,0.39971923828125,0.90234375
1772697824063924700,3.4639248046875,-0.003143310546875,0.406158447265625,0.9137420654296875
1772697824073973800,3.473973876953125,-0.0096282958984375,0.406463623046875,0.9239501953125
1772697824084022800,3.484022705078125,-0.009521484375,0.397918701171875,0.9257965087890625
1772697824094070800,3.49407080078125,-0.0044708251953125,0.392303466796875,0.9384918212890625
1772697824104119800,3.504119873046875,0.0026092529296875,0.388824462890625,0.950958251953125
1772697824114168600,3.51416845703125,0.006072998046875,0.388824462890625,0.9620208740234375
1772697824124216600,3.524216552734375,0.0027923583984375,0.39581298828125,0.9584503173828125
1772697824134265600,3.534265625,-0.00531005859375,0.4003448486328125,0.9438629150390625
1772697824144313600,3.544313720703125,-0.0182647705078125,0.402191162109375,0.9302520751953125
1772697824154362600,3.554362548828125,-0.03277587890625,0.40380859375,0.9090728759765625
1772697824164412000,3.564411865234375,-0.046661376953125,0.4051361083984375,0.8902130126953125
1772697824174459600,3.574459716796875,-0.05328369140625,0.4045867919921875,0.884613037109375
1772697824184508700,3.5845087890625,-0.05859375,0.40374755859375,0.88409423828125
1772697824194556700,3.594556640625,-0.0696868896484375,0.4060516357421875,0.8896636962890625
1772697824204605700,3.604605712890625,-0.0890350341796875,0.4092254638671875,0.8985748291015625
1772697824214654700,3.61465478515625,-0.1080474853515625,0.405059814453125,0.9188995361328125
1772697824224702700,3.62470263671875,-0.112884521484375,0.3974761962890625,0.9262542724609375
1772697824234751700,3.634751708984375,-0.104583740234375,0.391693115234375,0.9220123291015625
1772697824244800500,3.644800537109375,-0.105621337890625,0.3798370361328125,0.9169921875
1772697824254848800,3.654848876953125,-0.1154327392578125,0.37164306640625,0.9081878662109375
1772697824264897500,3.6648974609375,-0.1284942626953125,0.3754425048828125,0.892425537109375
1772697824274945800,3.67494580078125,-0.12786865234375,0.37371826171875,0.883758544921875
1772697824284994600,3.68499462890625,-0.1183013916015625,0.3802337646484375,0.8802337646484375
1772697824295043600,3.695043701171875,-0.107635498046875,0.3873443603515625,0.890228271484375
1772697824305091600,3.705091552734375,-0.1007537841796875,0.386871337890625,0.90380859375
1772697824315140600,3.715140625,-0.0885162353515625,0.3773193359375,0.924774169921875
1772697824325189600,3.725189697265625,-0.0788726806640625,0.3552703857421875,0.9349365234375
1772697824335237600,3.735237548828125,-0.07952880859375,0.3374786376953125,0.9326324462890625
1772697824345286700,3.74528662109375,-0.090362548828125,0.343353271484375,0.9249114990234375
1772697824355334700,3.755334716796875,-0.1104888916015625,0.3639068603515625,0.9230499267578125
1772697824365383700,3.7653837890625,-0.12384033203125,0.38629150390625,0.920166015625
1772697824375432700,3.7754326171875,-0.12200927734375,0.39691162109375,0.910858154296875
1772697824385480700,3.785480712890625,-0.1166839599609375,0.39312744140625,0.9058837890625
1772697824395529700,3.79552978515625,-0.109466552734375,0.3773345947265625,0.901885986328125
1772697824405578500,3.80557861328125,-0.1070556640625,0.3560028076171875,0.902191162109375
1772697824415626800,3.815626708984375,-0.1000518798828125,0.337860107421875,0.9039154052734375
1772697824425675500,3.825675537109375,-0.097991943359375,0.326171875,0.904632568359375
1772697824435723800,3.835723876953125,-0.1007080078125,0.3167572021484375,0.9141845703125
1772697824445772500,3.8457724609375,-0.112152099609375,0.3060760498046875,0.9339752197265625
1772697824455821800,3.85582177734375,-0.1290283203125,0.3018951416015625,0.9518890380859375
1772697824465869600,3.86586962890625,-0.1403350830078125,0.3083038330078125,0.960205078125
1772697824475918800,3.8759189453125,-0.1459503173828125,0.314727783203125,0.96490478515625
1772697824485967600,3.885967529296875,-0.140289306640625,0.3226776123046875,0.98211669921875
1772697824496016000,3.896015869140625,-0.103179931640625,0.3369903564453125,1.0327606201171875
1772697824506064600,3.906064697265625,-0.04541015625,0.38427734375,1.1349945068359375
1772697824516112600,3.916112548828125,-0.002166748046875,0.458892822265625,1.266632080078125
1772697824526161700,3.92616162109375,0.0243988037109375,0.5008087158203125,1.333984375
1772697824536210700,3.936210693359375,0.0468902587890625,0.4927520751953125,1.3207855224609375
1772697824546258700,3.9462587890625,0.0731353759765625,0.4477386474609375,1.2342071533203125
1772697824556307700,3.9563076171875,0.0854949951171875,0.3790435791015625,1.1250762939453125
1772697824566355700,3.966355712890625,0.0811920166015625,0.3071136474609375,1.02349853515625
1772697824576404500,3.976404541015625,0.068359375,0.247528076171875,0.9249420166015625
1772697824586453800,3.986453857421875,0.0402984619140625,0.2176513671875,0.84197998046875
1772697824596501500,3.99650146484375,0.01165771484375,0.2270355224609375,0.8028106689453125
1772697824606550800,4.00655078125,0.0132293701171875,0.2662353515625,0.8353271484375
1772697824616599600,4.016599609375,0.0642547607421875,0.314727783203125,0.9290924072265625
1772697824626647800,4.026647705078125,0.111328125,0.369049072265625,1.0144195556640625
1772697824636696600,4.036696533203125,0.108306884765625,0.4107513427734375,1.053070068359375
1772697824646745600,4.04674560546875,0.05194091796875,0.4445648193359375,1.038421630859375
1772697824656793600,4.056793701171875,-0.018463134765625,0.4556732177734375,1.005767822265625
1772697824666842600,4.066842529296875,-0.044036865234375,0.4327545166015625,0.9653778076171875
1772697824676890600,4.076890625,-0.039215087890625,0.3976898193359375,0.917144775390625
1772697824686939600,4.086939697265625,-0.0128631591796875,0.3623199462890625,0.8761444091796875
1772697824696988700,4.09698876953125,0.0360107421875,0.3347015380859375,0.834991455078125
1772697824707036700,4.10703662109375,0.090606689453125,0.32843017578125,0.814453125
1772697824717085700,4.117085693359375,0.11981201171875,0.3285064697265625,0.8095703125
1772697824727133700,4.1271337890625,0.1264190673828125,0.3282012939453125,0.7984771728515625
1772697824737182700,4.1371826171875,0.124420166015625,0.3296966552734375,0.790008544921875
1772697824747231700,4.147231689453125,0.1177215576171875,0.338958740234375,0.7992095947265625
1772697824757279700,4.15727978515625,0.1107635498046875,0.360076904296875,0.8253936767578125
1772697824767328800,4.167328857421875,0.100433349609375,0.3793487548828125,0.8471527099609375
1772697824777377500,4.17737744140625,0.0852203369140625,0.4073486328125,0.8687591552734375
1772697824787425800,4.18742578125,0.0687713623046875,0.4380950927734375,0.9017486572265625
1772697824797474600,4.197474609375,0.0435638427734375,0.4549407958984375,0.9427490234375
1772697824807522800,4.207522705078125,0.0050506591796875,0.467498779296875,0.9763336181640625
1772697824817571600,4.217571533203125,-0.029022216796875,0.4559478759765625,0.9963836669921875
1772697824827620900,4.227620849609375,-0.0529632568359375,0.43621826171875,1.0001678466796875
1772697824837668600,4.237668701171875,-0.0648040771484375,0.4026641845703125,1.0083465576171875
1772697824847718000,4.2477177734375,-0.073333740234375,0.372161865234375,1.0029296875
1772697824857766700,4.2577666015625,-0.08648681640625,0.3573150634765625,0.9710540771484375
1772697824867814700,4.267814697265625,-0.1045989990234375,0.364501953125,0.923980712890625
1772697824877863700,4.27786376953125,-0.116912841796875,0.386322021484375,0.869598388671875
1772697824887911700,4.28791162109375,-0.109466552734375,0.406982421875,0.8321380615234375
1772697824897960700,4.297960693359375,-0.0830078125,0.4320220947265625,0.8014068603515625
1772697824908009700,4.308009765625,-0.0617523193359375,0.4700927734375,0.76678466796875
1772697824918057700,4.3180576171875,-0.0587005615234375,0.4890594482421875,0.75726318359375
1772697824928106800,4.328106689453125,-0.06854248046875,0.5091705322265625,0.773193359375
1772697824938155800,4.33815576171875,-0.07708740234375,0.525634765625,0.80908203125
1772697824948203500,4.34820361328125,-0.081207275390625,0.5395660400390625,0.8376007080078125
1772697824958252500,4.35825244140625,-0.084564208984375,0.56060791015625,0.8495941162109375
1772697824968300500,4.368300537109375,-0.0854034423828125,0.557220458984375,0.8605194091796875
1772697824978349600,4.378349609375,-0.0919189453125,0.54205322265625,0.854736328125
1772697824988398600,4.388398681640625,-0.0990142822265625,0.53057861328125,0.83856201171875
1772697824998446600,4.398446533203125,-0.1052093505859375,0.520050048828125,0.818572998046875
1772697825008495600,4.40849560546875,-0.11676025390625,0.507965087890625,0.81268310546875
1772697825018544600,4.418544677734375,-0.124237060546875,0.5027618408203125,0.8232421875
1772697825028592600,4.428592529296875,-0.147186279296875,0.5016632080078125,0.839691162109375
1772697825038641700,4.4386416015625,-0.1611785888671875,0.49615478515625,0.8566131591796875
1772697825048689700,4.448689697265625,-0.1820831298828125,0.494110107421875,0.860107421875
1772697825058738700,4.45873876953125,-0.1939239501953125,0.4781341552734375,0.864501953125
1772697825068787500,4.468787353515625,-0.1949920654296875,0.463226318359375,0.8589935302734375
1772697825078835700,4.478835693359375,-0.1905059814453125,0.4435882568359375,0.8626861572265625
1772697825088884500,4.488884521484375,-0.192962646484375,0.4234771728515625,0.8678131103515625
1772697825098933800,4.498933837890625,-0.2045440673828125,0.4031982421875,0.861419677734375
1772697825108981500,4.5089814453125,-0.211273193359375,0.3948822021484375,0.860015869140625
1772697825119030800,4.51903076171875,-0.229095458984375,0.3953857421875,0.8566741943359375
1772697825129078500,4.52907861328125,-0.2393798828125,0.395263671875,0.859527587890625
1772697825139127800,4.5391279296875,-0.25042724609375,0.39739990234375,0.851165771484375
1772697825149176600,4.549176513671875,-0.2623748779296875,0.411285400390625,0.822967529296875
1772697825159224800,4.559224853515625,-0.2790374755859375,0.4149627685546875,0.8086090087890625
1772697825169273600,4.569273681640625,-0.2887725830078125,0.4020843505859375,0.8149261474609375
1772697825179322600,4.579322509765625,-0.286468505859375,0.38653564453125,0.814544677734375
1772697825189370600,4.58937060546875,-0.30731201171875,0.3828277587890625,0.803741455078125
1772697825199419600,4.599419677734375,-0.34552001953125,0.3901519775390625,0.7990875244140625
1772697825209467600,4.609467529296875,-0.38433837890625,0.3945159912109375,0.817596435546875
1772697825219516400,4.619516357421875,-0.411712646484375,0.39703369140625,0.847900390625
1772697825229565700,4.629565673828125,-0.4325408935546875,0.3895263671875,0.867584228515625
1772697825239613400,4.639613525390625,-0.4461669921875,0.400909423828125,0.8797760009765625
1772697825249662700,4.649662841796875,-0.441497802734375,0.4237518310546875,0.8882598876953125
1772697825259710500,4.65971044921875,-0.425140380859375,0.456817626953125,0.88580322265625
1772697825269759700,4.669759765625,-0.39508056640625,0.461181640625,0.8994598388671875
1772697825279808500,4.67980859375,-0.35638427734375,0.4513702392578125,0.8936767578125
1772697825289856800,4.689856689453125,-0.31207275390625,0.44140625,0.890472412109375
1772697825299905500,4.699905517578125,-0.2810211181640625,0.427978515625,0.89324951171875
1772697825309954600,4.70995458984375,-0.264678955078125,0.426513671875,0.87969970703125
1772697825320002600,4.72000244140625,-0.258941650390625,0.4293060302734375,0.8680877685546875
1772697825330051600,4.730051513671875,-0.2540130615234375,0.4347076416015625,0.867095947265625
1772697825340100600,4.7401005859375,-0.222900390625,0.472076416015625,0.867919921875
1772697825350148600,4.750148681640625,-0.199554443359375,0.5491943359375,0.9210052490234375
1772697825360197600,4.76019775390625,-0.2275848388671875,0.6286773681640625,1.019500732421875
1772697825370245600,4.77024560546875,-0.260833740234375,0.6805877685546875,1.072906494140625
1772697825380294700,4.780294677734375,-0.277618408203125,0.6968536376953125,1.0484466552734375
1772697825390343700,4.79034375,-0.265106201171875,0.6576690673828125,1.0037994384765625
1772697825400391700,4.8003916015625,-0.2103271484375,0.6030731201171875,0.9605712890625
1772697825410440700,4.810440673828125,-0.135650634765625,0.5528106689453125,0.921875
1772697825420488700,4.82048876953125,-0.0778961181640625,0.4935455322265625,0.8802032470703125
1772697825430537700,4.830537841796875,-0.0510406494140625,0.4195556640625,0.8157806396484375
1772697825440586500,4.84058642578125,-0.0637359619140625,0.3675384521484375,0.72979736328125
1772697825450634800,4.850634765625,-0.0962982177734375,0.376251220703125,0.6375732421875
1772697825460683500,4.86068359375,-0.1136932373046875,0.4234466552734375,0.5922698974609375
1772697825470732800,4.87073291015625,-0.106048583984375,0.4957275390625,0.61163330078125
1772697825480780500,4.880780517578125,-0.081878662109375,0.5746002197265625,0.70672607421875
1772697825490829800,4.890829833984375,-0.0712432861328125,0.604827880859375,0.849212646484375
1772697825500877600,4.900877685546875,-0.0905609130859375,0.591796875,1.01739501953125
1772697825510926800,4.9109267578125,-0.1352081298828125,0.555877685546875,1.1272125244140625
1772697825520975600,4.9209755859375,-0.166595458984375,0.521331787109375,1.1329345703125
1772697825531023600,4.931023681640625,-0.1575775146484375,0.49822998046875,1.047821044921875
1772697825541072600,4.94107275390625,-0.089935302734375,0.4918365478515625,0.9369354248046875
1772697825551121700,4.95112158203125,-0.001190185546875,0.4955902099609375,0.848876953125
1772697825561169700,4.961169677734375,0.0480499267578125,0.4966278076171875,0.787200927734375
1772697825571218700,4.97121875,0.054595947265625,0.4798583984375,0.7720489501953125
1772697825581266700,4.9812666015625,0.0639190673828125,0.4636688232421875,0.783355712890625
1772697825591315700,4.991315673828125,0.0700531005859375,0.4366302490234375,0.81671142578125
1772697825601364700,5.00136474609375,0.058929443359375,0.4202423095703125,0.841278076171875
1772697825611412500,5.01141259765625,0.0458831787109375,0.4341278076171875,0.844512939453125
1772697825621461500,5.02146142578125,0.05322265625,0.446441650390625,0.8580322265625
1772697825631510800,5.0315107421875,0.0869293212890625,0.439910888671875,0.8696441650390625
1772697825641558500,5.04155859375,0.1197509765625,0.445465087890625,0.860595703125
1772697825651607600,5.051607666015625,0.1273651123046875,0.4477996826171875,0.8583831787109375
1772697825661655600,5.061655517578125,0.11590576171875,0.4265899658203125,0.8742828369140625
1772697825671704600,5.07170458984375,0.112701416015625,0.4002227783203125,0.8972625732421875
1772697825681753600,5.081753662109375,0.11968994140625,0.39044189453125,0.9164581298828125
1772697825691801600,5.091801513671875,0.1223297119140625,0.3994598388671875,0.9236907958984375
1772697825701850600,5.1018505859375,0.103118896484375,0.4203643798828125,0.9298553466796875
1772697825711899400,5.1118994140625,0.0659332275390625,0.4350738525390625,0.9374542236328125
1772697825721947600,5.12194775390625,0.0245361328125,0.443023681640625,0.935333251953125
1772697825731996400,5.131996337890625,-0.016143798828125,0.44110107421875,0.9281005859375
1772697825742044700,5.142044677734375,-0.040252685546875,0.436187744140625,0.9180450439453125
1772697825752093400,5.152093505859375,-0.0443115234375,0.432098388671875,0.9052734375
1772697825762142700,5.162142822265625,-0.0381011962890625,0.4312591552734375,0.8826904296875
1772697825772190500,5.1721904296875,-0.024658203125,0.420654296875,0.87457275390625
1772697825782239700,5.18223974609375,-0.0052032470703125,0.4058837890625,0.8773956298828125
1772697825792288500,5.19228857421875,0.006622314453125,0.3944244384765625,0.886993408203125
1772697825802336800,5.202336669921875,0.0062408447265625,0.3907928466796875,0.899810791015625
1772697825812385500,5.212385498046875,-0.005889892578125,0.3939056396484375,0.9101409912109375
1772697825822433800,5.222433837890625,-0.018707275390625,0.400634765625,0.91510009765625
1772697825832482600,5.232482666015625,-0.026885986328125,0.4091949462890625,0.9150543212890625
1772697825842531600,5.242531494140625,-0.03057861328125,0.4268341064453125,0.914337158203125
1772697825852579600,5.25257958984375,-0.038909912109375,0.4348907470703125,0.917144775390625
1772697825862628600,5.262628662109375,-0.04931640625,0.4325408935546875,0.929229736328125
1772697825872677600,5.272677734375,-0.06243896484375,0.434600830078125,0.9440155029296875
1772697825882725600,5.2827255859375,-0.061492919921875,0.4263153076171875,0.9493560791015625
1772697825892774700,5.292774658203125,-0.0565948486328125,0.4251251220703125,0.94451904296875
1772697825902822700,5.30282275390625,-0.0540618896484375,0.43280029296875,0.9335784912109375
1772697825912871700,5.31287158203125,-0.0433197021484375,0.436126708984375,0.92864990234375
1772697825922919700,5.322919677734375,-0.0315093994140625,0.4334259033203125,0.9232330322265625
1772697825932968700,5.33296875,-0.0222320556640625,0.4292449951171875,0.923492431640625
1772697825943017500,5.343017578125,-0.0054931640625,0.4275970458984375,0.9170074462890625
1772697825953065700,5.353065673828125,0.0098114013671875,0.4269561767578125,0.9066314697265625
1772697825963114500,5.363114501953125,0.0298614501953125,0.4256439208984375,0.904083251953125
1772697825973163500,5.37316357421875,0.044830322265625,0.425323486328125,0.90643310546875
1772697825983211500,5.38321142578125,0.0487213134765625,0.4194793701171875,0.9195404052734375
1772697825993260500,5.393260498046875,0.049652099609375,0.4203338623046875,0.925048828125
1772697826003308500,5.40330859375,0.05816650390625,0.4216461181640625,0.9340667724609375
1772697826013357600,5.413357666015625,0.0754547119140625,0.42230224609375,0.925262451171875
1772697826023406600,5.423406494140625,0.0765533447265625,0.4249114990234375,0.910430908203125
1772697826033454600,5.43345458984375,0.06488037109375,0.4363250732421875,0.8903350830078125
1772697826043503600,5.443503662109375,0.0529022216796875,0.4551849365234375,0.8848876953125
1772697826053552600,5.453552734375,0.0464324951171875,0.464263916015625,0.88128662109375
1772697826063600600,5.4636005859375,0.04541015625,0.461334228515625,0.9021759033203125
1772697826073649700,5.473649658203125,0.0469207763671875,0.4426116943359375,0.930877685546875
1772697826083697700,5.48369775390625,0.045684814453125,0.424530029296875,0.9559478759765625
1772697826093746700,5.49374658203125,0.0351715087890625,0.4139251708984375,0.970123291015625
1772697826103795500,5.50379541015625,0.0119781494140625,0.4079742431640625,0.978363037109375
1772697826113843500,5.513843505859375,-0.0150909423828125,0.4024810791015625,0.987335205078125
1772697826123892500,5.523892578125,-0.0256195068359375,0.3885955810546875,0.999176025390625
1772697826133941800,5.533941650390625,-0.0194091796875,0.3847198486328125,0.9906158447265625
1772697826143989500,5.543989501953125,0.0003814697265625,0.38543701171875,0.9689788818359375
1772697826154038800,5.554038818359375,0.0290985107421875,0.39642333984375,0.9612884521484375
1772697826164086500,5.56408642578125,0.058624267578125,0.413330078125,0.960052490234375
1772697826174135600,5.574135498046875,0.0710906982421875,0.4431610107421875,0.937896728515625
1772697826184184600,5.5841845703125,0.046112060546875,0.4737701416015625,0.8933563232421875
1772697826194232600,5.594232666015625,-0.000701904296875,0.4853973388671875,0.85394287109375
1772697826204281600,5.604281494140625,-0.026031494140625,0.4712066650390625,0.8409881591796875
1772697826214330400,5.614330322265625,-0.03076171875,0.46771240234375,0.8202056884765625
1772697826224378600,5.624378662109375,-0.0144805908203125,0.468994140625,0.8153076171875
1772697826234427400,5.634427490234375,0.012054443359375,0.4675445556640625,0.8305206298828125
1772697826244475600,5.6444755859375,0.030975341796875,0.4686431884765625,0.84478759765625
1772697826254524400,5.6545244140625,0.0367889404296875,0.467498779296875,0.850799560546875
1772697826264573700,5.66457373046875,0.0217437744140625,0.4600372314453125,0.8513641357421875
1772697826274621400,5.674621337890625,-0.021026611328125,0.4550323486328125,0.851409912109375
1772697826284670500,5.68467041015625,-0.0751190185546875,0.450897216796875,0.85943603515625
1772697826294719500,5.694719482421875,-0.127899169921875,0.4508514404296875,0.8683624267578125
1772697826304767500,5.704767578125,-0.1688385009765625,0.457611083984375,0.8765869140625
1772697826314816500,5.71481640625,-0.1929168701171875,0.4616241455078125,0.8872222900390625
1772697826324864500,5.724864501953125,-0.1918792724609375,0.4489898681640625,0.8989410400390625
1772697826334913500,5.73491357421875,-0.1724700927734375,0.42608642578125,0.9084625244140625
1772697826344962600,5.744962646484375,-0.1572265625,0.4107513427734375,0.908355712890625
1772697826355010600,5.755010498046875,-0.1458282470703125,0.4121551513671875,0.8946380615234375
1772697826365059600,5.7650595703125,-0.1338348388671875,0.42303466796875,0.8787841796875
1772697826375108600,5.775108642578125,-0.1111297607421875,0.436553955078125,0.868560791015625
1772697826385156600,5.785156494140625,-0.0829315185546875,0.4427642822265625,0.862274169921875
1772697826395205400,5.795205322265625,-0.0689849853515625,0.4474945068359375,0.851531982421875
1772697826405253600,5.805253662109375,-0.0722808837890625,0.449798583984375,0.8465423583984375
1772697826415302400,5.815302490234375,-0.0850372314453125,0.449981689453125,0.855560302734375
1772697826425351700,5.8253515625,-0.1100311279296875,0.450714111328125,0.879058837890625
1772697826435399400,5.8353994140625,-0.132965087890625,0.447540283203125,0.8974761962890625
1772697826445448700,5.84544873046875,-0.152496337890625,0.446502685546875,0.900848388671875
1772697826455497500,5.85549755859375,-0.17138671875,0.447998046875,0.8963623046875
1772697826465545700,5.865545654296875,-0.18109130859375,0.452484130859375,0.8897705078125
1772697826475594500,5.875594482421875,-0.1835784912109375,0.455718994140625,0.8834228515625
1772697826485643500,5.8856435546875,-0.172210693359375,0.463958740234375,0.8683929443359375
1772697826495691500,5.89569140625,-0.1551513671875,0.473907470703125,0.856689453125
1772697826505740500,5.905740478515625,-0.1356964111328125,0.4766693115234375,0.8552398681640625
1772697826515788500,5.91578857421875,-0.120819091796875,0.4768524169921875,0.8528594970703125
1772697826525837600,5.925837646484375,-0.112945556640625,0.47796630859375,0.863067626953125
1772697826535886600,5.935886474609375,-0.1115264892578125,0.478485107421875,0.8683319091796875
1772697826545934300,5.945934326171875,-0.11492919921875,0.4732818603515625,0.8736419677734375
1772697826555983600,5.955983642578125,-0.115203857421875,0.46453857421875,0.88104248046875
1772697826566031400,5.96603125,-0.114532470703125,0.4588470458984375,0.888916015625
1772697826576080600,5.97608056640625,-0.1129302978515625,0.4521026611328125,0.898529052734375
1772697826586129700,5.986129638671875,-0.113677978515625,0.4598388671875,0.8951873779296875
1772697826596177700,5.996177734375,-0.113067626953125,0.466461181640625,0.88983154296875
1772697826606226400,6.006226318359375,-0.107757568359375,0.472900390625,0.8935394287109375
1772697826616275500,6.016275390625,-0.1111602783203125,0.477874755859375,0.888092041015625
1772697826626323500,6.026323486328125,-0.1171722412109375,0.4749298095703125,0.8923187255859375
1772697826636372500,6.03637255859375,-0.113311767578125,0.4669647216796875,0.9048004150390625
1772697826646421500,6.04642138671875,-0.1108245849609375,0.4588623046875,0.9029388427734375
1772697826656469500,6.056469482421875,-0.1103973388671875,0.4565582275390625,0.8951873779296875
1772697826666518500,6.0665185546875,-0.1045989990234375,0.4566650390625,0.8946990966796875
1772697826676566500,6.07656640625,-0.1093292236328125,0.4698486328125,0.8861541748046875
1772697826686615600,6.086615478515625,-0.1166534423828125,0.4798736572265625,0.8769378662109375
1772697826696664600,6.09666455078125,-0.1183013916015625,0.476348876953125,0.8748321533203125
1772697826706712600,6.106712646484375,-0.121551513671875,0.4678497314453125,0.865997314453125
1772697826716761600,6.11676171875,-0.1219329833984375,0.4632568359375,0.8552703857421875
1772697826726810400,6.126810302734375,-0.1242523193359375,0.4630126953125,0.85479736328125
1772697826736858600,6.136858642578125,-0.129791259765625,0.4644775390625,0.85894775390625
1772697826746907400,6.146907470703125,-0.13494873046875,0.4664764404296875,0.8674163818359375
1772697826756955600,6.15695556640625,-0.13726806640625,0.465667724609375,0.8715057373046875
1772697826767004400,6.16700439453125,-0.1454620361328125,0.4693145751953125,0.864898681640625
1772697826777053700,6.1770537109375,-0.155364990234375,0.4715118408203125,0.8558197021484375
1772697826787101400,6.187101318359375,-0.1612091064453125,0.4669189453125,0.855316162109375
1772697826797150700,6.197150634765625,-0.156036376953125,0.4600067138671875,0.8590850830078125
1772697826807199500,6.207199462890625,-0.1537933349609375,0.456787109375,0.8643341064453125
1772697826817247700,6.217247802734375,-0.158935546875,0.4600372314453125,0.86651611328125
1772697826827296500,6.227296630859375,-0.165924072265625,0.46844482421875,0.8720245361328125
1772697826837344800,6.2373447265625,-0.1727752685546875,0.4710235595703125,0.8781890869140625
1772697826847393500,6.2473935546875,-0.1818389892578125,0.46368408203125,0.88653564453125
1772697826857442600,6.257442626953125,-0.17938232421875,0.4575347900390625,0.883575439453125
1772697826867490600,6.267490478515625,-0.1671142578125,0.4586181640625,0.8823699951171875
1772697826877539600,6.27753955078125,-0.158477783203125,0.4669189453125,0.8831024169921875
1772697826887588600,6.287588623046875,-0.1518402099609375,0.467926025390625,0.8789825439453125
1772697826897636600,6.29763671875,-0.1509857177734375,0.4691925048828125,0.884368896484375
1772697826907685600,6.307685546875,-0.1566314697265625,0.469940185546875,0.875823974609375
1772697826917733400,6.3177333984375,-0.16259765625,0.4693756103515625,0.8729705810546875
1772697826927782700,6.32778271484375,-0.1724395751953125,0.470458984375,0.8744964599609375
1772697826937831700,6.337831787109375,-0.188232421875,0.4686279296875,0.8787384033203125
1772697826947879700,6.347879638671875,-0.2007598876953125,0.4627532958984375,0.884368896484375
1772697826957928700,6.3579287109375,-0.205169677734375,0.4506683349609375,0.882781982421875
1772697826967977700,6.367977783203125,-0.14031982421875,0.439117431640625,0.8711700439453125
1772697826978025700,6.378025634765625,-0.0818023681640625,0.435577392578125,0.8966522216796875
1772697826988074800,6.38807470703125,-0.1022186279296875,0.4340057373046875,0.911346435546875
1772697826998123500,6.39812353515625,-0.154815673828125,0.444488525390625,0.8904266357421875
1772697827008171800,6.408171875,-0.2059326171875,0.4503936767578125,0.86981201171875
1772697827018220500,6.418220458984375,-0.2525787353515625,0.4538421630859375,0.8534698486328125
1772697827028268800,6.428268798828125,-0.2855987548828125,0.45977783203125,0.8407440185546875
1772697827038317600,6.438317626953125,-0.28216552734375,0.460540771484375,0.8509674072265625
1772697827048366800,6.448366943359375,-0.25482177734375,0.4544525146484375,0.8661041259765625
1772697827058414600,6.45841455078125,-0.2294921875,0.4405975341796875,0.86602783203125
1772697827068463900,6.4684638671875,-0.2075653076171875,0.4419708251953125,0.8684234619140625
1772697827078511600,6.47851171875,-0.191253662109375,0.4437103271484375,0.876220703125
