time,seconds_elapsed,z,y,x
1772697820675027500,0.07502734375,-0.04618507996201515,-0.024163398891687393,0.046381399035453796
1772697820685075200,0.0850751953125,-0.05015931650996208,-0.025972211733460426,0.04518362134695053
1772697820695124200,0.095124267578125,-0.05659351497888565,-0.011679292656481266,0.05120183154940605
1772697820705172200,0.105172119140625,-0.059113021939992905,0.004354266915470362,0.05902054160833359
1772697820715221200,0.11522119140625,-0.05822379142045975,0.007084273267537355,0.06041311100125313
1772697820725270300,0.125270263671875,-0.06194715201854706,0.0038266913034021854,0.04733709990978241
1772697820735318300,0.135318359375,-0.06244436651468277,0.013663077726960182,0.04211464524269104
1772697820745367300,0.1453671875,-0.06691448390483856,0.027752265334129333,0.03624993935227394
1772697820755415300,0.155415283203125,-0.07012678682804108,0.03796415403485298,0.02963598072528839
1772697820765464300,0.16546435546875,-0.07230541855096817,0.03923714533448219,0.03357373923063278
1772697820775513000,0.17551318359375,-0.07731455564498901,0.034076206386089325,0.04618833214044571
1772697820785561300,0.185561279296875,-0.079242043197155,0.02904602885246277,0.07295896857976913
1772697820795610000,0.195610107421875,-0.08395211398601532,0.03271426633000374,0.0956626832485199
1772697820805659400,0.205659423828125,-0.10152599960565567,0.04312855750322342,0.1054815948009491
1772697820815707100,0.21570703125,-0.1150125116109848,0.04203479737043381,0.1135733425617218
1772697820825756400,0.22575634765625,-0.1259808987379074,0.039137013256549835,0.13147857785224915
1772697820835804200,0.23580419921875,-0.13894888758659363,0.06015175208449364,0.15504755079746246
1772697820845853400,0.245853515625,-0.1443396508693695,0.0977739617228508,0.1830686777830124
1772697820855902200,0.255902099609375,-0.15042684972286224,0.13803242146968842,0.20722435414791107
1772697820865950500,0.265950439453125,-0.1623283475637436,0.1761758178472519,0.21317507326602936
1772697820875999200,0.275999267578125,-0.16974392533302307,0.18764393031597137,0.20157407224178314
1772697820886047500,0.286047607421875,-0.1878810077905655,0.216833233833313,0.19448618590831757
1772697820896096300,0.29609619140625,-0.20764538645744324,0.2222501039505005,0.20527465641498566
1772697820906145300,0.306145263671875,-0.2197219729423523,0.20285403728485107,0.2196655571460724
1772697820916193300,0.316193359375,-0.22864170372486115,0.1794794797897339,0.23144285380840302
1772697820926242300,0.3262421875,-0.24077282845973969,0.1367245614528656,0.2537092864513397
1772697820936291300,0.336291259765625,-0.24446263909339905,0.09081272035837173,0.2735506296157837
1772697820946339300,0.34633935546875,-0.22947382926940918,0.04552353546023369,0.2855275571346283
1772697820956388400,0.356388427734375,-0.21781025826931,-0.009180986322462559,0.30151239037513733
1772697820966436400,0.366436279296875,-0.22367672622203827,-0.06882008165121078,0.31171295046806335
1772697820976485400,0.3764853515625,-0.23111572861671448,-0.14453855156898499,0.3417297303676605
1772697820986534400,0.386534423828125,-0.22481095790863037,-0.1874689757823944,0.3600594699382782
1772697820996582100,0.39658203125,-0.2265324741601944,-0.1867685467004776,0.37014245986938477
1772697821006631400,0.40663134765625,-0.22395528852939606,-0.12106703221797943,0.38450077176094055
1772697821016680400,0.416680419921875,-0.210677832365036,-0.008680576458573341,0.39044228196144104
1772697821026728400,0.426728515625,-0.19726914167404175,0.11490101367235184,0.3937132656574249
1772697821036777500,0.436777587890625,-0.19168049097061157,0.17972715198993683,0.3962821364402771
1772697821046825500,0.446825439453125,-0.17744147777557373,0.17173314094543457,0.4088013768196106
1772697821056874200,0.456874267578125,-0.15868084132671356,0.10023579001426697,0.406898558139801
1772697821066923300,0.46692333984375,-0.1401001214981079,-0.0012828409671783447,0.4102514088153839
1772697821076971300,0.47697119140625,-0.14219364523887634,-0.07226221263408661,0.4225679934024811
1772697821087020300,0.487020263671875,-0.151143878698349,-0.08733544498682022,0.42304477095603943
1772697821097068300,0.497068359375,-0.15754292905330658,-0.0572475828230381,0.40296852588653564
1772697821107117300,0.507117431640625,-0.16727066040039062,-0.00048629892989993095,0.3720788061618805
1772697821117166300,0.517166259765625,-0.17438502609729767,0.0559343658387661,0.35747963190078735
1772697821127214300,0.52721435546875,-0.17266947031021118,0.09621893614530563,0.3747827410697937
1772697821137263400,0.537263427734375,-0.1709863543510437,0.10260625928640366,0.4055177569389343
1772697821147312400,0.5473125,-0.17160281538963318,0.07907591015100479,0.4456595480442047
1772697821157360400,0.5573603515625,-0.18405921757221222,0.05785931274294853,0.4970335066318512
1772697821167409400,0.567409423828125,-0.20228348672389984,0.017686326056718826,0.5345829725265503
1772697821177457400,0.57745751953125,-0.22924640774726868,-0.060302481055259705,0.5279130935668945
1772697821187506400,0.58750634765625,-0.2443074882030487,-0.17035150527954102,0.4853619337081909
1772697821197555200,0.59755517578125,-0.23540747165679932,-0.2663022577762604,0.4220450222492218
1772697821207603500,0.607603515625,-0.21857964992523193,-0.3005678355693817,0.366889089345932
1772697821217652200,0.61765234375,-0.2127518504858017,-0.2585040032863617,0.33883723616600037
1772697821227701500,0.627701416015625,-0.213925302028656,-0.1869802474975586,0.330961674451828
1772697821237749200,0.637749267578125,-0.21295671164989471,-0.10802897810935974,0.33054035902023315
1772697821247798500,0.647798583984375,-0.22086308896541595,-0.04357331246137619,0.3268222510814667
1772697821257846300,0.65784619140625,-0.23660849034786224,-0.02138092741370201,0.3122529089450836
1772697821267895600,0.6678955078125,-0.24597015976905823,-0.040952760726213455,0.29178228974342346
1772697821277944300,0.6779443359375,-0.24857951700687408,-0.07217033952474594,0.25844934582710266
1772697821287992600,0.68799267578125,-0.229666069149971,-0.09389054775238037,0.23235087096691132
1772697821298041300,0.698041259765625,-0.19454988837242126,-0.07577413320541382,0.20761117339134216
1772697821308090400,0.70809033203125,-0.14137588441371918,-0.04079803451895714,0.1747598648071289
1772697821318138400,0.718138427734375,-0.10102473199367523,-0.038244061172008514,0.11307919025421143
1772697821328187400,0.7281875,-0.0836443081498146,-0.04658427834510803,0.05491747707128525
1772697821338235400,0.7382353515625,-0.09213659912347794,-0.0656871348619461,0.006298008840531111
1772697821348284400,0.748284423828125,-0.0993267074227333,-0.07676135003566742,-0.015177462249994278
1772697821358333400,0.75833349609375,-0.09349758177995682,-0.06075841933488846,-0.023398375138640404
1772697821368381400,0.76838134765625,-0.08339562267065048,-0.028625518083572388,-0.02730323188006878
1772697821378430500,0.778430419921875,-0.07597818225622177,0.009190836921334267,-0.029277166351675987
1772697821388479500,0.7884794921875,-0.06855003535747528,0.029916882514953613,-0.04614294320344925
1772697821398527500,0.798527587890625,-0.06643149256706238,0.013074783608317375,-0.059234775602817535
1772697821408576500,0.808576416015625,-0.0696430653333664,-0.023786012083292007,-0.07651327550411224
1772697821418624500,0.81862451171875,-0.0556071400642395,-0.045667607337236404,-0.08976196497678757
1772697821428673300,0.82867333984375,-0.04734547436237335,-0.05963616818189621,-0.10225880891084671
1772697821438722300,0.838722412109375,-0.04205217584967613,-0.09526074677705765,-0.10841577500104904
1772697821448770300,0.848770263671875,-0.030271518975496292,-0.0974850207567215,-0.11057503521442413
1772697821458819300,0.8588193359375,-0.018869195133447647,-0.05975734442472458,-0.11561160534620285
1772697821468868600,0.86886865234375,-0.003902823431417346,-0.01008857972919941,-0.12466561794281006
1772697821478916400,0.878916259765625,0.0031063503120094538,0.01662319339811802,-0.1582733690738678
1772697821488965400,0.88896533203125,-0.008861251175403595,-0.01216558925807476,-0.269070565700531
1772697821499013400,0.899013427734375,0.0010113533353433013,-0.03221466392278671,-0.39763227105140686
1772697821509062400,0.9090625,0.012895018793642521,-0.0554499477148056,-0.5243931412696838
1772697821519111400,0.919111328125,0.032980311661958694,-0.04726552218198776,-0.6270737051963806
1772697821529159400,0.929159423828125,0.06917261332273483,0.01996411383152008,-0.6733234524726868
1772697821539208400,0.93920849609375,0.11997480690479279,0.13967984914779663,-0.6689202189445496
1772697821549256400,0.94925634765625,0.1844208538532257,0.28622058033943176,-0.5904379487037659
1772697821559305500,0.959305419921875,0.19606845080852509,0.28356167674064636,-0.47396326065063477
1772697821569354200,0.969354248046875,0.16912733018398285,0.07648544758558273,-0.383871465921402
1772697821579402500,0.979402587890625,0.16808949410915375,-0.07078017294406891,-0.35316041111946106
1772697821589451300,0.989451171875,0.19093361496925354,-0.08354923129081726,-0.3803684413433075
1772697821599500500,0.99950048828125,0.22345827519893646,-0.01691560633480549,-0.4431266486644745
1772697821609548300,1.00954833984375,0.2503018081188202,0.07288245856761932,-0.4832671582698822
1772697821619597300,1.019597412109375,0.271051287651062,0.14407221972942352,-0.48144984245300293
1772697821629646300,1.029646240234375,0.29402074217796326,0.20088385045528412,-0.4423884451389313
1772697821639694300,1.0396943359375,0.3200414180755615,0.24946551024913788,-0.40318912267684937
1772697821649743400,1.049743408203125,0.3401830196380615,0.25844380259513855,-0.39044520258903503
1772697821659791400,1.059791259765625,0.36070960760116577,0.22228339314460754,-0.3975957930088043
1772697821669840400,1.06984033203125,0.38071778416633606,0.16426163911819458,-0.4048461318016052
1772697821679889400,1.079889404296875,0.3885621130466461,0.12630414962768555,-0.40759745240211487
1772697821689937400,1.0899375,0.39407867193222046,0.07241240888834,-0.39822816848754883
1772697821699986400,1.099986328125,0.38023263216018677,-0.012868663296103477,-0.3920046389102936
1772697821710034400,1.110034423828125,0.3562473654747009,-0.04499783739447594,-0.3943278193473816
1772697821720083500,1.12008349609375,0.33101844787597656,-0.022966036573052406,-0.4219554662704468
1772697821730132200,1.13013232421875,0.27987557649612427,0.06827705353498459,-0.4757310748100281
1772697821740180500,1.140180419921875,0.24043363332748413,0.1529245674610138,-0.5010601282119751
1772697821750229200,1.150229248046875,0.23356598615646362,0.17078718543052673,-0.4919663369655609
1772697821760278500,1.160278564453125,0.22987458109855652,0.13856586813926697,-0.4559662640094757
1772697821770326300,1.170326171875,0.19933685660362244,0.09098156541585922,-0.4393470883369446
1772697821780375600,1.18037548828125,0.1387059986591339,0.04022198170423508,-0.4436188042163849
1772697821790423300,1.19042333984375,0.08279607445001602,-0.027020694687962532,-0.450873464345932
1772697821800472600,1.20047265625,0.061878807842731476,-0.1341167837381363,-0.4336646497249603
1772697821810521300,1.210521240234375,0.03528713434934616,-0.2875926196575165,-0.38749420642852783
1772697821820569300,1.2205693359375,0.03782033175230026,-0.47030729055404663,-0.3211947977542877
1772697821830618400,1.230618408203125,0.06320745497941971,-0.6268356442451477,-0.24438519775867462
1772697821840667400,1.24066748046875,0.08905130624771118,-0.6519772410392761,-0.1463148295879364
1772697821850715400,1.25071533203125,0.10034982115030289,-0.48816409707069397,-0.04741739481687546
1772697821860764200,1.26076416015625,0.09149427711963654,-0.18294905126094818,0.008355055935680866
1772697821870812400,1.2708125,0.11338337510824203,0.12107956409454346,-0.012690621428191662
1772697821880861200,1.280861083984375,0.1761641949415207,0.32822850346565247,-0.05387294292449951
1772697821890910500,1.290910400390625,0.2505500316619873,0.42550790309906006,-0.05335173010826111
1772697821900958200,1.300958251953125,0.31351619958877563,0.4315681755542755,0.01649951934814453
1772697821911007500,1.311007568359375,0.34722355008125305,0.4294815957546234,0.12976989150047302
1772697821921056300,1.32105615234375,0.36066001653671265,0.4614086449146271,0.26412713527679443
1772697821931104500,1.3311044921875,0.34001198410987854,0.5113508701324463,0.3285242021083832
1772697821941154300,1.341154296875,0.3089560866355896,0.6127222180366516,0.33011889457702637
1772697821951202000,1.3512021484375,0.2729579210281372,0.7348129749298096,0.29894402623176575
1772697821961251300,1.361251220703125,0.24196910858154297,0.8279261589050293,0.25666579604148865
1772697821971300000,1.371300048828125,0.2045586109161377,0.8608101010322571,0.19400733709335327
1772697821981348400,1.381348388671875,0.16750019788742065,0.8428100347518921,0.15303246676921844
1772697821991397000,1.391397216796875,0.15748053789138794,0.7852228879928589,0.13534921407699585
1772697822001446100,1.401446044921875,0.17456471920013428,0.6995591521263123,0.14040789008140564
1772697822011494100,1.411494140625,0.2048966884613037,0.5978730320930481,0.14565737545490265
1772697822021543200,1.421543212890625,0.22501499950885773,0.5240057110786438,0.13899600505828857
1772697822031591200,1.431591064453125,0.24536357820034027,0.5230040550231934,0.13651078939437866
1772697822041640200,1.44164013671875,0.27914097905158997,0.5183118581771851,0.13340261578559875
1772697822051689200,1.451689208984375,0.2934848666191101,0.5173190832138062,0.14687083661556244
1772697822061737000,1.461737060546875,0.27075639367103577,0.5424315929412842,0.15792402625083923
1772697822071786200,1.4717861328125,0.23133797943592072,0.5770100355148315,0.16076934337615967
1772697822081835300,1.481835205078125,0.21103617548942566,0.6026397943496704,0.17435146868228912
1772697822091883300,1.49188330078125,0.19135156273841858,0.5838213562965393,0.2146846204996109
1772697822101932300,1.501932373046875,0.17014561593532562,0.5156673192977905,0.2595016062259674
1772697822111980300,1.511980224609375,0.15491096675395966,0.44679826498031616,0.32707327604293823
1772697822122029000,1.522029052734375,0.1419869065284729,0.35234126448631287,0.42054569721221924
1772697822132078000,1.532078125,0.1371941715478897,0.28073152899742126,0.5234211087226868
1772697822142126000,1.5421259765625,0.13323459029197693,0.2599303722381592,0.6178895235061646
1772697822152175000,1.552175048828125,0.13274887204170227,0.26827964186668396,0.6899022459983826
1772697822162223000,1.56222314453125,0.12267174571752548,0.316358745098114,0.7496968507766724
1772697822172272000,1.572272216796875,0.11704304069280624,0.37826234102249146,0.7993441224098206
1772697822182321200,1.582321044921875,0.11866171658039093,0.4379544258117676,0.8342962265014648
1772697822192369200,1.592369140625,0.1387842297554016,0.510029137134552,0.8530054688453674
1772697822202418200,1.602418212890625,0.1673000305891037,0.5822075009346008,0.8621931076049805
1772697822212467200,1.61246728515625,0.17781153321266174,0.6513170599937439,0.8517375588417053
1772697822222515200,1.62251513671875,0.17096561193466187,0.7033663988113403,0.8239083290100098
1772697822232564200,1.632564208984375,0.16822510957717896,0.7425884008407593,0.7905282378196716
1772697822242612200,1.6426123046875,0.17704789340496063,0.7347528338432312,0.7385361790657043
1772697822252661200,1.6526611328125,0.17710652947425842,0.6738372445106506,0.6851631999015808
1772697822262710000,1.6627099609375,0.15716558694839478,0.5929781198501587,0.6335380673408508
1772697822272758300,1.67275830078125,0.12692491710186005,0.5206783413887024,0.5824392437934875
1772697822282807000,1.68280712890625,0.08967741578817368,0.4669959545135498,0.5368832349777222
1772697822292856300,1.692856201171875,0.054818976670503616,0.4516143202781677,0.5073834657669067
1772697822302904000,1.702904052734375,0.028531448915600777,0.4471556842327118,0.4891752004623413
1772697822312953300,1.712953369140625,0.005867204163223505,0.43302279710769653,0.46165943145751953
1772697822323001000,1.7230009765625,-0.010380209423601627,0.3966732919216156,0.43445125222206116
1772697822333050400,1.73305029296875,-0.023705391213297844,0.36200669407844543,0.41749250888824463
1772697822343099100,1.74309912109375,-0.04317150264978409,0.3473561108112335,0.4198286235332489
1772697822353147400,1.7531474609375,-0.0727546438574791,0.35802367329597473,0.43903622031211853
1772697822363196200,1.763196044921875,-0.09312542527914047,0.3930322527885437,0.4508228302001953
1772697822373245200,1.7732451171875,-0.10937187820672989,0.44056034088134766,0.4527640640735626
1772697822383293200,1.783293212890625,-0.11045552045106888,0.47329726815223694,0.4541856646537781
1772697822393342200,1.79334228515625,-0.10384869575500488,0.5126947164535522,0.4508042335510254
1772697822403390200,1.80339013671875,-0.10014291107654572,0.5371236205101013,0.45100903511047363
1772697822413439200,1.813439208984375,-0.09582981467247009,0.5755130648612976,0.4647692143917084
1772697822423488300,1.82348828125,-0.11569646000862122,0.598126232624054,0.4826376736164093
1772697822433536300,1.833536376953125,-0.12851355969905853,0.6302037835121155,0.5043451189994812
1772697822443585300,1.843585205078125,-0.1399395912885666,0.6417025327682495,0.5159285068511963
1772697822453633000,1.853633056640625,-0.14699845016002655,0.6303321719169617,0.5229899883270264
1772697822463682000,1.86368212890625,-0.14779287576675415,0.5961813926696777,0.5143866539001465
1772697822473731300,1.8737314453125,-0.14106887578964233,0.5482761859893799,0.5029505491256714
1772697822483779000,1.883779052734375,-0.14127154648303986,0.5075351595878601,0.4897495210170746
1772697822493828000,1.893828125,-0.142988383769989,0.48889967799186707,0.47221216559410095
1772697822503877000,1.903877197265625,-0.15446500480175018,0.4917484521865845,0.46408259868621826
1772697822513925000,1.913925048828125,-0.16203972697257996,0.4866655170917511,0.47002825140953064
1772697822523974100,1.92397412109375,-0.17033973336219788,0.4720013737678528,0.49775415658950806
1772697822534022100,1.934022216796875,-0.18252208828926086,0.4224279522895813,0.5236679911613464
1772697822544071200,1.9440712890625,-0.19169162213802338,0.34376081824302673,0.5479671955108643
1772697822554120000,1.954119873046875,-0.19367919862270355,0.2558560073375702,0.5687133073806763
1772697822564168200,1.964168212890625,-0.1923430860042572,0.2208641916513443,0.6033560037612915
1772697822574217000,1.974217041015625,-0.1841348558664322,0.180086150765419,0.6282376050949097
1772697822584266200,1.984266357421875,-0.16155870258808136,0.14741608500480652,0.6382694840431213
1772697822594314000,1.99431396484375,-0.14077123999595642,0.18165872991085052,0.6897240281105042
1772697822604363300,2.00436328125,-0.1283997893333435,0.24000991880893707,0.7563973069190979
1772697822614411000,2.014410888671875,-0.12770363688468933,0.30263444781303406,0.8095965385437012
1772697822624460300,2.024460205078125,-0.12015464156866074,0.3645082116127014,0.8505674004554749
1772697822634509000,2.034509033203125,-0.12765735387802124,0.3970746695995331,0.8881409168243408
1772697822644557300,2.044557373046875,-0.13477571308612823,0.4047967791557312,0.9048088192939758
1772697822654606000,2.054606201171875,-0.13198994100093842,0.4098000228404999,0.9103145599365234
1772697822664655000,2.064655029296875,-0.13313403725624084,0.384115993976593,0.9237033128738403
1772697822674703000,2.074703125,-0.13920897245407104,0.3094523847103119,0.9526251554489136
1772697822684752100,2.084752197265625,-0.13439904153347015,0.19644807279109955,0.9987186193466187
1772697822694800100,2.094800048828125,-0.11596741527318954,0.06971730291843414,1.050910472869873
1772697822704849200,2.10484912109375,-0.0847168117761612,-0.047438353300094604,1.088570237159729
1772697822714898200,2.114898193359375,-0.05245538055896759,-0.11800680309534073,1.0954477787017822
1772697822724946200,2.1249462890625,0.005187938455492258,-0.08115264773368835,1.0377438068389893
1772697822734995200,2.1349951171875,0.1121118813753128,0.07821730524301529,0.8933085799217224
1772697822745044200,2.145044189453125,0.2516351640224457,0.3164093494415283,0.6896086931228638
1772697822755092200,2.15509228515625,0.35858386754989624,0.6224420070648193,0.4905729591846466
1772697822765141200,2.165141357421875,0.424545556306839,0.8836448192596436,0.3245043456554413
1772697822775189200,2.175189208984375,0.4372742772102356,1.0560733079910278,0.21512086689472198
1772697822785238300,2.18523828125,0.39004284143447876,1.2144978046417236,0.18009763956069946
1772697822795287000,2.195287109375,0.2755841314792633,1.313974380493164,0.20469370484352112
1772697822805335300,2.205335205078125,0.13074596226215363,1.345502495765686,0.29741060733795166
1772697822815384000,2.215384033203125,-0.02978465147316456,1.228813648223877,0.4328464865684509
1772697822825432000,2.22543212890625,-0.1817435473203659,0.9299071431159973,0.5865495204925537
1772697822835481000,2.235481201171875,-0.2618369460105896,0.5005134344100952,0.7005118727684021
1772697822845530400,2.2455302734375,-0.22512289881706238,0.0711679458618164,0.6797341704368591
1772697822855578000,2.255578125,-0.14924366772174835,-0.1969684660434723,0.5411032438278198
1772697822865627400,2.26562744140625,-0.12450715154409409,-0.2791730463504791,0.35263532400131226
1772697822875676200,2.27567626953125,-0.18505525588989258,-0.3215599060058594,0.22921600937843323
1772697822885724200,2.28572412109375,-0.2750871181488037,-0.4493010938167572,0.2871229946613312
1772697822895773200,2.295773193359375,-0.335544228553772,-0.5277080535888672,0.44234761595726013
1772697822905821200,2.3058212890625,-0.36662039160728455,-0.4823988676071167,0.5658496022224426
1772697822915870200,2.3158701171875,-0.37585538625717163,-0.336942583322525,0.6166526079177856
1772697822925919000,2.3259189453125,-0.35803884267807007,-0.16736529767513275,0.6066343188285828
1772697822935967200,2.33596728515625,-0.32963788509368896,-0.12116689234972,0.5133627653121948
1772697822946015500,2.346015380859375,-0.28529787063598633,-0.11032462865114212,0.38488391041755676
1772697822956064500,2.356064453125,-0.2453465461730957,-0.12373445928096771,0.23474302887916565
1772697822966112500,2.366112548828125,-0.21073050796985626,-0.16092416644096375,0.09558939188718796
1772697822976161500,2.37616162109375,-0.18489199876785278,-0.18436531722545624,-0.04185733571648598
1772697822986209500,2.38620947265625,-0.17576107382774353,-0.2000095248222351,-0.18386560678482056
1772697822996258600,2.396258544921875,-0.167427197098732,-0.22831201553344727,-0.30929601192474365
1772697823006307600,2.4063076171875,-0.14302651584148407,-0.28872475028038025,-0.42699068784713745
1772697823016355600,2.41635546875,-0.09149706363677979,-0.37332218885421753,-0.5404359102249146
1772697823026404600,2.426404541015625,-0.036190927028656006,-0.4634864330291748,-0.6389491558074951
1772697823036453400,2.436453369140625,-0.0007707785116508603,-0.5370231866836548,-0.7230175137519836
1772697823046501600,2.446501708984375,0.01168029848486185,-0.5675544738769531,-0.800024688243866
1772697823056550400,2.45655029296875,0.005548529326915741,-0.5402994155883789,-0.8587639331817627
1772697823066598700,2.4665986328125,-0.04038407653570175,-0.5151581168174744,-0.9012213945388794
1772697823076647400,2.4766474609375,-0.1055196225643158,-0.4889358580112457,-0.9134538769721985
1772697823086696700,2.48669677734375,-0.16627004742622375,-0.5145203471183777,-0.8545007705688477
1772697823096744400,2.496744384765625,-0.2080497145652771,-0.6312870979309082,-0.7529566884040833
1772697823106793700,2.506793701171875,-0.2283906787633896,-0.8170686960220337,-0.622147798538208
1772697823116842500,2.516842529296875,-0.24858665466308594,-0.9998502731323242,-0.48552006483078003
1772697823126890800,2.526890869140625,-0.28140637278556824,-1.0609434843063354,-0.4019457995891571
1772697823136939500,2.536939453125,-0.31079381704330444,-1.022135615348816,-0.39523130655288696
1772697823146987500,2.546987548828125,-0.33312150835990906,-0.9587012529373169,-0.4434121549129486
1772697823157036500,2.55703662109375,-0.32962411642074585,-0.9077845215797424,-0.49864864349365234
1772697823167085600,2.56708544921875,-0.2857014238834381,-0.8524962067604065,-0.5406970381736755
1772697823177133600,2.577133544921875,-0.22265374660491943,-0.7843246459960938,-0.5759245753288269
1772697823187182600,2.5871826171875,-0.1862664371728897,-0.7144869565963745,-0.612745463848114
1772697823197231600,2.597231689453125,-0.1917242854833603,-0.6588497757911682,-0.6456226110458374
1772697823207279400,2.607279296875,-0.19917021691799164,-0.6130365133285522,-0.6660009026527405
1772697823217328600,2.61732861328125,-0.19467808306217194,-0.5418214797973633,-0.6723121404647827
1772697823227376400,2.62737646484375,-0.18103843927383423,-0.48442769050598145,-0.6743571758270264
1772697823237425700,2.63742578125,-0.1574164777994156,-0.4497101604938507,-0.6601472496986389
1772697823247474400,2.647474365234375,-0.12205822020769119,-0.45368388295173645,-0.6485582590103149
1772697823257522700,2.657522705078125,-0.09983286261558533,-0.4756690561771393,-0.6253154873847961
1772697823267571500,2.667571533203125,-0.09016638249158859,-0.5056890249252319,-0.5900730490684509
1772697823277619700,2.67761962890625,-0.0812462866306305,-0.5118705034255981,-0.5403801798820496
1772697823287668500,2.68766845703125,-0.06033647432923317,-0.5275165438652039,-0.48335182666778564
1772697823297717500,2.697717529296875,-0.043645065277814865,-0.5425761938095093,-0.42213669419288635
1772697823307765500,2.707765625,-0.02665330097079277,-0.563680112361908,-0.3438573479652405
1772697823317814500,2.717814453125,-0.009865900501608849,-0.5883373022079468,-0.25163790583610535
1772697823327863600,2.727863525390625,0.020962320268154144,-0.5987502932548523,-0.17567096650600433
1772697823337911600,2.73791162109375,0.047771651297807693,-0.6124279499053955,-0.14705190062522888
1772697823347960600,2.747960693359375,0.06791021674871445,-0.6383413076400757,-0.17140917479991913
1772697823358008600,2.758008544921875,0.09456032514572144,-0.6381421089172363,-0.20878645777702332
1772697823368057600,2.7680576171875,0.12451183050870895,-0.5887072086334229,-0.2313690036535263
1772697823378106600,2.778106689453125,0.1675340086221695,-0.4879331886768341,-0.2604083716869354
1772697823388154600,2.788154541015625,0.21799825131893158,-0.3877096474170685,-0.29909583926200867
1772697823398203600,2.79820361328125,0.2668651342391968,-0.31629112362861633,-0.3534447252750397
1772697823408252400,2.80825244140625,0.30409079790115356,-0.283321738243103,-0.42206454277038574
1772697823418300700,2.81830078125,0.3271513283252716,-0.29965144395828247,-0.5041922926902771
1772697823428349400,2.828349365234375,0.3460416793823242,-0.3446418344974518,-0.5914638042449951
1772697823438397700,2.838397705078125,0.3571832478046417,-0.39774176478385925,-0.6660747528076172
1772697823448446500,2.848446533203125,0.3733710050582886,-0.47069400548934937,-0.7289456129074097
1772697823458495700,2.858495849609375,0.40449655055999756,-0.5886136889457703,-0.7828723192214966
1772697823468543500,2.86854345703125,0.4342193007469177,-0.7609764337539673,-0.8380149602890015
1772697823478592500,2.878592529296875,0.47330644726753235,-0.934262216091156,-0.8771160244941711
1772697823488641500,2.8886416015625,0.5097923278808594,-1.0808604955673218,-0.8946146368980408
1772697823498689500,2.898689453125,0.5362221002578735,-1.1855628490447998,-0.894627034664154
1772697823508738600,2.908738525390625,0.5411375164985657,-1.2263022661209106,-0.872516930103302
1772697823518786300,2.918786376953125,0.5196202397346497,-1.1892292499542236,-0.8476681709289551
1772697823528835600,2.928835693359375,0.5012566447257996,-1.065317153930664,-0.8303496241569519
1772697823538884600,2.938884521484375,0.5071922540664673,-0.8816381692886353,-0.8394579887390137
1772697823548932600,2.9489326171875,0.5553784370422363,-0.69681316614151,-0.8577778339385986
1772697823558981600,2.958981689453125,0.5935260653495789,-0.6009942293167114,-0.9150376915931702
1772697823569030400,2.969030517578125,0.5701664090156555,-0.5882505178451538,-1.02820885181427
1772697823579078400,2.979078369140625,0.5132664442062378,-0.5826051235198975,-1.1496906280517578
1772697823589127400,2.98912744140625,0.48776933550834656,-0.5095652341842651,-1.1923105716705322
1772697823599175400,2.999175537109375,0.5004170536994934,-0.2616017758846283,-1.1247771978378296
1772697823609224400,3.009224365234375,0.4719127118587494,0.1242910623550415,-0.9687346816062927
1772697823619273700,3.019273681640625,0.3595748841762543,0.5377190709114075,-0.8209677338600159
1772697823629321500,3.029321533203125,0.26872140169143677,0.8816573023796082,-0.7535306215286255
1772697823639370500,3.03937060546875,0.24537725746631622,1.0814133882522583,-0.7869956493377686
1772697823649419500,3.04941943359375,0.24694585800170898,1.1851264238357544,-0.8567089438438416
1772697823659467500,3.059467529296875,0.21062472462654114,1.2319461107254028,-0.9058231711387634
1772697823669516500,3.0695166015625,0.15146338939666748,1.1377966403961182,-0.8700308203697205
1772697823679564500,3.079564453125,0.08778113126754761,0.8568494319915771,-0.7485682368278503
1772697823689613600,3.089613525390625,0.06231651455163956,0.4267454743385315,-0.6170256733894348
1772697823699662300,3.099662353515625,0.05768192932009697,0.025730397552251816,-0.5106817483901978
1772697823709710600,3.109710693359375,0.039471499621868134,-0.22785739600658417,-0.40256166458129883
1772697823719759400,3.11975927734375,0.043698303401470184,-0.23488333821296692,-0.28548577427864075
1772697823729807600,3.1298076171875,0.13636966049671173,-0.08965664356946945,-0.17636489868164062
1772697823739856400,3.1398564453125,0.258849561214447,0.010566886514425278,-0.08326901495456696
1772697823749905700,3.14990576171875,0.34057343006134033,0.10771580785512924,-0.004053820855915546
1772697823759953400,3.159953369140625,0.3757047653198242,0.16663052141666412,0.03967518359422684
1772697823770002700,3.170002685546875,0.3634081482887268,0.16181525588035583,-0.007592461071908474
1772697823780051500,3.180051513671875,0.31764018535614014,0.1134440004825592,-0.15790821611881256
1772697823790099700,3.190099609375,0.2559560537338257,0.0301312655210495,-0.37083086371421814
1772697823800148500,3.2001484375,0.19171366095542908,-0.03159015625715256,-0.5914379358291626
1772697823810197500,3.210197509765625,0.153593972325325,-0.024044886231422424,-0.7552130222320557
1772697823820245500,3.22024560546875,0.13392141461372375,0.033710554242134094,-0.8439556956291199
1772697823830294500,3.23029443359375,0.13297039270401,0.12932762503623962,-0.8721268773078918
1772697823840342500,3.240342529296875,0.14839766919612885,0.2544066905975342,-0.8417236804962158
1772697823850391600,3.2503916015625,0.17400023341178894,0.3937171995639801,-0.7645215392112732
1772697823860440600,3.260440673828125,0.1952386200428009,0.4855627119541168,-0.6728801131248474
1772697823870488600,3.270488525390625,0.20697863399982452,0.46768811345100403,-0.5690479874610901
1772697823880537600,3.28053759765625,0.19790923595428467,0.3052789270877838,-0.4569614827632904
1772697823890585600,3.290585693359375,0.17098468542099,0.07228270918130875,-0.33572402596473694
1772697823900634600,3.300634521484375,0.13108839094638824,-0.10662178695201874,-0.19344158470630646
1772697823910683600,3.31068359375,0.12338414043188095,-0.18720638751983643,-0.022193143144249916
1772697823920731600,3.320731689453125,0.12074212729930878,-0.19616340100765228,0.16110998392105103
1772697823930780700,3.33078076171875,0.12552542984485626,-0.11992640793323517,0.28042760491371155
1772697823940829700,3.34082958984375,0.12428736686706543,0.003935093525797129,0.3160364031791687
1772697823950877700,3.350877685546875,0.12873271107673645,0.12585780024528503,0.2849772870540619
1772697823960926700,3.3609267578125,0.12358594685792923,0.17645199596881866,0.2446112483739853
1772697823970974700,3.370974609375,0.0917888730764389,0.16658659279346466,0.1947329044342041
1772697823981023700,3.381023681640625,0.06266054511070251,0.1466243416070938,0.14910614490509033
1772697823991072800,3.39107275390625,0.03922632336616516,0.16717568039894104,0.10808946937322617
1772697824001120500,3.40112060546875,0.010179277509450912,0.22102507948875427,0.10703591257333755
1772697824011169800,3.411169677734375,-0.009780315682291985,0.2781733274459839,0.12742747366428375
1772697824021218800,3.42121875,-0.014373628422617912,0.33003491163253784,0.14279311895370483
1772697824031266800,3.431266845703125,-0.007201469037681818,0.3795526623725891,0.13332132995128632
1772697824041315600,3.441315673828125,0.022922715172171593,0.4518766701221466,0.10747520625591278
1772697824051363600,3.451363525390625,0.056575484573841095,0.5252131819725037,0.09571628272533417
1772697824061412600,3.46141259765625,0.07577033340930939,0.5782883763313293,0.11081644892692566
1772697824071461600,3.471461669921875,0.08044204860925674,0.5865457653999329,0.1460370123386383
1772697824081509600,3.481509521484375,0.08530018478631973,0.5738667249679565,0.17465651035308838
1772697824091558700,3.49155859375,0.08184366673231125,0.549923837184906,0.1937127709388733
1772697824101607700,3.501607666015625,0.08664456009864807,0.5169296860694885,0.20998167991638184
1772697824111655700,3.51165576171875,0.072295181453228,0.46561774611473083,0.21919594705104828
1772697824121704700,3.52170458984375,0.04520020633935928,0.408509761095047,0.2278483361005783
1772697824131752700,3.531752685546875,0.015346970409154892,0.33124932646751404,0.23693238198757172
1772697824141801500,3.541801513671875,0.005911245942115784,0.2548210918903351,0.26380372047424316
1772697824151850800,3.551850830078125,-0.0015794275095686316,0.21369178593158722,0.3029085099697113
1772697824161898500,3.5618984375,0.004394994117319584,0.21490034461021423,0.3521121144294739
1772697824171947800,3.57194775390625,0.015039382502436638,0.23701336979866028,0.40581583976745605
1772697824181996500,3.58199658203125,0.009460373781621456,0.24574056267738342,0.46548470854759216
1772697824192044800,3.592044921875,-0.008841934613883495,0.21704313158988953,0.5379517078399658
1772697824202093600,3.602093505859375,-0.038643062114715576,0.14994528889656067,0.6315559148788452
1772697824212141800,3.612141845703125,-0.06942654401063919,0.07408381998538971,0.752616822719574
1772697824222190600,3.622190673828125,-0.10772477090358734,-0.02861699089407921,0.8630327582359314
1772697824232239600,3.632239501953125,-0.13745923340320587,-0.13737303018569946,0.9260681867599487
1772697824242287600,3.64228759765625,-0.14654125273227692,-0.1766461580991745,0.9441403150558472
1772697824252336600,3.652336669921875,-0.13352558016777039,-0.09796518087387085,0.9411038160324097
1772697824262385700,3.6623857421875,-0.10372002422809601,0.04607590287923813,0.9235686659812927
1772697824272433700,3.67243359375,-0.08434099704027176,0.1747710406780243,0.8925100564956665
1772697824282482700,3.682482666015625,-0.05218040570616722,0.2677803337574005,0.8469834923744202
1772697824292530700,3.69253076171875,-0.020378537476062775,0.36982840299606323,0.8080222606658936
1772697824302579700,3.702579833984375,0.00442696176469326,0.4622555077075958,0.7829388976097107
1772697824312628700,3.712628662109375,0.023656848818063736,0.49798181653022766,0.7614216208457947
1772697824322676700,3.7226767578125,0.017087899148464203,0.43333306908607483,0.7431314587593079
1772697824332725800,3.732725830078125,0.0017552818171679974,0.31916123628616333,0.7475408911705017
1772697824342773800,3.742773681640625,-0.021788662299513817,0.20294564962387085,0.7794200778007507
1772697824352822800,3.75282275390625,-0.04005341976881027,0.09850633144378662,0.822811484336853
1772697824362871600,3.76287158203125,-0.041637685149908066,-0.008597209118306637,0.8631189465522766
1772697824372919600,3.77291943359375,-0.03602294251322746,-0.09324365109205246,0.8742626905441284
1772697824382968600,3.782968505859375,-0.022787876427173615,-0.14001649618148804,0.8639954328536987
1772697824393017900,3.793017822265625,0.0032796766608953476,-0.1453462839126587,0.8350314497947693
1772697824403065600,3.803065673828125,0.016168519854545593,-0.15657496452331543,0.7848855257034302
1772697824413115000,3.813114990234375,0.02353535406291485,-0.12814119458198547,0.7267753481864929
1772697824423162600,3.82316259765625,0.011591292917728424,-0.0714038759469986,0.6760541200637817
1772697824433211600,3.833211669921875,-0.015080796554684639,-0.02714693546295166,0.6362595558166504
1772697824443260700,3.8432607421875,-0.043093372136354446,0.001187510322779417,0.6180700659751892
1772697824453308700,3.85330859375,-0.06377654522657394,0.01982324756681919,0.6356463432312012
1772697824463357700,3.863357666015625,-0.07311949133872986,-0.010562900453805923,0.6733084321022034
1772697824473406700,3.87340673828125,-0.05906758829951286,-0.06313742697238922,0.7178269028663635
1772697824483454700,3.883454833984375,-0.02715945988893509,-0.07191067188978195,0.752660870552063
1772697824493503500,3.89350341796875,0.032560329884290695,0.0244440920650959,0.7299768924713135
1772697824503551700,3.9035517578125,0.16348852217197418,0.21593496203422546,0.647758960723877
1772697824513600500,3.9136005859375,0.3360815942287445,0.4327804446220398,0.5449870228767395
1772697824523649800,3.92364990234375,0.4736007750034332,0.6308544278144836,0.46607038378715515
1772697824533697500,3.933697509765625,0.5428560376167297,0.806037962436676,0.42963141202926636
1772697824543746800,3.943746826171875,0.502191424369812,0.9174267649650574,0.415004700422287
1772697824553795600,3.953795654296875,0.3935163915157318,0.9427475929260254,0.43170538544654846
1772697824563843800,3.96384375,0.2682689130306244,0.8556798100471497,0.47395867109298706
1772697824573892600,3.973892578125,0.1313190758228302,0.6727994680404663,0.5508547425270081
1772697824583940900,3.98394091796875,-0.015590151771903038,0.4136184751987457,0.6600778698921204
1772697824593989600,3.99398974609375,-0.15102174878120422,0.11521846055984497,0.7708240747451782
1772697824604038700,4.00403857421875,-0.20468199253082275,-0.09486445784568787,0.816962480545044
1772697824614086700,4.014086669921875,-0.15999041497707367,-0.1670992374420166,0.7411705255508423
1772697824624135700,4.0241357421875,-0.09245053678750992,-0.18569742143154144,0.5942097306251526
1772697824634184700,4.034184814453125,-0.05404695123434067,-0.24015666544437408,0.48062294721603394
1772697824644232700,4.044232666015625,-0.07981366664171219,-0.388236939907074,0.4896014332771301
1772697824654281700,4.05428173828125,-0.111143097281456,-0.5531907677650452,0.5805635452270508
1772697824664329700,4.064329833984375,-0.13013575971126556,-0.6156644821166992,0.6677493453025818
1772697824674378800,4.074378662109375,-0.16189980506896973,-0.5720107555389404,0.6918091177940369
1772697824684427800,4.084427734375,-0.19493477046489716,-0.4637591242790222,0.6376895904541016
1772697824694475800,4.094475830078125,-0.22580453753471375,-0.3192578852176666,0.49017786979675293
1772697824704524800,4.10452490234375,-0.22924762964248657,-0.13330399990081787,0.29302993416786194
1772697824714573600,4.114573486328125,-0.22271808981895447,0.03764484450221062,0.10067272931337357
1772697824724621800,4.124621826171875,-0.21917134523391724,0.14424267411231995,-0.06445488333702087
1772697824734670600,4.134670654296875,-0.2064952403306961,0.19949181377887726,-0.19729387760162354
1772697824744718800,4.14471875,-0.19514505565166473,0.22415533661842346,-0.30146554112434387
1772697824754767600,4.154767578125,-0.1792241483926773,0.2148185670375824,-0.3864257037639618
1772697824764816600,4.164816650390625,-0.1726117879152298,0.14631648361682892,-0.4582352042198181
1772697824774864600,4.17486474609375,-0.17165465652942657,0.014496676623821259,-0.5138265490531921
1772697824784913700,4.18491357421875,-0.15765541791915894,-0.15188805758953094,-0.556691586971283
1772697824794962700,4.194962646484375,-0.1149018332362175,-0.3244880735874176,-0.5705969929695129
1772697824805010400,4.205010498046875,-0.06007666885852814,-0.5052003264427185,-0.5427694916725159
1772697824815059700,4.215059814453125,-0.010816976428031921,-0.6536931395530701,-0.49876904487609863
1772697824825107500,4.225107421875,0.014157784171402454,-0.7597106695175171,-0.4548725187778473
1772697824835156700,4.23515673828125,0.030319442972540855,-0.8339657187461853,-0.4513246417045593
1772697824845205800,4.245205810546875,0.0031791578512638807,-0.8681250214576721,-0.46469151973724365
1772697824855253800,4.255253662109375,-0.06802257895469666,-0.815909743309021,-0.4559592604637146
1772697824865302500,4.265302490234375,-0.1633511632680893,-0.6942884922027588,-0.4107813239097595
1772697824875350800,4.275350830078125,-0.2807933986186981,-0.566586434841156,-0.33647194504737854
1772697824885399600,4.285399658203125,-0.3500046730041504,-0.4921569526195526,-0.2812822461128235
1772697824895448600,4.295448486328125,-0.39499425888061523,-0.49966681003570557,-0.2698708474636078
1772697824905496600,4.30549658203125,-0.4471888542175293,-0.5097585916519165,-0.2828954756259918
1772697824915545600,4.315545654296875,-0.48946014046669006,-0.5105417966842651,-0.2977050244808197
1772697824925594600,4.3255947265625,-0.5139189958572388,-0.4865818917751312,-0.29447996616363525
1772697824935642600,4.335642578125,-0.4921886622905731,-0.4750514626502991,-0.2850179970264435
1772697824945691600,4.345691650390625,-0.4322262108325958,-0.4938611090183258,-0.2809625267982483
1772697824955739600,4.35573974609375,-0.3737725019454956,-0.5256757736206055,-0.282622754573822
1772697824965788700,4.36578857421875,-0.32375720143318176,-0.5348466634750366,-0.2910583019256592
1772697824975837700,4.375837646484375,-0.27533775568008423,-0.4947926998138428,-0.2956349551677704
1772697824985885700,4.3858857421875,-0.25297096371650696,-0.42599257826805115,-0.30096060037612915
1772697824995934700,4.395934814453125,-0.2604600489139557,-0.3442665636539459,-0.3100912570953369
1772697825005983500,4.4059833984375,-0.25445088744163513,-0.2834663391113281,-0.3112722337245941
1772697825016031700,4.41603173828125,-0.252407431602478,-0.2274549901485443,-0.30922213196754456
1772697825026080500,4.42608056640625,-0.23294010758399963,-0.20796754956245422,-0.28199121356010437
1772697825036128500,4.43612841796875,-0.20883584022521973,-0.195561483502388,-0.23425671458244324
1772697825046177500,4.446177490234375,-0.17200203239917755,-0.1867280751466751,-0.16379712522029877
1772697825056226800,4.456226806640625,-0.1221255362033844,-0.17064577341079712,-0.08066469430923462
1772697825066274600,4.466274658203125,-0.07980961352586746,-0.17709782719612122,-0.01173714641481638
1772697825076323800,4.47632373046875,-0.04730546846985817,-0.2168164700269699,0.02679719775915146
1772697825086372600,4.48637255859375,-0.026027990505099297,-0.2397577315568924,0.06905166059732437
1772697825096420600,4.496420654296875,-0.024399202316999435,-0.2796337902545929,0.08599149435758591
1772697825106469600,4.5064697265625,-0.031018966808915138,-0.34982991218566895,0.09653029590845108
1772697825116517600,4.516517578125,-0.043454594910144806,-0.3790320158004761,0.11991658061742783
1772697825126566700,4.526566650390625,-0.0312529020011425,-0.32984474301338196,0.14638200402259827
1772697825136615400,4.536615478515625,-0.008986210450530052,-0.24480734765529633,0.18455389142036438
1772697825146663700,4.54666357421875,-0.00742740835994482,-0.2466348111629486,0.21329006552696228
1772697825156712400,4.55671240234375,0.011061321012675762,-0.31841447949409485,0.23950807750225067
1772697825166761700,4.56676171875,0.046828314661979675,-0.4087587296962738,0.2323974221944809
1772697825176809500,4.5768095703125,0.09237103164196014,-0.4874095916748047,0.1797611117362976
1772697825186858800,4.586858642578125,0.11136528849601746,-0.5485384464263916,0.11845942586660385
1772697825196906500,4.596906494140625,0.12109062075614929,-0.5642947554588318,0.06763512641191483
1772697825206955800,4.606955810546875,0.13462954759597778,-0.48383939266204834,0.04044118896126747
1772697825217004500,4.617004638671875,0.1660468578338623,-0.33080747723579407,0.017592597752809525
1772697825227052800,4.627052734375,0.17448709905147552,-0.18332774937152863,0.011047489941120148
1772697825237101600,4.6371015625,0.17979611456394196,-0.058210574090480804,0.010157993994653225
1772697825247150600,4.647150634765625,0.19291873276233673,0.03711355850100517,0.015813061967492104
1772697825257198600,4.657198486328125,0.23660336434841156,0.057720836251974106,0.017567019909620285
1772697825267247600,4.66724755859375,0.29717057943344116,0.017465006560087204,0.006828388199210167
1772697825277295600,4.677295654296875,0.3480055332183838,-0.06449110805988312,-0.02991710975766182
1772697825287344600,4.6873447265625,0.3816739618778229,-0.15097752213478088,-0.10142140835523605
1772697825297393700,4.6973935546875,0.41336584091186523,-0.21021421253681183,-0.17639099061489105
1772697825307441700,4.707441650390625,0.4079408049583435,-0.21363477408885956,-0.23203334212303162
1772697825317490700,4.71749072265625,0.3892430067062378,-0.16579267382621765,-0.25779464840888977
1772697825327539700,4.727539794921875,0.31820961833000183,-0.12120525538921356,-0.29762473702430725
1772697825337587700,4.737587646484375,0.1814994215965271,-0.2053755223751068,-0.4518536925315857
1772697825347636700,4.74763671875,0.02604382112622261,-0.24064451456069946,-0.6296067237854004
1772697825357684700,4.757684814453125,-0.0423235148191452,-0.10994590073823929,-0.6667319536209106
1772697825367733800,4.767733642578125,-0.062004201114177704,0.08628722280263901,-0.5527403950691223
1772697825377782500,4.777782470703125,-0.07683534920215607,0.3086675703525543,-0.30143463611602783
1772697825387830800,4.787830810546875,-0.10545005649328232,0.5024915933609009,-0.0031957642640918493
1772697825397879600,4.797879638671875,-0.13611556589603424,0.5495001673698425,0.22327278554439545
1772697825407928800,4.8079287109375,-0.18424686789512634,0.5411943197250366,0.34726980328559875
1772697825417976600,4.8179765625,-0.22757863998413086,0.48391157388687134,0.39801928400993347
1772697825428025600,4.828025634765625,-0.23093272745609283,0.34135520458221436,0.4157775342464447
1772697825438073600,4.838073486328125,-0.220220685005188,0.14960335195064545,0.45223861932754517
1772697825448122600,4.84812255859375,-0.22108009457588196,0.004140954930335283,0.5113919377326965
1772697825458171600,4.858171630859375,-0.20541244745254517,-0.04859576001763344,0.5460585355758667
1772697825468219400,4.868219482421875,-0.1743364930152893,-0.014674813486635685,0.47586095333099365
1772697825478268700,4.8782685546875,-0.11371416598558426,0.11473244428634644,0.29630371928215027
1772697825488317700,4.888317626953125,-0.003867028746753931,0.32860344648361206,0.0882466584444046
1772697825498365700,4.89836572265625,0.17451922595500946,0.6094186305999756,-0.017017440870404243
1772697825508414700,4.908414794921875,0.39516836404800415,0.8515625,0.05605970323085785
1772697825518462700,4.918462646484375,0.5276821851730347,0.9352278709411621,0.25284093618392944
1772697825528511500,4.928511474609375,0.5093352794647217,0.8529979586601257,0.4579775333404541
1772697825538560500,4.938560546875,0.4169667363166809,0.634879469871521,0.5434381365776062
1772697825548608500,4.9486083984375,0.28424665331840515,0.4501432180404663,0.50633704662323
1772697825558657500,4.958657470703125,0.1719459593296051,0.4643453359603882,0.43540191650390625
1772697825568706800,4.968706787109375,0.10578031837940216,0.672378659248352,0.38502228260040283
1772697825578754600,4.978754638671875,0.07262156903743744,0.7818875908851624,0.3169340491294861
1772697825588803600,4.988803466796875,0.04309088736772537,0.7556602358818054,0.2459740936756134
1772697825598851600,4.9988515625,0.02099943347275257,0.7150043845176697,0.20013976097106934
1772697825608900600,5.008900634765625,0.03772067278623581,0.708308219909668,0.18609823286533356
1772697825618949600,5.01894970703125,0.06371472030878067,0.7787426710128784,0.173998162150383
1772697825628997600,5.02899755859375,0.09343937784433365,0.7824562191963196,0.1390891671180725
1772697825639046700,5.039046630859375,0.10670164972543716,0.6754099130630493,0.05925958231091499
1772697825649095400,5.049095458984375,0.12745855748653412,0.632782518863678,0.011482898145914078
1772697825659143700,5.059143798828125,0.14776542782783508,0.6766780614852905,0.02111528441309929
1772697825669192400,5.0691923828125,0.12230847775936127,0.6715120673179626,0.03648052364587784
1772697825679240700,5.07924072265625,0.07246635854244232,0.5751069784164429,0.041333869099617004
1772697825689289500,5.08928955078125,0.024289822205901146,0.42151927947998047,0.040288981050252914
1772697825699338800,5.0993388671875,-0.0021889214403927326,0.2555420398712158,0.04934665933251381
1772697825709386500,5.109386474609375,-0.006366775371134281,0.1342691332101822,0.07944905012845993
1772697825719435800,5.119435791015625,0.0040677557699382305,0.08323683589696884,0.13515599071979523
1772697825729484500,5.129484619140625,0.01966523751616478,0.13678982853889465,0.22835060954093933
1772697825739532800,5.13953271484375,0.02689625322818756,0.246463343501091,0.3315739333629608
1772697825749581600,5.14958154296875,0.021882330998778343,0.37720561027526855,0.4054173231124878
1772697825759629800,5.1596298828125,0.016291556879878044,0.4831821024417877,0.4525565803050995
1772697825769678600,5.1696787109375,0.007501734420657158,0.5884091854095459,0.4620099663734436
1772697825779727600,5.1797275390625,-0.012666383758187294,0.6618080139160156,0.44241204857826233
1772697825789775600,5.189775634765625,-0.040224235504865646,0.6405888199806213,0.406122088432312
1772697825799824600,5.19982470703125,-0.06705292314291,0.589815616607666,0.3861835300922394
1772697825809873700,5.209873779296875,-0.07956109941005707,0.5492844581604004,0.40048232674598694
1772697825819921700,5.219921630859375,-0.07974725216627121,0.5120193958282471,0.44436827301979065
1772697825829970700,5.229970703125,-0.0733424499630928,0.42783495783805847,0.49313464760780334
1772697825840018700,5.240018798828125,-0.069367416203022,0.3310106694698334,0.5323182940483093
1772697825850067700,5.250067626953125,-0.06312359869480133,0.30454206466674805,0.5579323768615723
1772697825860116700,5.26011669921875,-0.052309028804302216,0.3432694971561432,0.591643214225769
1772697825870164700,5.270164794921875,-0.05509522557258606,0.3399253785610199,0.6366071105003357
1772697825880213800,5.2802138671875,-0.07108377665281296,0.2946828007698059,0.6650201082229614
1772697825890262500,5.290262451171875,-0.10522688925266266,0.2648378014564514,0.6750414371490479
1772697825900310500,5.300310546875,-0.11916161328554153,0.27503159642219543,0.6803839802742004
1772697825910359600,5.310359619140625,-0.12246216833591461,0.3161923289299011,0.6727231740951538
1772697825920407600,5.320407470703125,-0.11674170196056366,0.3801899552345276,0.6773243546485901
1772697825930456600,5.33045654296875,-0.10403352230787277,0.4713275730609894,0.7003075480461121
1772697825940505900,5.340505859375,-0.10053759068250656,0.5278619527816772,0.7359851002693176
1772697825950553600,5.3505537109375,-0.0961858332157135,0.5177656412124634,0.7591161131858826
1772697825960602600,5.3606025390625,-0.10006126761436462,0.47287142276763916,0.7650019526481628
1772697825970650400,5.370650390625,-0.1026625856757164,0.4225781559944153,0.7698841691017151
1772697825980699600,5.38069970703125,-0.11876831948757172,0.3568228483200073,0.7896698713302612
1772697825990748700,5.390748779296875,-0.14797227084636688,0.2817355692386627,0.8152405023574829
1772697826000796700,5.400796630859375,-0.17634372413158417,0.18048271536827087,0.8069133162498474
1772697826010845700,5.410845703125,-0.204093337059021,0.08870247006416321,0.7667273879051208
1772697826020894500,5.42089453125,-0.2186104953289032,0.03274226188659668,0.7127850651741028
1772697826030942500,5.4309423828125,-0.22039192914962769,0.0026628924533724785,0.6611632108688354
1772697826040991500,5.440991455078125,-0.21325677633285522,0.005227782763540745,0.6053689122200012
1772697826051039500,5.45103955078125,-0.20407627522945404,0.005662407260388136,0.553220272064209
1772697826061088500,5.461088623046875,-0.1799539029598236,-0.004271450452506542,0.48989400267601013
1772697826071137800,5.4711376953125,-0.15216311812400818,-0.016767533496022224,0.42207634449005127
1772697826081185500,5.481185546875,-0.12803247570991516,0.00008308561518788338,0.3636961281299591
1772697826091234600,5.491234619140625,-0.13025660812854767,0.002730268519371748,0.3155834376811981
1772697826101283600,5.50128369140625,-0.14489945769309998,-0.010281670838594437,0.30634066462516785
1772697826111331600,5.51133154296875,-0.15460392832756042,-0.02741933800280094,0.3332963287830353
1772697826121380600,5.521380615234375,-0.14008250832557678,-0.021057846024632454,0.3760477900505066
1772697826131428600,5.5314287109375,-0.1040014699101448,0.020226476714015007,0.4195084273815155
1772697826141477600,5.5414775390625,-0.08138681203126907,0.06223836541175842,0.4360034167766571
1772697826151526400,5.5515263671875,-0.04527077078819275,0.1222795844078064,0.41869860887527466
1772697826161574700,5.56157470703125,-0.017207443714141846,0.20576807856559753,0.37098434567451477
1772697826171623400,5.57162353515625,-0.029311353340744972,0.2507643401622772,0.3350710868835449
1772697826181672400,5.58167236328125,-0.06100057438015938,0.19613277912139893,0.3781013786792755
1772697826191720400,5.591720458984375,-0.06917264312505722,0.06658302992582321,0.484609991312027
1772697826201769500,5.60176953125,-0.04449579119682312,-0.07490326464176178,0.5976768732070923
1772697826211817500,5.6118173828125,-0.030626894906163216,-0.2067534476518631,0.6791802644729614
1772697826221866500,5.621866455078125,-0.029201306402683258,-0.24761565029621124,0.6875731945037842
1772697826231915500,5.63191552734375,-0.03137871250510216,-0.15956968069076538,0.6221011281013489
1772697826241963500,5.641963623046875,-0.03995808586478233,-0.0337318554520607,0.511875569820404
1772697826252012500,5.652012451171875,-0.061823923140764236,0.05490349978208542,0.3634451627731323
1772697826262061600,5.6620615234375,-0.07978720963001251,0.051685068756341934,0.23478759825229645
1772697826272109600,5.672109619140625,-0.08971034735441208,-0.009942914359271526,0.16664481163024902
1772697826282158600,5.68215869140625,-0.0930803120136261,-0.04816193878650665,0.17352642118930817
1772697826292207400,5.692207275390625,-0.09098051488399506,-0.07033275812864304,0.23449324071407318
1772697826302255600,5.702255615234375,-0.08204694092273712,-0.04016446694731712,0.32457998394966125
1772697826312304400,5.712304443359375,-0.06513996422290802,0.028360532596707344,0.42087218165397644
1772697826322352600,5.7223525390625,-0.06083124130964279,0.09129475802183151,0.48458483815193176
1772697826332401400,5.7324013671875,-0.06710853427648544,0.14015047252178192,0.5080265998840332
1772697826342450700,5.74245068359375,-0.09077870845794678,0.18575496971607208,0.5230026245117188
1772697826352498400,5.75249853515625,-0.12513667345046997,0.2147330939769745,0.5368363857269287
1772697826362547700,5.762547607421875,-0.15392784774303436,0.23546074330806732,0.5527706146240234
1772697826372596500,5.772596435546875,-0.15895767509937286,0.25042399764060974,0.541594922542572
1772697826382644700,5.782644775390625,-0.15244384109973907,0.23164817690849304,0.4918004870414734
1772697826392693500,5.792693603515625,-0.1436232179403305,0.1966339647769928,0.4337299168109894
1772697826402741500,5.802741455078125,-0.1467662751674652,0.15057538449764252,0.37863683700561523
1772697826412790500,5.81279052734375,-0.15269699692726135,0.10088110715150833,0.3399971127510071
1772697826422839600,5.822839599609375,-0.1505374312400818,0.04654436185956001,0.3277745246887207
1772697826432887600,5.832887451171875,-0.15179318189620972,-0.02503366209566593,0.33684632182121277
1772697826442936600,5.8429365234375,-0.15687982738018036,-0.0866839736700058,0.3697965443134308
1772697826452985600,5.852985595703125,-0.15410330891609192,-0.11817215383052826,0.41017329692840576
1772697826463033300,5.863033447265625,-0.15180820226669312,-0.07842262089252472,0.4599355161190033
1772697826473082600,5.87308251953125,-0.14627225697040558,0.03687172755599022,0.5109645128250122
1772697826483131600,5.883131591796875,-0.14168603718280792,0.13760580122470856,0.5428849458694458
1772697826493179600,5.8931796875,-0.14454078674316406,0.19442352652549744,0.5476348996162415
1772697826503228700,5.903228759765625,-0.14887641370296478,0.21007706224918365,0.5378667116165161
1772697826513276700,5.913276611328125,-0.15645591914653778,0.19116942584514618,0.5217676758766174
1772697826523325400,5.923325439453125,-0.1561528593301773,0.15660637617111206,0.5047103762626648
1772697826533374500,5.93337451171875,-0.15555962920188904,0.13905993103981018,0.5047240853309631
1772697826543422500,5.94342236328125,-0.14694218337535858,0.12680405378341675,0.5074948668479919
1772697826553471500,5.953471435546875,-0.14488162100315094,0.10918056964874268,0.5053079128265381
1772697826563519500,5.96351953125,-0.14467096328735352,0.08972831070423126,0.49428749084472656
1772697826573568500,5.973568603515625,-0.1415964514017105,0.07574988156557083,0.47715434432029724
1772697826583617500,5.983617431640625,-0.14171789586544037,0.07714910805225372,0.4677283465862274
1772697826593665500,5.99366552734375,-0.13114391267299652,0.08858899027109146,0.44871723651885986
1772697826603714600,6.003714599609375,-0.11430288851261139,0.12147769331932068,0.43036192655563354
1772697826613763600,6.013763671875,-0.10715320706367493,0.15979287028312683,0.42619526386260986
1772697826623811600,6.0238115234375,-0.09644410014152527,0.19243976473808289,0.44064369797706604
1772697826633860600,6.033860595703125,-0.08533526211977005,0.17662592232227325,0.45555379986763
1772697826643909400,6.043909423828125,-0.07608397305011749,0.15683038532733917,0.46843042969703674
1772697826653957600,6.05395751953125,-0.06908971071243286,0.13816268742084503,0.48326388001441956
1772697826664006400,6.06400634765625,-0.05950899049639702,0.12648604810237885,0.4976497292518616
1772697826674054700,6.0740546875,-0.051582105457782745,0.11997465044260025,0.5120062828063965
1772697826684103400,6.084103515625,-0.04160750284790993,0.09890878945589066,0.5237699747085571
1772697826694152700,6.094152587890625,-0.026551157236099243,0.05997442081570625,0.5181668400764465
1772697826704200400,6.104200439453125,-0.02880845218896866,0.0527505986392498,0.4982048571109772
1772697826714249700,6.114249755859375,-0.04751842841506004,0.06828266382217407,0.46831730008125305
1772697826724298500,6.124298583984375,-0.0652870386838913,0.09299493581056595,0.43309086561203003
1772697826734346800,6.1343466796875,-0.07835885137319565,0.11995439976453781,0.4051092565059662
1772697826744395500,6.1443955078125,-0.08405321836471558,0.11953148990869522,0.3888426721096039
1772697826754443500,6.154443603515625,-0.08124618977308273,0.0983140617609024,0.38316085934638977
1772697826764492500,6.164492431640625,-0.07862909883260727,0.06460829824209213,0.38637715578079224
1772697826774541600,6.17454150390625,-0.06696610152721405,0.04954120144248009,0.38637834787368774
1772697826784589600,6.184589599609375,-0.05554301291704178,0.05654717609286308,0.3844163715839386
1772697826794638600,6.194638671875,-0.0553300641477108,0.07812383770942688,0.3586083650588989
1772697826804687600,6.2046875,-0.06739844381809235,0.09669379144906998,0.3239081799983978
1772697826814735600,6.214735595703125,-0.06890446692705154,0.11019151657819748,0.2922801673412323
1772697826824784600,6.22478466796875,-0.06207292899489403,0.10018894821405411,0.27678483724594116
1772697826834832600,6.23483251953125,-0.0485723502933979,0.11071509122848511,0.27752310037612915
1772697826844881400,6.24488134765625,-0.04157542809844017,0.1449979543685913,0.30157917737960815
1772697826854930700,6.2549306640625,-0.042495544999837875,0.19311194121837616,0.3217119872570038
1772697826864978400,6.264978515625,-0.04781174659729004,0.22309939563274384,0.32242411375045776
1772697826875027700,6.27502783203125,-0.04635414853692055,0.2245582938194275,0.32889026403427124
1772697826885076500,6.285076416015625,-0.04335436224937439,0.202984020113945,0.3281014561653137
1772697826895124500,6.29512451171875,-0.03713465854525566,0.17084473371505737,0.3190530836582184
1772697826905173500,6.305173583984375,-0.03140966221690178,0.12821738421916962,0.31659844517707825
1772697826915221500,6.315221435546875,-0.03152450919151306,0.09223303943872452,0.31483757495880127
1772697826925270500,6.3252705078125,-0.02423197403550148,0.0786818116903305,0.3148290514945984
1772697826935319600,6.335319580078125,-0.022770533338189125,0.08930674195289612,0.3277020752429962
1772697826945367800,6.345367919921875,-0.007459753192961216,0.11179687082767487,0.3591553568840027
1772697826955416600,6.35541650390625,0.04495919868350029,0.02256099134683609,0.6018569469451904
1772697826965465900,6.3654658203125,0.023499179631471634,-0.2637714445590973,0.6266115307807922
1772697826975513600,6.375513671875,-0.017980031669139862,-0.44094303250312805,0.5178354382514954
1772697826985563000,6.38556298828125,-0.04535280168056488,-0.44711703062057495,0.3978552222251892
1772697826995611600,6.395611572265625,-0.05812052637338638,-0.38104695081710815,0.3234094977378845
1772697827005660000,6.405659912109375,-0.058978863060474396,-0.28762751817703247,0.2612965703010559
1772697827015708700,6.415708740234375,-0.05581150949001312,-0.10945805162191391,0.22603128850460052
1772697827025757000,6.4257568359375,-0.04977492243051529,0.09758248180150986,0.22596977651119232
1772697827035805700,6.4358056640625,-0.045316580682992935,0.23311422765254974,0.22404001653194427
1772697827045854700,6.445854736328125,-0.041046999394893646,0.32206594944000244,0.2193019986152649
1772697827055902700,6.45590283203125,-0.04269692301750183,0.357528954744339,0.20567256212234497
1772697827065951700,6.46595166015625,-0.046326279640197754,0.35897213220596313,0.1981121152639389
1772697827075999700,6.475999755859375,-0.04900654777884483,0.32209470868110657,0.1994798332452774
