time,seconds_elapsed,z,y,x
1772702172453409300,0.0564091796875,-0.00003781688792514615,0.011324293911457062,0.0019374496769160032
1772702172463459300,0.066459228515625,-0.00016644757124595344,0.0024676851462572813,-0.0011848403373733163
1772702172473508000,0.076508056640625,-0.0005070658517070115,0.012748817913234234,-0.0003201119543518871
1772702172483558100,0.08655810546875,-0.0009384979493916035,0.002694852650165558,-0.0017339842161163688
1772702172493607200,0.096607177734375,-0.00016058860637713224,0.009014533832669258,0.00031425300403498113
1772702172503657200,0.1066572265625,-0.0022807312197983265,0.004738828632980585,-0.0030988543294370174
1772702172513706200,0.116706298828125,-0.0018849853659048676,0.011637214571237564,-0.00026791400159709156
1772702172523756300,0.12675634765625,-0.0005233111442066729,0.005249889567494392,-0.00040852889651432633
1772702172533805000,0.13680517578125,-0.0011696603614836931,0.008221444673836231,-0.0009510148083791137
1772702172543855000,0.146855224609375,0.0017022925894707441,0.005140167195349932,-0.0010892328573390841
1772702172553904400,0.156904296875,-0.004175037611275911,0.007036071736365557,0.00024288028362207115
1772702172563954200,0.1669541015625,-0.00023089606838766485,0.007268032990396023,0.0015427692560479045
1772702172574003700,0.177003662109375,-0.0021499700378626585,0.005064267199486494,-0.0002697782183531672
1772702172584053800,0.1870537109375,-0.0017214673571288586,0.008861135691404343,-0.003495931625366211
1772702172594102500,0.1971025390625,-0.002380866091698408,0.009535182267427444,0.0016849819803610444
1772702172604152600,0.207152587890625,-0.0015994944842532277,0.006658168975263834,-0.002457032445818186
1772702172614201900,0.217201904296875,-0.0008735168376006186,0.009832656942307949,0.0000045273736759554595
1772702172624250600,0.227250732421875,-0.0022149509750306606,0.00663446681573987,-0.0001400822657160461
1772702172634300700,0.23730078125,-0.0018580874893814325,0.006557767745107412,0.0019283948931843042
1772702172644349700,0.247349609375,-0.0023928501177579165,0.00612340634688735,-0.0032506543211638927
1772702172654399700,0.257399658203125,-0.0019148128340020776,0.007700530346482992,0.0012431635987013578
1772702172664448800,0.26744873046875,0.001416269107721746,0.0046634613536298275,-0.0008269115351140499
1772702172674498800,0.277498779296875,-0.00253399764187634,0.006982808467000723,-0.0009954896522685885
1772702172684547600,0.287547607421875,-0.0015456987312063575,0.007060306146740913,0.00037444045301526785
1772702172694597600,0.29759765625,-0.0008423578692600131,0.008490157313644886,-0.0017337178578600287
1772702172704646700,0.307646728515625,-0.0005874933558516204,0.007518370170146227,-0.00236195744946599
1772702172714696700,0.31769677734375,-0.003739078063517809,0.007271228823810816,0.003181145992130041
1772702172724745700,0.327745849609375,-0.0010729875648394227,0.00723447697237134,-0.0005185174522921443
1772702172734795800,0.337795654296875,-0.003615241264924407,0.008312257938086987,-0.0028269453905522823
1772702172744844800,0.3478447265625,0.00022077605535741895,0.004524444229900837,-0.0012269183062016964
1772702172754894800,0.357894775390625,-0.0021494373213499784,0.007165501359850168,0.0010245180455967784
1772702172764943600,0.367943603515625,-0.0007707187905907631,0.007888549007475376,0.00028309403569437563
1772702172774993700,0.37799365234375,-0.0012956279097124934,0.007334079127758741,0.0004756405542138964
1772702172785042700,0.388042724609375,-0.0025744778104126453,0.0060110208578407764,0.0006085322820581496
1772702172795092500,0.398092529296875,-0.0024224112275987864,0.007327953819185495,0.00011904330312972888
1772702172805141800,0.408141845703125,-0.0029172266367822886,0.007508516311645508,-0.0017092167399823666
1772702172815191800,0.41819189453125,-0.0031638352666050196,0.0076155755668878555,-0.0014434333425015211
1772702172825240600,0.428240478515625,-0.0036338833160698414,0.005262938793748617,-0.00043569316039793193
1772702172835290600,0.43829052734375,0.001961151836439967,0.006628341507166624,-0.0016349145444110036
1772702172845339600,0.448339599609375,0.00039228363311849535,0.00971521157771349,0.0018604843644425273
1772702172855389700,0.4583896484375,-0.0026583673898130655,0.0064989118836820126,0.0021856562234461308
1772702172865438700,0.468438720703125,-0.002549710450693965,0.009207346476614475,-0.002645584288984537
1772702172875488800,0.47848876953125,0.001535312389023602,0.010017214342951775,0.001029311795718968
1772702172885537500,0.48853759765625,0.0008066715090535581,0.006780674215406179,-0.0032469260040670633
1772702172895587600,0.498587646484375,-0.0009920274605974555,0.010304302908480167,-0.0015126754296943545
1772702172905636900,0.508636962890625,0.00022663500567432493,0.00717748561874032,0.0008034756756387651
1772702172915686700,0.518686767578125,-0.0013012205017730594,0.007486412301659584,0.00012996226723771542
1772702172925735700,0.528735595703125,-0.002115348819643259,0.007810784969478846,-0.0005315669695846736
1772702172935785700,0.53878564453125,-0.0016397082945331931,0.004837632179260254,-0.0025814019609242678
1772702172945834800,0.548834716796875,-0.0011707255616784096,0.007604656275361776,-0.0007038734620437026
1772702172955884800,0.558884765625,-0.002615756820887327,0.005572398193180561,-0.0010258496040478349
1772702172965933800,0.568933837890625,0.0013203952694311738,0.007902131415903568,-0.0005033374181948602
1772702172975983600,0.578983642578125,0.0006831008358858526,0.006352970842272043,-0.0012005530297756195
1772702172986032600,0.58903271484375,-0.0006311691831797361,0.006709301844239235,-0.0003025351034011692
1772702172996082700,0.599082763671875,-0.0020599551498889923,0.007163104135543108,0.0005126585019752383
1772702173006131700,0.609131591796875,-0.0017603494925424457,0.00765951769426465,-0.0022924491204321384
1772702173016181800,0.619181640625,-0.000023169501218944788,0.007999070920050144,0.00005193164179218002
1772702173026230500,0.62923046875,-0.00010386328358436003,0.006865096744149923,-0.0023521038237959146
1772702173036279600,0.639279541015625,-0.0015688681742176414,0.006940730381757021,-0.0019835224375128746
1772702173046329900,0.649329833984375,-0.0030716899782419205,0.005005944054573774,0.0015590144321322441
1772702173056378600,0.659378662109375,0.000278300343779847,0.00890987180173397,-0.0012961605098098516
1772702173066428700,0.6694287109375,-0.00185036426410079,0.008617988787591457,-0.003373958868905902
1772702173076477700,0.679477783203125,-0.001916144392453134,0.00896926037967205,0.0001512675517005846
1772702173086527500,0.689527587890625,-0.002195776207372546,0.007484281435608864,-0.00037151097785681486
1772702173096576800,0.69957666015625,0.001249821507371962,0.005897836294025183,0.001210406655445695
1772702173106626800,0.709626708984375,-0.002225870033726096,0.0070701600052416325,-0.0010239854454994202
1772702173116675600,0.719675537109375,0.0010775149567052722,0.005216067191213369,0.0001424791116733104
1772702173126725600,0.7297255859375,-0.0005067995516583323,0.00634977500885725,-0.0015960324089974165
1772702173136774700,0.739774658203125,-0.003093794221058488,0.007875500246882439,0.0009478190331719816
1772702173146824700,0.74982470703125,-0.0017867147689685225,0.005859753116965294,-0.0008596684201620519
1772702173156873700,0.759873779296875,-0.0008527441532351077,0.008257663808763027,-0.003171025775372982
1772702173166923800,0.769923828125,-0.0025768745690584183,0.0059814597479999065,0.0011262508342042565
1772702173176972500,0.77997265625,0.0005850964807905257,0.005062402691692114,0.0012913667596876621
1772702173187022600,0.790022705078125,-0.002260491019114852,0.0062613580375909805,0.00009747169679030776
1772702173197072000,0.80007177734375,-0.0021736719645559788,0.007084807381033897,-0.0006924218614585698
1772702173207121700,0.81012158203125,-0.0011371697764843702,0.005898901727050543,-0.003569700988009572
1772702173217170700,0.820170654296875,0.00012969593808520585,0.0078584561124444,-0.0009105347562581301
1772702173227220700,0.830220703125,-0.0012343751732259989,0.005123123060911894,-0.0007094661123119295
1772702173237269800,0.840269775390625,-0.0019299928098917007,0.007378287613391876,-0.0015140071045607328
1772702173247319800,0.85031982421875,-0.002002430846914649,0.006747651379555464,-0.001240766723640263
1772702173257368800,0.860368896484375,-0.0012887036427855492,0.004366252571344376,-0.000404534162953496
1772702173267418600,0.870418701171875,-0.0009116000146605074,0.004763596225529909,0.0004665858286898583
1772702173277467600,0.880467529296875,-0.0010988202411681414,0.007187605369836092,-0.00015712650201749057
1772702173287517700,0.890517578125,0.00013741910515818745,0.004985703621059656,-0.0006519418093375862
1772702173297566700,0.900566650390625,-0.00177952426020056,0.009272061288356781,-0.002049302449449897
1772702173307616800,0.91061669921875,-0.000854075769893825,0.007292001508176327,-0.00042290997225791216
1772702173317665500,0.92066552734375,-0.0014471617760136724,0.00959643442183733,0.00041678472189232707
1772702173327715600,0.930715576171875,0.0022660838440060616,0.005034972447901964,-0.0002055960358120501
1772702173337764900,0.940764892578125,0.0008133294177241623,0.006228867452591658,0.0008711199625395238
1772702173347815000,0.95081494140625,-0.001686579897068441,0.005756688769906759,0.0001584580895723775
1772702173357863700,0.96086376953125,-0.0008788431296125054,0.00788348913192749,-0.002834135899320245
1772702173367913700,0.970913818359375,0.0009566074586473405,0.006982542108744383,-0.0022189458832144737
1772702173377962500,0.98096240234375,-0.00227806787006557,0.0059721386060118675,-0.0012117383303120732
1772702173388012500,0.991012451171875,-0.0019952403381466866,0.007016630377620459,-0.0007270429632626474
1772702173398061800,1.001061767578125,0.00039308256236836314,0.007419832982122898,0.00014274542627390474
1772702173408110600,1.011110595703125,0.0019028285751119256,0.007017163094133139,0.0008325041271746159
1772702173418160600,1.02116064453125,-0.0014495585346594453,0.005545766558498144,0.0006183860241435468
1772702173428209700,1.031209716796875,-0.0034618431236594915,0.00791225116699934,0.0012599414912983775
1772702173438259700,1.041259765625,-0.0013960290234535933,0.007874967530369759,-0.0046418895944952965
1772702173448308700,1.051308837890625,0.001520398654974997,0.005756955128163099,-0.0003110571997240186
1772702173458358800,1.06135888671875,0.00021172130072955042,0.005812615156173706,-0.0025960493367165327
1772702173468407600,1.071407470703125,-0.003251187037676573,0.009308546781539917,-0.0025350630749017
1772702173478457600,1.08145751953125,-0.002560629276558757,0.009695770218968391,-0.0019342538435012102
1772702173488507000,1.0915068359375,-0.001210673013702035,0.007751929108053446,-0.0008293083519674838
1772702173498556700,1.101556640625,-0.0018847191240638494,0.008493886329233646,0.00017070861940737814
1772702173508605700,1.111605712890625,-0.0006719155353493989,0.006206497084349394,-0.0002556634717620909
1772702173518655700,1.12165576171875,-0.0013989584986120462,0.007472297176718712,-0.0005845638806931674
1772702173528704800,1.131704833984375,-0.004785966593772173,0.007089867256581783,-0.0014721954939886928
1772702173538754800,1.1417548828125,-0.002383529208600521,0.007074687164276838,-0.0003304982965346426
1772702173548803800,1.151803955078125,-0.001660480978898704,0.007606787141412497,-0.0028298748657107353
1772702173558853600,1.161853515625,-0.0014777880860492587,0.007090399973094463,0.00021784658019896597
1772702173568902700,1.171902587890625,-0.0009195895399898291,0.009156480431556702,-0.0023033679462969303
1772702173578952200,1.1819521484375,-0.0023411849979311228,0.010663030669093132,-0.004513525404036045
1772702173589001500,1.19200146484375,-0.0017776599852368236,0.006161755882203579,0.0013752563390880823
1772702173599051300,1.20205126953125,-0.00013608753215521574,0.007128483150154352,-0.001835716888308525
1772702173609100300,1.212100341796875,-0.0025949841365218163,0.0048424256965518,-0.0015747271245345473
1772702173619150300,1.222150390625,-0.0012090750969946384,0.00941853504627943,0.0003581951605156064
1772702173629199400,1.232199462890625,-0.0013872405979782343,0.005408081226050854,-0.0008751147543080151
1772702173639249400,1.24224951171875,-0.003507649526000023,0.005852562841027975,-0.0017688715597614646
1772702173649298400,1.25229833984375,-0.0008756473544053733,0.007821704261004925,-0.0015622102655470371
1772702173659348200,1.26234814453125,-0.0017180051654577255,0.009810552932322025,-0.0008602010202594101
1772702173669397200,1.272397216796875,-0.0018911106744781137,0.00720624765381217,-0.0014642059104517102
1772702173679447300,1.282447265625,-0.003028813051059842,0.007507450878620148,-0.001306280493736267
1772702173689496300,1.292496337890625,-0.00005246427463134751,0.008894691243767738,0.0001608549355296418
1772702173699546400,1.30254638671875,0.00047883635852485895,0.005876797717064619,0.002400573343038559
1772702173709595100,1.31259521484375,-0.00003302319601061754,0.005152151454240084,-0.0027060380671173334
1772702173719645200,1.322645263671875,0.0016492956783622503,0.006395048461854458,-0.0020722055342048407
1772702173729694500,1.332694580078125,-0.0010641991393640637,0.00882038939744234,-0.0028210864402353764
1772702173739744500,1.34274462890625,-0.0016160061350092292,0.008889098651707172,-0.0007962851668708026
1772702173749793300,1.352793212890625,-0.0021888520568609238,0.005597964394837618,-0.0008892294717952609
1772702173759842300,1.36284228515625,0.000532632227987051,0.009416937828063965,-0.001288171042688191
1772702173769892000,1.37289208984375,-0.0009337042574770749,0.008583101443946362,-0.00042317630141042173
1772702173779941400,1.38294140625,0.0005163869354873896,0.007020092569291592,0.001716939965263009
1772702173789991400,1.392991455078125,-0.001746234716847539,0.006572148762643337,-0.0007800398743711412
1772702173800040200,1.403040283203125,-0.0001877528557088226,0.009109875187277794,-0.0009526127250865102
1772702173810090200,1.41309033203125,-0.0015954998089000583,0.00809281412512064,-0.0011720572365447879
1772702173820139500,1.423139404296875,-0.003629888640716672,0.008371113799512386,-0.0015694007743149996
1772702173830189300,1.433189208984375,0.00048629322554916143,0.005424859002232552,0.00040719733806326985
1772702173840238300,1.44323828125,-0.00192226970102638,0.007506119552999735,0.0013755226973444223
1772702173850288400,1.453288330078125,-0.0019739349372684956,0.006989466026425362,0.0003312972257845104
1772702173860337200,1.463337158203125,-0.0011574097443372011,0.007995075546205044,0.000895621080417186
1772702173870387200,1.47338720703125,-0.002177400514483452,0.006839530076831579,-0.0006191849242895842
1772702173880436500,1.4834365234375,-0.00112465291749686,0.009883522987365723,-0.00010519486386328936
1772702173890486300,1.493486328125,-0.0009534116834402084,0.004599811974912882,0.00020506340661086142
1772702173900535300,1.503535400390625,-0.0016085492679849267,0.007990282028913498,-0.00014807176194153726
1772702173910585300,1.51358544921875,-0.0018580874893814325,0.005702626891434193,-0.0007214503129944205
1772702173920634400,1.52363427734375,0.002111886627972126,0.005878129042685032,-0.0008170577930286527
1772702173930684400,1.533684326171875,-0.002555303042754531,0.0062698801048099995,-0.002424541860818863
1772702173940733400,1.5437333984375,-0.0017869811272248626,0.008599081076681614,-0.002650910522788763
1772702173950783200,1.553783203125,-0.0007861651247367263,0.007589742541313171,0.0000900148443179205
1772702173960832300,1.563832275390625,0.00019041601626668125,0.00788801722228527,0.000559263804461807
1772702173970882300,1.57388232421875,0.00010439591278554872,0.008451808243989944,-0.0004945489927195013
1772702173980931300,1.583931396484375,-0.0018844527658075094,0.007191600278019905,0.0003936151915695518
1772702173990981400,1.5939814453125,-0.001008539111353457,0.007172158919274807,-0.0008367652189917862
1772702174001030100,1.604030029296875,-0.0010021475609391928,0.006196909584105015,-0.0010301107540726662
1772702174011080200,1.614080078125,0.0005986785981804132,0.006703442893922329,-0.0015901734586805105
1772702174021129500,1.62412939453125,0.0011861718958243728,0.007442736066877842,0.00021172130072955042
1772702174031178200,1.63417822265625,-0.002389388158917427,0.007964449934661388,-0.0031995216850191355
1772702174041228300,1.644228271484375,-0.0022144184913486242,0.00942199770361185,-0.003483148291707039
1772702174051277300,1.65427734375,-0.00010812433902174234,0.007949003018438816,-0.0020125508308410645
1772702174061327000,1.6643271484375,-0.0011952266795560718,0.007521831896156073,-0.002103364560753107
1772702174071376400,1.67437646484375,-0.0007978830835781991,0.0062730759382247925,-0.000046871635277057067
1772702174081426400,1.684426513671875,-0.0008972189389169216,0.009958624839782715,-0.0020242687314748764
1772702174091475200,1.69447509765625,-0.002156894188374281,0.006922887172549963,-0.0007451524725183845
1772702174101525200,1.704525146484375,-0.002552107209339738,0.008449677377939224,-0.0012796488590538502
1772702174111574500,1.714574462890625,-0.0011403656098991632,0.008353536948561668,0.0000804274677648209
1772702174121624300,1.724624267578125,-0.0008724515791982412,0.004827245604246855,-0.0022951122373342514
1772702174131673300,1.73467333984375,-0.0023928501177579165,0.006943393498659134,-0.0001430117554264143
1772702174141723400,1.744723388671875,-0.0008279767935164273,0.006066680885851383,-0.00034168356796726584
1772702174151772200,1.754772216796875,-0.0022485069930553436,0.0070794811472296715,-0.003412574529647827
1772702174161822200,1.764822265625,-0.00016351809608750045,0.005852296482771635,-0.00021145498612895608
1772702174171871500,1.77487158203125,0.0026549051981419325,0.005667206831276417,0.00199337606318295
1772702174181921300,1.78492138671875,-0.0009659285424277186,0.005540440324693918,0.0003989415417890996
1772702174191970300,1.79497021484375,0.0000857537888805382,0.006308229640126228,-0.00019734023953787982
1772702174202020400,1.805020263671875,-0.0012958941515535116,0.007378820329904556,0.00038216362008824944
1772702174212069400,1.8150693359375,-0.00004846953015658073,0.008126369677484035,-0.0007012102869339287
1772702174222119400,1.825119384765625,-0.0010242518037557602,0.00600436283275485,0.0006506102508865297
1772702174232168200,1.835168212890625,-0.0012514194240793586,0.006265618838369846,0.0010479538468644023
1772702174242218200,1.84521826171875,-0.0016072177095338702,0.006930876523256302,0.00021598236344289035
1772702174252267300,1.855267333984375,-0.0009033442474901676,0.007817708887159824,0.0003009371866937727
1772702174262317300,1.8653173828125,-0.00028389296494424343,0.009518137201666832,0.0013132047606632113
1772702174272366300,1.875366455078125,-0.000975782226305455,0.0054570832289755344,-0.00042104575550183654
1772702174282416400,1.88541650390625,-0.0012303803814575076,0.007472829893231392,0.0011715245200321078
1772702174292465200,1.895465087890625,-0.00043516053119674325,0.006559898145496845,-0.00044554684427566826
1772702174302515200,1.90551513671875,-0.0012785836588591337,0.008923454210162163,-0.002192314248532057
1772702174312564500,1.915564453125,-0.0033220271579921246,0.008697884157299995,-0.0009139968897216022
1772702174322614500,1.925614501953125,-0.002094576135277748,0.009935455396771431,0.000568318588193506
1772702174332663300,1.935663330078125,-0.002463157754391432,0.00532499048858881,-0.003367567202076316
1772702174342713300,1.94571337890625,-0.0005986785981804132,0.008058193139731884,-0.000017843178284238093
1772702174352762000,1.95576220703125,-0.00033582461765035987,0.006613427773118019,0.0008487494196742773
1772702174362811400,1.965811279296875,0.0023486416321247816,0.005091165192425251,-0.0016098808264359832
1772702174372861400,1.975861328125,0.0008380967774428427,0.008926915936172009,-0.0013379721203818917
1772702174382910200,1.98591015625,-0.001145425601862371,0.00580915343016386,0.0004442152567207813
1772702174392960300,1.995960205078125,-0.0010226538870483637,0.006916495505720377,0.0013022858183830976
1772702174403009500,2.006009521484375,-0.0018405106384307146,0.005842442624270916,0.0013701963471248746
1772702174413059300,2.016059326171875,0.0023086944129318,0.006082660052925348,0.0011728560784831643
1772702174423108400,2.0261083984375,-0.002528937766328454,0.008674714714288712,0.0013339773286134005
1772702174433158400,2.036158447265625,0.000811997801065445,0.0052951630204916,-0.0005251753609627485
1772702174443207200,2.046207275390625,-0.000636495475191623,0.007670702878385782,0.0002466087171342224
1772702174453257200,2.05625732421875,-0.0008625978953205049,0.006895190104842186,0.001026382320560515
1772702174463306500,2.066306396484375,-0.002186721656471491,0.005674663465470076,-0.002189118415117264
1772702174473356300,2.076356201171875,-0.001585646066814661,0.00854421965777874,-0.0015789881581440568
1772702174483405300,2.0864052734375,-0.0015968313673511147,0.006963367108255625,0.00042530681821517646
1772702174493455400,2.096455322265625,0.003582217963412404,0.004712729714810848,0.0015214639715850353
1772702174503504400,2.10650439453125,-0.002808836055919528,0.00743261631578207,0.00028762139845639467
1772702174513554400,2.116554443359375,-0.0003147856332361698,0.007396130822598934,-0.0014333132421597838
1772702174523603200,2.126603271484375,-0.001686579897068441,0.007214503362774849,-0.0022748722694814205
1772702174533653200,2.1366533203125,-0.0033358754590153694,0.007753793615847826,-0.0031321437563747168
1772702174543702300,2.146702392578125,-0.003355849301442504,0.006964432541280985,-0.0012250541476532817
1772702174553752300,2.15675244140625,-0.0008050735923461616,0.007389206904917955,0.0046876962296664715
1772702174563801300,2.16680126953125,-0.0015278555219992995,0.007574030198156834,0.0014263890916481614
1772702174573851400,2.176851318359375,-0.0015824503498151898,0.006178267300128937,-0.002027997048571706
1772702174583900200,2.186900146484375,-0.0036698358599096537,0.007769239600747824,-0.002034388715401292
1772702174593950200,2.1969501953125,-0.0029172266367822886,0.007567904889583588,-0.0015417039394378662
1772702174603999200,2.206999267578125,-0.0027630296535789967,0.007505586836487055,-0.0014285196084529161
1772702174614049300,2.21704931640625,-0.0012183962389826775,0.006428604479879141,0.0011760519118979573
1772702174624098300,2.227098388671875,-0.0014048174489289522,0.006869623903185129,-0.00019228023302275687
1772702174634147000,2.23714697265625,-0.0011001517996191978,0.009433449245989323,-0.0011241203173995018
1772702174644197000,2.247197021484375,-0.0002950782363768667,0.009703227318823338,0.00005406216951087117
1772702174654246400,2.257246337890625,-0.0010910971323028207,0.006487193983048201,-0.0003656520275399089
1772702174664296200,2.267296142578125,-0.00006471481174230576,0.006111155729740858,-0.0007456850726157427
1772702174674345200,2.27734521484375,-0.0005986785981804132,0.005028847139328718,0.001989913871511817
1772702174684395300,2.287395263671875,-0.0034527883399277925,0.00487145408987999,-0.0013938985066488385
1772702174694444300,2.2974443359375,-0.002686064224690199,0.007731955498456955,-0.0012596751330420375
1772702174704494300,2.307494384765625,0.000657534459605813,0.006892793346196413,0.002671416848897934
1772702174714543400,2.31754345703125,-0.001787779969163239,0.008594286628067493,-0.0032378712203353643
1772702174724593200,2.32759326171875,-0.0010223875287920237,0.006581203546375036,0.001537709147669375
1772702174734642200,2.33764208984375,-0.0005491438205353916,0.009400958195328712,0.00024394555657636374
1772702174744692200,2.347692138671875,-0.001148355077020824,0.008831574581563473,0.0022887205705046654
1772702174754741200,2.3577412109375,-0.002487126039341092,0.005960953421890736,-0.0020804614759981632
1772702174764791300,2.367791259765625,-0.001731587341055274,0.00711596617475152,-0.001133707701228559
1772702174774840000,2.377840087890625,-0.0015028218040242791,0.007390005514025688,-0.0026285399217158556
1772702174784890000,2.38789013671875,-0.0012327772565186024,0.009689378552138805,0.0008266451768577099
1772702174794939400,2.397939453125,-0.0013856426812708378,0.006869091186672449,-0.003120958572253585
1772702174804989400,2.407989501953125,-0.0018458369886502624,0.006828344892710447,-0.001065264455974102
1772702174815038200,2.4180380859375,-0.0018359832465648651,0.006522081326693296,-0.0008314388687722385
1772702174825088300,2.428088134765625,0.000040746363083599135,0.008449943736195564,0.0005672533297911286
1772702174835137000,2.438136962890625,-0.00279125920496881,0.009814813733100891,-0.0030988543294370174
1772702174845187000,2.44818701171875,-0.002204830991104245,0.009497098624706268,-0.0023616913240402937
1772702174855236400,2.458236328125,-0.00004394215648062527,0.006804376374930143,0.0020730046089738607
1772702174865286400,2.468286376953125,-0.00033182985498569906,0.006702643819153309,0.000005592638444795739
1772702174875335200,2.478335205078125,-0.0026852653827518225,0.005813147872686386,-0.005501291714608669
1772702174885385200,2.48838525390625,0.0018679412314668298,0.004847751930356026,0.001020523370243609
1772702174895434200,2.498434326171875,0.0019592875614762306,0.007948470301926136,0.00010839065362233669
1772702174905483300,2.508483154296875,-0.00044288369826972485,0.007452057208865881,-0.0014053500490263104
1772702174915533300,2.518533203125,0.00020160128769930452,0.006061088293790817,0.0015712650492787361
1772702174925582000,2.52858203125,0.0004572647449094802,0.007893609814345837,-0.001603755634278059
1772702174935632100,2.538632080078125,0.0013427657540887594,0.007595601491630077,-0.0011113371001556516
1772702174945681400,2.548681396484375,-0.0008876316132955253,0.007136206608265638,-0.00009933590627042577
1772702174955731200,2.558731201171875,-0.0004450142150744796,0.007645935285836458,-0.000027696874894900247
1772702174965780200,2.5687802734375,-0.00034940673504024744,0.00392736354842782,0.001198955113068223
1772702174975830300,2.578830322265625,0.001029311795718968,0.0062187472358345985,0.0014410364674404263
1772702174985879300,2.58887939453125,-0.00016431703988928348,0.006883472204208374,0.0004471447318792343
1772702174995929300,2.598929443359375,-0.001657551503740251,0.006114085204899311,-0.0016879114555194974
1772702175005978400,2.608978271484375,0.0009922938188537955,0.00923504400998354,0.0017387778498232365
1772702175016028200,2.619028076171875,-0.00227833422832191,0.0070579093880951405,0.0024165522772818804
1772702175026077200,2.6290771484375,-0.004447212442755699,0.006071740761399269,-0.0024794030468910933
1772702175036127200,2.639127197265625,-0.0024825986474752426,0.0075812204740941525,-0.0002892192860599607
1772702175046176300,2.64917626953125,-0.001832521171309054,0.005832855589687824,-0.0025182850658893585
1772702175056226300,2.659226318359375,0.0003057308786083013,0.00615163566544652,-0.0015805860748514533
1772702175066275000,2.669275146484375,-0.00001704423084447626,0.007755924016237259,-0.0008415589109063148
1772702175076325000,2.6793251953125,-0.0006143912323750556,0.006719155237078667,-0.0003230414295103401
1772702175086374400,2.68937451171875,-0.0013712616637349129,0.007797735743224621,0.0025276062078773975
1772702175096424400,2.699424560546875,-0.0008780442294664681,0.006215285509824753,-0.0018610169645398855
1772702175106473200,2.70947314453125,-0.00045566685730591416,0.007167631760239601,0.0001536643976578489
1772702175116523300,2.719523193359375,-0.0004546015989035368,0.006573480553925037,-0.0015401060227304697
1772702175126572000,2.729572021484375,0.0001512675517005846,0.007226221263408661,0.0017928400775417686
1772702175136622000,2.7396220703125,-0.0023459785152226686,0.006857106927782297,-0.000012250540748937055
1772702175146671400,2.74967138671875,-0.0010274475207552314,0.005245095584541559,-0.0012229235144332051
1772702175156721200,2.75972119140625,-0.0019321233266964555,0.008527175523340702,0.0003025351034011692
1772702175166770200,2.769770263671875,-0.0018977685831487179,0.008070709183812141,0.00015419702685903758
1772702175176819200,2.779819091796875,0.0012740562669932842,0.008248874917626381,0.0009387642494402826
1772702175186869200,2.789869140625,-0.00375958438962698,0.00905528012663126,-0.0009214537567459047
1772702175196918300,2.799918212890625,-0.0016908409306779504,0.006602242588996887,-0.002769687445834279
1772702175206968300,2.80996826171875,-0.0005728459218516946,0.006970824208110571,0.0015635418239980936
1772702175217017000,2.82001708984375,0.00247540813870728,0.008856075815856457,0.0002798982313834131
1772702175227067100,2.830067138671875,-0.0009179916232824326,0.004893824923783541,-0.00043302998528815806
1772702175237116400,2.840116455078125,-0.003029345767572522,0.008464591577649117,-0.00009507485083304346
1772702175247166200,2.850166259765625,-0.0012444951571524143,0.005936185829341412,0.0015504923649132252
1772702175257215200,2.86021533203125,0.000041545314161339775,0.005964149255305529,0.0014743260107934475
1772702175267265300,2.870265380859375,-0.002168345730751753,0.00800279900431633,0.00033396040089428425
1772702175277314300,2.880314208984375,-0.0032751555554568768,0.009356217458844185,-0.0011544802691787481
1772702175287364400,2.8903642578125,-0.0004426173691172153,0.0072778863832354546,-0.0008463526028208435
1772702175297413400,2.900413330078125,-0.0008932242053560913,0.0076869479380548,-0.00008202536264434457
1772702175307463200,2.910463134765625,-0.0020722055342048407,0.006359894759953022,-0.0004972121678292751
1772702175317512200,2.92051220703125,-0.0036914076190441847,0.0065473816357553005,-0.0011004181578755379
1772702175327562200,2.930562255859375,-0.0019891150295734406,0.007782022934406996,0.0011291803093627095
1772702175337611300,2.940611328125,-0.0025190841406583786,0.006025934591889381,0.0023845944087952375
1772702175347661300,2.950661376953125,-0.0012815131340175867,0.007759918924421072,-0.0011936287628486753
1772702175357710000,2.9607099609375,-0.004095409065485001,0.0057553574442863464,-0.0033308155834674835
1772702175367760100,2.970760009765625,-0.001275920425541699,0.006882673595100641,0.0006135923322290182
1772702175377809400,2.980809326171875,0.0010037453612312675,0.0073260897770524025,0.0003246393462177366
1772702175387859500,2.990859375,-0.0021020330023020506,0.008891762234270573,-0.00015765913121867925
1772702175397908200,3.000908203125,-0.0022953785955905914,0.008156463503837585,-0.0015574166318401694
1772702175407958300,3.010958251953125,-0.0007688545738346875,0.006564692128449678,-0.0014421016676351428
1772702175418007000,3.021007080078125,0.00041332258842885494,0.007874434813857079,-0.00017736652807798237
1772702175428057000,3.03105712890625,-0.0006538060260936618,0.005890912376344204,0.000609863898716867
1772702175438106400,3.0411064453125,-0.0005214469274505973,0.007995075546205044,-0.001141963410191238
1772702175448155100,3.051155029296875,-0.0007462177309207618,0.007890413515269756,-0.0026162895374000072
1772702175458205200,3.061205078125,-0.00031664984999224544,0.007689611054956913,-0.002426672261208296
1772702175468254200,3.071254150390625,-0.0010426276130601764,0.007059241179376841,-0.0005089300684630871
1772702175478304300,3.08130419921875,-0.0011856392957270145,0.008481635712087154,-0.0012237224727869034
1772702175488353300,3.091353271484375,-0.0015912387752905488,0.008756473660469055,0.0007685882737860084
1772702175498403300,3.1014033203125,-0.001228516222909093,0.010129067115485668,-0.00017363809456583112
1772702175508452000,3.1114521484375,-0.002377137541770935,0.006922887172549963,-0.00030892668291926384
1772702175518502100,3.121502197265625,-0.0008673915872350335,0.008864864706993103,-0.0012229235144332051
1772702175528551400,3.131551513671875,-0.001826662220992148,0.007763647008687258,-0.0004588626616168767
1772702175538601200,3.141601318359375,-0.0010628675809130073,0.00595562718808651,-0.00048123320448212326
1772702175548650200,3.151650146484375,-0.0006135923322290182,0.008833439089357853,0.0011638014111667871
1772702175558700300,3.1617001953125,0.00012543488992378116,0.00833809096366167,0.00022397184511646628
1772702175568749300,3.171749267578125,-0.002264485927298665,0.006828877609223127,-0.00015899071877356619
1772702175578800000,3.181800048828125,0.0005358280031941831,0.0052200620993971825,-0.0004367584188003093
1772702175588849200,3.19184912109375,-0.0009677927591837943,0.00714739179238677,0.0006559365428984165
1772702175598899200,3.201899169921875,-0.0011163970921188593,0.00759933004155755,-0.00017683389887679368
1772702175608948000,3.211947998046875,-0.0005805690889246762,0.0072957295924425125,-0.0006588660762645304
1772702175618998000,3.221998046875,-0.001377653214149177,0.007523962762206793,-0.004415787290781736
1772702175629047000,3.232047119140625,-0.0032463932875543833,0.006325806491076946,-0.001413073274306953
1772702175639097000,3.24209716796875,0.00031904669594950974,0.007275489624589682,-0.0010809770319610834
1772702175649146000,3.25214599609375,0.0004649879119824618,0.005248557776212692,-0.0007669904152862728
1772702175659196200,3.262196044921875,0.0012311793398112059,0.007231281138956547,-0.0009171926649287343
1772702175669245000,3.272244873046875,-0.0024322650860995054,0.009350358508527279,0.0013427657540887594
1772702175679295000,3.282294921875,0.0018016285030171275,0.005104747135192156,-0.0010724549647420645
1772702175689344300,3.29234423828125,-0.00024820660473778844,0.0067937239073216915,-0.00003222424857085571
1772702175699393000,3.30239306640625,-0.00031185615807771683,0.0049404301680624485,-0.0014740596525371075
1772702175709443000,3.312443115234375,0.00019867181254085153,0.00555189186707139,-0.001427987008355558
1772702175719492000,3.3224921875,-0.0016652746126055717,0.00615190202370286,0.00041731735109351575
1772702175729542100,3.332542236328125,-0.002237321576103568,0.0070674968883395195,-0.0004647216119337827
1772702175739591200,3.342591064453125,0.0006793724023737013,0.005970274563878775,-0.001511343871243298
1772702175749641200,3.35264111328125,0.0003502056933939457,0.004779042676091194,-0.0016578177455812693
1772702175759690000,3.36268994140625,-0.0036495958920568228,0.004125769250094891,-0.0016293219523504376
1772702175769740000,3.372739990234375,-0.0033894050866365433,0.006560164503753185,-0.0014535533264279366
1772702175779789300,3.382789306640625,0.0011584750609472394,0.006577474996447563,-0.0005877596559002995
1772702175789839000,3.392839111328125,-0.0036567864008247852,0.008247011341154575,-0.0008458199445158243
1772702175799888100,3.40288818359375,0.0006844323943369091,0.009563145227730274,0.000553404854144901
1772702175809938200,3.412938232421875,-0.006049903109669685,0.006786533165723085,0.001234907773323357
1772702175819987000,3.422987060546875,-0.00027750138542614877,0.008637430146336555,0.0010074737947434187
1772702175830037000,3.433037109375,-0.0014471617760136724,0.00788242369890213,-0.001999235013499856
1772702175840086300,3.443086181640625,-0.0034762241411954165,0.009456352330744267,-0.003933488857001066
1772702175850136000,3.453135986328125,0.0002937466779258102,0.00686003640294075,0.00148151651956141
1772702175860185000,3.46318505859375,0.00044900894863530993,0.009661948308348656,0.00004953479583491571
1772702175870235100,3.473235107421875,-0.00301656243391335,0.009348494000732899,-0.0013353090034797788
1772702175880284200,3.4832841796875,-0.002344913315027952,0.007907457649707794,-0.0012298477813601494
1772702175890334200,3.493334228515625,0.000019707391402334906,0.007193197961896658,0.0006122607155703008
1772702175900383000,3.503383056640625,-0.0006681871018372476,0.005825132131576538,-0.0004964132094755769
1772702175910433000,3.51343310546875,0.0013614079216495156,0.009910687804222107,-0.002424808219075203
1772702175920482000,3.52348193359375,-0.0012602078495547175,0.007443002425134182,-0.0004367584188003093
1772702175930532000,3.533531982421875,-0.0012564794160425663,0.007994542829692364,0.000571248063351959
1772702175940581000,3.5435810546875,-0.002989398315548897,0.0059966398403048515,-0.002517219865694642
1772702175950631200,3.553631103515625,-0.003284476464614272,0.009956493973731995,0.0014538196846842766
1772702175960680000,3.563679931640625,-0.00021385183208622038,0.008130364120006561,0.0005581985460594296
1772702175970729200,3.573729248046875,0.0013712616637349129,0.0060054282657802105,0.0005131911602802575
1772702175980779300,3.583779296875,-0.0015326491557061672,0.007786550559103489,-0.0006298375665210187
1772702175990828000,3.593828125,-0.0030059099663048983,0.008930111303925514,-0.0019291938515380025
1772702176000878000,3.603878173828125,0.0004791026876773685,0.007437942549586296,-0.0003307645965833217
1772702176010927000,3.613927001953125,-0.0009914948605000973,0.007423561532050371,0.0014210627414286137
1772702176020977000,3.623976806640625,-0.0017662084428593516,0.007259777281433344,-0.0004703142330981791
1772702176031026200,3.634026123046875,-0.0007241134881041944,0.008185491897165775,-0.002394980750977993
1772702176041076200,3.644076171875,-0.003543335711583495,0.007453122641891241,0.0031292142812162638
1772702176051125000,3.654125,-0.0015009575290605426,0.005939115304499865,0.0004948153509758413
1772702176061175000,3.664175048828125,-0.001660480978898704,0.0075902752578258514,-0.00028043086058460176
1772702176071224300,3.674224365234375,-0.0023278691805899143,0.00811997801065445,-0.000036218989407643676
1772702176081274000,3.684274169921875,-0.00006391586794052273,0.007672034204006195,-0.001985120354220271
1772702176091323100,3.6943232421875,-0.0007635282818228006,0.009764746762812138,-0.001193362521007657
1772702176101373200,3.704373291015625,-0.0013496900210157037,0.006252835970371962,0.0006420881254598498
1772702176111422000,3.714421875,-0.003117762738838792,0.006990265101194382,0.0006154565489850938
1772702176121472000,3.724471923828125,-0.0026221484877169132,0.007413974031805992,-0.001365402713418007
1772702176131521300,3.734521240234375,-0.0010849718237295747,0.007283479440957308,0.001207743538543582
1772702176141571000,3.744571044921875,-0.0020037624053657055,0.0056986319832503796,0.0015337144723162055
1772702176151620000,3.7546201171875,-0.0006886934279464185,0.008406001143157482,-0.0009976201690733433
1772702176161670100,3.764670166015625,-0.00279019377194345,0.008199340663850307,0.0014772554859519005
1772702176171719200,3.77471923828125,-0.0016136092599481344,0.008233695290982723,0.001228782464750111
1772702176181769200,3.784769287109375,-0.002007490722462535,0.008069644682109356,-0.0008767126128077507
1772702176191818000,3.79481787109375,-0.0023342606145888567,0.007796670310199261,0.0024706146214157343
1772702176201868000,3.804867919921875,-0.0006205165409483016,0.006614493206143379,-0.0012229235144332051
1772702176211917000,3.8149169921875,-0.000019707391402334906,0.004984638653695583,-0.0006032059900462627
1772702176221966000,3.824966064453125,-0.0014088122406974435,0.005948436446487904,0.0033249566331505775
1772702176232016100,3.83501611328125,-0.0015691345324739814,0.009244897402822971,-0.001716673607006669
1772702176242065200,3.845065185546875,-0.0015672702575102448,0.007207046262919903,-0.0007957525085657835
1772702176252115000,3.855114990234375,-0.002487392397597432,0.007397728972136974,-0.0010375675046816468
1772702176262164200,3.865164306640625,-0.002317216480150819,0.006991863250732422,0.0006271744496189058
1772702176272214300,3.87521435546875,-0.0009384979493916035,0.005309011787176132,-0.0012120045721530914
1772702176282263000,3.885262939453125,-0.0014231932582333684,0.0067966533824801445,0.0006631271098740399
1772702176292313000,3.89531298828125,-0.0019273296929895878,0.00782729685306549,0.002660498023033142
1772702176302362000,3.905362060546875,-0.0004207794554531574,0.005909820552915335,-0.0019233349012210965
1772702176312412000,3.915411865234375,0.0004673847579397261,0.0073652383871376514,-0.0035931370221078396
1772702176322461200,3.925461181640625,-0.0022413162514567375,0.008538360707461834,-0.001487375469878316
1772702176332511200,3.93551123046875,-0.0019747340120375156,0.0073386067524552345,-0.0013339773286134005
1772702176342560000,3.94556005859375,-0.0015454323729500175,0.01104386243969202,-0.0032807481475174427
1772702176352610000,3.955610107421875,-0.0007800398743711412,0.006909837480634451,-0.0012277172645553946
1772702176362659300,3.965659423828125,-0.00041199102997779846,0.01079512294381857,-0.0006564692012034357
1772702176372709000,3.975709228515625,-0.0013081447687000036,0.008137288503348827,-0.0014298511669039726
1772702176382758100,3.985758056640625,-0.0012516856659203768,0.006330333650112152,0.0006114617572166026
1772702176392808200,3.99580810546875,-0.0006263754912652075,0.008055529557168484,-0.0026732811238616705
1772702176402857000,4.00585693359375,-0.0021134845446795225,0.00749093946069479,-0.001115864492021501
1772702176412907000,4.015906982421875,-0.0011012171162292361,0.0065564364194869995,0.00256382510997355
1772702176422956000,4.0259560546875,-0.0016974988393485546,0.007645402569323778,-0.0012897689593955874
1772702176433006000,4.036006103515625,-0.002514024032279849,0.0073143718764185905,0.00005832322858623229
1772702176443055000,4.04605517578125,-0.00043835630640387535,0.008812133222818375,0.0005837649223394692
1772702176453105200,4.056105224609375,-0.000371777277905494,0.007845672778785229,-0.0015153386630117893
1772702176463154200,4.066154296875,-0.0012330436147749424,0.006223541218787432,-0.0011587414192035794
1772702176473204200,4.076204345703125,-0.002168345730751753,0.008844890631735325,-0.00001997370782191865
1772702176483253000,4.0862529296875,-0.00006231796578504145,0.00726510351523757,0.002412557601928711
1772702176493302000,4.096302001953125,0.0001512675517005846,0.006885869428515434,0.0001579254458192736
1772702176503352000,4.10635205078125,-0.0031190942972898483,0.0054765245877206326,-0.0000029294772048160667
1772702176513401000,4.116401123046875,0.0010122675448656082,0.008652077987790108,-0.0010388991795480251
1772702176523451100,4.126451171875,-0.0005962817813269794,0.007516505662351847,-0.00038482676609419286
1772702176533500200,4.136500244140625,0.0001536643976578489,0.0049255164340138435,-0.0012711267918348312
1772702176543550000,4.146550048828125,0.0021084246691316366,0.007497331127524376,0.0031795480754226446
1772702176553599200,4.15659912109375,0.002838397165760398,0.008869658224284649,0.0007057376787997782
1772702176563649300,4.166649169921875,-0.0010543455136939883,0.006599845830351114,0.0037377465050667524
1772702176573696800,4.17669677734375,0.001383778522722423,0.006660832092165947,0.0032929987646639347
1772702176583746800,4.186746826171875,-0.0009142631897702813,0.009699232876300812,-0.0012751214671880007
1772702176593795800,4.1967958984375,-0.0006580671179108322,0.008686166256666183,-0.0032900692895054817
1772702176603846000,4.206845947265625,0.0028218855150043964,0.004066913388669491,0.0006897587445564568
1772702176613894700,4.216894775390625,-0.0015907060587778687,0.007625428959727287,-0.0016793893883004785
1772702176623944700,4.22694482421875,-0.00026045716367661953,0.006316751707345247,0.0012884372845292091
1772702176633994000,4.236993896484375,-0.0007717840489931405,0.004818989895284176,-0.0010697918478399515
1772702176644044000,4.2470439453125,-0.002950782421976328,0.00683233980089426,-0.0011238539591431618
1772702176654092800,4.2570927734375,-0.0035547874867916107,0.007807855494320393,-0.0015568839153274894
1772702176664142800,4.267142822265625,0.00007829693640815094,0.005839246790856123,0.0003808320325333625
1772702176674191600,4.277191650390625,-0.0000577905957470648,0.00800439715385437,-0.0005017395596951246
1772702176684241700,4.28724169921875,-0.002588059986010194,0.006762032397091389,-0.0014434333425015211
1772702176694291000,4.297291015625,-0.001284975209273398,0.007059241179376841,-0.0004977448261342943
1772702176704341000,4.307341064453125,-0.0006170544074848294,0.005964149255305529,0.0023369237314909697
1772702176714389800,4.3173896484375,0.0008732505375519395,0.006876281928271055,0.0006439523422159255
1772702176724439800,4.327439697265625,-0.0018777948571369052,0.007239536847919226,-0.00023222764139063656
1772702176734488800,4.33748876953125,0.0007142598042264581,0.005849633365869522,0.00021784658019896597
1772702176744537900,4.347537841796875,-0.001320927869528532,0.00689092930406332,-0.0013073458103463054
1772702176754588000,4.357587890625,0.0008072041091509163,0.006954312324523926,-0.00227886694483459
1772702176764636700,4.36763671875,-0.003571032779291272,0.007709052413702011,-0.0023901870008558035
1772702176774686700,4.377686767578125,-0.0011582087026908994,0.007867510430514812,-0.00012064119800925255
1772702176784736000,4.387736083984375,0.0006732470938004553,0.007382548879832029,-0.001740642124786973
1772702176794785800,4.397785888671875,-0.0005456816870719194,0.007849400863051414,-0.0001174454009742476
1772702176804834800,4.407834716796875,-0.0009941579774022102,0.007546865846961737,0.0025531724095344543
1772702176814884900,4.417884765625,-0.0032463932875543833,0.008340488187968731,-0.0012434299569576979
1772702176824934000,4.427933837890625,-0.00010359696898376569,0.006647516507655382,-0.0009869674686342478
1772702176834984000,4.43798388671875,-0.0020959076937288046,0.008972189389169216,-0.0004825647920370102
1772702176845033000,4.448032958984375,-0.0014852449530735612,0.006341519299894571,-0.0014831144362688065
1772702176855082800,4.458082763671875,0.0013899037148803473,0.007811584044247866,-0.0005102616851218045
1772702176865131800,4.4681318359375,0.002439455594867468,0.006362291984260082,0.0025566346012055874
1772702176875181800,4.478181884765625,-0.003733751829713583,0.008039018139243126,0.0012833772925660014
1772702176885230800,4.48823095703125,-0.0009291769238188863,0.004775580484420061,-0.0009179916232824326
1772702176895281000,4.498281005859375,-0.0018242653459310532,0.008962868712842464,0.0010359697043895721
1772702176905329700,4.50832958984375,-0.0006245112745091319,0.005514607764780521,-0.0004897553008049726
1772702176915379700,4.518379638671875,-0.0025129588320851326,0.00780492601916194,0.00013688647595699877
1772702176925429000,4.528428955078125,-0.0010823087068274617,0.007860852405428886,0.0015009575290605426
1772702176935479000,4.53847900390625,-0.001255414099432528,0.006077067460864782,-0.0022056300658732653
1772702176945527800,4.54852783203125,-0.0014652712270617485,0.005966546013951302,-0.0002492718631401658
1772702176955577900,4.558577880859375,-0.0018431737553328276,0.00740119069814682,-0.003733219113200903
1772702176965626600,4.568626708984375,0.0000804274677648209,0.006982808467000723,-0.00002210423735959921
1772702176975676000,4.578676025390625,-0.002120941411703825,0.00726403808221221,-0.0032320122700184584
1772702176985726000,4.588725830078125,-0.00045380264054983854,0.005627259146422148,-0.000014114753867033869
1772702176995774700,4.598774658203125,-0.0006356965750455856,0.009692308492958546,0.0012916331179440022
1772702177005824800,4.60882470703125,0.0001816275907913223,0.004090349189937115,-0.0016524913953617215
1772702177015873800,4.618873779296875,-0.0011142665753141046,0.007196926511824131,-0.0015574166318401694
1772702177025923800,4.628923828125,-0.0037974014412611723,0.00672315014526248,-0.003082609036937356
1772702177035972900,4.638972900390625,0.0004394215648062527,0.006090915761888027,-0.0010602044640108943
1772702177046023000,4.64902294921875,0.001026115962304175,0.0075758942402899265,-0.0009201221400871873
1772702177056071700,4.65907177734375,-0.0006173207075335085,0.0058080879971385,-0.0008154599345289171
1772702177066121700,4.669121826171875,-7.989483492565341e-7,0.006388390902429819,-0.0015691345324739814
1772702177076171000,4.6791708984375,0.0009472863748669624,0.008188687264919281,0.00010572749306447804
1772702177086220800,4.689220703125,-0.0025249430909752846,0.007565774489194155,-0.0012721919920295477
1772702177096269800,4.699269775390625,-0.0022445120848715305,0.005309810396283865,0.001071123406291008
1772702177106320000,4.70931982421875,-0.0010713896481320262,0.005942311137914658,-0.002020274056121707
1772702177116369000,4.719368896484375,-0.001347293145954609,0.008294947445392609,-0.0013880395563319325
1772702177126419000,4.7294189453125,-0.001116130850277841,0.0070680296048521996,-0.0013017531018704176
1772702177136468000,4.739468017578125,-0.000999484327621758,0.008535165339708328,-0.0008612662786617875
1772702177146517800,4.749517822265625,-0.0019446401856839657,0.00686190091073513,-0.000395745737478137
1772702177156566800,4.75956689453125,-0.0014942996203899384,0.007423561532050371,-0.000740625080652535
1772702177166616800,4.769616943359375,-0.0010820423485711217,0.005616340320557356,-0.0012183962389826775
1772702177176665900,4.779665771484375,-0.0026410568971186876,0.006442452780902386,-0.0003203782835043967
1772702177186716000,4.7897158203125,0.0005203816690482199,0.005661880597472191,-0.0012937636347487569
1772702177196764700,4.7997646484375,-0.00001304948909819359,0.008164453320205212,-0.0012082761386409402
1772702177206813700,4.809813720703125,-0.0005347627447918057,0.007227818947285414,0.0013978932984173298
1772702177216863700,4.81986376953125,-0.001062334980815649,0.005887183826416731,0.0009784454014152288
1772702177226912800,4.829912841796875,-0.001020257011987269,0.007595335599035025,0.0008008125587366521
1772702177236962800,4.839962890625,-0.0008426241693086922,0.009601760655641556,-0.0022149509750306606
1772702177247011800,4.85001171875,-0.0013600763631984591,0.008371912874281406,-0.002424808219075203
1772702177257061600,4.8600615234375,-0.0012958941515535116,0.007135407533496618,-0.0018319884547963738
1772702177267111000,4.87011083984375,-0.0025478461757302284,0.006878945045173168,-0.0005531385540962219
1772702177277161000,4.880160888671875,-0.002234658459201455,0.009063536301255226,-0.0014817827614024282
1772702177287209700,4.890209716796875,-0.0008127967594191432,0.006314887665212154,-0.002427737694233656
1772702177297259800,4.900259765625,0.0018152105621993542,0.005003014579415321,0.0020873856265097857
1772702177307308800,4.910308837890625,-0.0016871124971657991,0.007757521700114012,-0.0015475628897547722
1772702177317358800,4.92035888671875,-0.0023987090680748224,0.0068182251416146755,-0.0015251922886818647
1772702177327407900,4.930407958984375,-0.000642354425508529,0.00506932707503438,0.0013811152894049883
1772702177337458000,4.9404580078125,-0.002386725042015314,0.010006029158830643,0.001079645473510027
1772702177347506700,4.950506591796875,-0.003222425002604723,0.0065561700612306595,-0.0023840616922825575
1772702177357556700,4.960556640625,-0.0007054713787510991,0.007781490217894316,0.00019228023302275687
1772702177367606000,4.97060595703125,-0.0021758025977760553,0.006435262504965067,-0.00012783173588104546
1772702177377655800,4.98065576171875,-0.0013930995482951403,0.008344482630491257,0.0004170510219410062
1772702177387704800,4.990704833984375,-0.0007094661123119295,0.007156712934374809,-0.0006926882197149098
1772702177397755000,5.0007548828125,0.0013728595804423094,0.007340204436331987,-0.0011741877533495426
1772702177407803600,5.0108037109375,-0.0034677020739763975,0.0070619042962789536,-0.0009177253232337534
1772702177417854000,5.02085400390625,-0.0018663433147594333,0.007851531729102135,-0.0005044027348048985
1772702177427902700,5.03090283203125,-0.00027856664382852614,0.007456052117049694,-0.0005187837523408234
1772702177437952800,5.040952880859375,0.00021598236344289035,0.0075692362152040005,-0.00032916670897975564
1772702177448001800,5.051001708984375,-0.000916393706575036,0.00717482203617692,-0.00007004113285802305
1772702177458050800,5.06105078125,0.0008245146600529552,0.005768673028796911,-0.002478603972122073
1772702177468100900,5.071100830078125,-0.0004966795677319169,0.007729825098067522,-0.0004844290087930858
1772702177478150000,5.08114990234375,-0.0016471651615574956,0.007907990366220474,-0.0018516959389671683
1772702177488199700,5.09119970703125,0.0017531589837744832,0.00612367270514369,-0.00047830372932367027
1772702177498248700,5.101248779296875,-0.0046426886692643166,0.007327953819185495,0.0004242415598127991
1772702177508298800,5.111298828125,-0.0025358619168400764,0.007585481740534306,-0.0022570290602743626
1772702177518347800,5.12134765625,-0.0004511394945438951,0.007822769694030285,-0.002609098795801401
1772702177528397800,5.131397705078125,-0.0014346449170261621,0.007170561235398054,-0.0015566176734864712
1772702177538446800,5.14144677734375,-0.0024471788201481104,0.00836978293955326,0.0012743226252496243
1772702177548496600,5.15149658203125,-0.0022000374738126993,0.0059694754891097546,-0.0004921521758660674
1772702177558546000,5.1615458984375,-0.00010839065362233669,0.007814247161149979,-0.0004601942200679332
1772702177568596000,5.171595947265625,-0.00016964336100500077,0.00552366254851222,0.0003531351685523987
1772702177578644500,5.18164453125,-0.0035425368696451187,0.009761017747223377,-0.0002663161139935255
1772702177588694500,5.191694580078125,-0.0024562333710491657,0.008822253905236721,0.00037390782381407917
1772702177598743600,5.20174365234375,-0.0013281183782964945,0.008917595259845257,-0.0013006879016757011
1772702177608793600,5.211793701171875,-0.000018109494703821838,0.00507039250805974,-0.0012780509423464537
1772702177618842600,5.221842529296875,-0.0021888520568609238,0.007483482826501131,0.0014253237750381231
1772702177628892700,5.231892578125,-0.0018112158868461847,0.007247260306030512,0.0015736619243398309
1772702177638941400,5.24194140625,-0.0015433018561452627,0.0054490938782691956,-0.0006655239267274737
1772702177648991500,5.251991455078125,-0.00227806787006557,0.006666424684226513,-0.0013108078856021166
1772702177659040800,5.262040771484375,0.0009688580175861716,0.007013967260718346,0.0026730147656053305
1772702177669090600,5.272090576171875,-0.0005203816690482199,0.006578274071216583,-0.0017310547409579158
1772702177679139600,5.2821396484375,-0.0026082999538630247,0.0075782909989356995,-0.0020967067684978247
1772702177689189600,5.292189697265625,-0.005805158521980047,0.00583605095744133,-0.0003427488263696432
1772702177699238700,5.30223876953125,-0.0034791536163538694,0.009347429499030113,-0.0013582120882347226
1772702177709287700,5.31228759765625,-0.0026618295814841986,0.010161557234823704,-0.0021699436474591494
1772702177719336400,5.32233642578125,0.0022913836874067783,0.006703975144773722,0.004314054735004902
1772702177729386500,5.332386474609375,-0.002600310370326042,0.008244614116847515,-0.0005491438205353916
1772702177739435800,5.342435791015625,-0.001207743538543582,0.008408132009208202,-0.00008442220860160887
1772702177749485600,5.352485595703125,0.00008548746700398624,0.007921040058135986,-0.0006673881434835494
1772702177759534600,5.36253466796875,-0.0014538196846842766,0.00752050057053566,-0.0007813714328221977
1772702177769584600,5.372584716796875,-0.002502572489902377,0.006925550289452076,-0.0015725966077297926
1772702177779633400,5.38263330078125,-0.0013073458103463054,0.008619853295385838,-0.0014863101532682776
1772702177789683500,5.392683349609375,0.0010295780375599861,0.006930344272404909,0.0012274509062990546
1772702177799732700,5.402732666015625,0.000480434246128425,0.00688933115452528,0.001116130850277841
1772702177809782500,5.412782470703125,-0.002222940558567643,0.007463508751243353,-0.0018165421206504107
1772702177819831600,5.42283154296875,-0.0026586337480694056,0.00842411071062088,-0.0022128205746412277
1772702177829881600,5.432881591796875,-0.000598145998083055,0.006018477492034435,-0.0001358212175546214
1772702177839930600,5.4429306640625,0.0022562299855053425,0.006936203222721815,-0.0005358280031941831
1772702177849980700,5.452980712890625,0.00012516857532318681,0.005720203742384911,-0.0009134642314165831
1772702177860029700,5.46302978515625,-0.0008013451588340104,0.00657587731257081,-0.00032570460462011397
1772702177870079500,5.47307958984375,-0.0009305084822699428,0.00711676524952054,-0.0012844426091760397
1772702177880128500,5.48312841796875,0.0008423578692600131,0.005890912376344204,-0.0005187837523408234
1772702177890178600,5.493178466796875,0.00022503710351884365,0.007613711059093475,0.0013374395202845335
1772702177900227600,5.5032275390625,-0.0025270734913647175,0.003805657150223851,0.00044022052315995097
1772702177910276600,5.513276611328125,-0.0024738102219998837,0.006874683778733015,0.00036618465674109757
1772702177920326700,5.52332666015625,-0.0006841660942882299,0.004815527703613043,-0.00042317630141042173
1772702177930375700,5.533375732421875,-0.0024612934794276953,0.007435812149196863,-0.0011052117915824056
1772702177940425700,5.54342578125,-0.0014106763992458582,0.008078432641923428,-0.0015126754296943545
1772702177950474500,5.553474609375,-0.0007699198904447258,0.008628109470009804,-0.00006471481174230576
1772702177960524500,5.563524658203125,0.002037584548816085,0.006629673298448324,0.0002495381922926754
1772702177970573600,5.573573486328125,0.00016964336100500077,0.008857407607138157,-0.0033787523861974478
1772702177980623600,5.58362353515625,-0.004174504894763231,0.008166316896677017,-0.00098190747667104
1772702177990672600,5.593672607421875,-0.0022359900176525116,0.007923436351120472,0.0024623586796224117
1772702178000722700,5.60372265625,0.0003352919884491712,0.009520534425973892,0.0005225121858529747
1772702178010771500,5.613771484375,-0.00028309403569437563,0.0060235378332436085,0.00016218650853261352
1772702178020821500,5.623821533203125,0.0014676681021228433,0.008844890631735325,0.000050600061513250694
1772702178030870800,5.633870849609375,0.0005819007055833936,0.006459231022745371,-0.00044821001938544214
1772702178040920600,5.643920654296875,-0.001371527905575931,0.008845956064760685,-0.0009598032338544726
1772702178050969600,5.653969482421875,-0.0007091998122632504,0.005584915168583393,-0.0011832424206659198
1772702178061019600,5.66401953125,0.00040426786290481687,0.007303453050553799,-0.0002996056282427162
1772702178071068400,5.674068359375,-0.002371811307966709,0.005840578582137823,-0.0014215953415259719
1772702178081118500,5.684118408203125,0.0013217268278822303,0.00737242866307497,-0.0017057546647265553
1772702178091167700,5.694167724609375,-0.0003304982965346426,0.006213154643774033,-0.0009068063227459788
1772702178101217500,5.704217529296875,-0.0023302659392356873,0.008714928291738033,-0.0023574302904307842
1772702178111266600,5.7142666015625,-0.001192829804494977,0.005574794951826334,0.0011906992876902223
1772702178121316600,5.724316650390625,-0.0014106763992458582,0.008565258234739304,-0.0022650184109807014
1772702178131365600,5.73436572265625,0.00019574233738239855,0.0065135592594742775,0.00046099317842163146
1772702178141415700,5.744415771484375,-0.001576857641339302,0.007929828017950058,-0.0004814995336346328
1772702178151464700,5.754464599609375,0.0007819040911272168,0.0051782503724098206,-0.0013992248568683863
1772702178161514500,5.764514404296875,-0.0009901633020490408,0.007161240093410015,0.00041305628838017583
1772702178171563500,5.7745634765625,-0.0014516890514642,0.00839668046683073,-0.0006495449924841523
1772702178181613600,5.784613525390625,-0.0006175870657898486,0.00634977500885725,-0.002654106356203556
1772702178191662600,5.79466259765625,-0.0010586065473034978,0.007172691635787487,-0.0012402341235429049
1772702178201712600,5.804712646484375,0.000597879639826715,0.006337258033454418,0.00152332813013345
1772702178211761700,5.81476171875,-0.0006548712844960392,0.007303186692297459,0.0021521004382520914
1772702178221810700,5.824810791015625,-0.0017638115677982569,0.006164152640849352,0.00023622238950338215
1772702178231860700,5.83486083984375,0.002207760466262698,0.005093828309327364,-0.0019542276859283447
1772702178241909500,5.844909423828125,-0.0026549051981419325,0.006672283634543419,-0.00020586235041264445
1772702178251959600,5.85495947265625,-0.00030892668291926384,0.0072989254258573055,-0.002666090615093708
1772702178262008600,5.865008544921875,0.0001597896625753492,0.005399026442319155,0.003703658003360033
1772702178272058600,5.87505859375,-0.0033190976828336716,0.007470699492841959,0.00039734362508170307
1772702178282107600,5.885107666015625,-0.0010988202411681414,0.0080898841843009,-0.0005696501466445625
1772702178292157700,5.89515771484375,0.0009744506096467376,0.00746217742562294,-0.00123783724848181
1772702178302206500,5.90520654296875,-0.003436543047428131,0.008665126748383045,-0.0016863135388121009
1772702178312256500,5.915256591796875,-0.002561428351327777,0.006042446009814739,-0.0003760383406188339
1772702178322305800,5.925305908203125,-0.0021909826900810003,0.006702643819153309,-0.0005488775204867125
1772702178332355600,5.93535546875,-0.0015656723408028483,0.005170527379959822,0.0018514295807108283
1772702178342404600,5.945404541015625,-0.0005392901366576552,0.007700530346482992,-0.002360359765589237
1772702178352454700,5.95545458984375,-0.0006857639527879655,0.005250688176602125,-0.0006705839768983424
1772702178362503400,5.96550341796875,-0.0018727348651736975,0.007924235425889492,0.00017470336752012372
1772702178372553500,5.975553466796875,-0.0021371867042034864,0.007852597162127495,-0.001680987305007875
1772702178382602800,5.985602783203125,-0.0012937636347487569,0.00689092930406332,0.0006998787284828722
1772702178392652500,5.995652587890625,-0.002094309777021408,0.007478422485291958,-0.0012713931500911713
1772702178402701600,6.00570166015625,-0.0022602248936891556,0.005795038305222988,-0.0025835325941443443
1772702178412751600,6.015751708984375,-0.003462908323854208,0.008351140655577183,-0.00012170646368758753
1772702178422800600,6.025800537109375,-0.002368881832808256,0.008043545298278332,-0.0005581985460594296
1772702178432850700,6.0358505859375,-0.0017989652696996927,0.008827580139040947,-0.0020487697329372168
1772702178442899700,6.045899658203125,-0.0012623383663594723,0.00478277076035738,-0.0010050770360976458
1772702178452949500,6.055949462890625,-0.0014021543320268393,0.00791491474956274,-0.001088700257241726
1772702178462998500,6.06599853515625,-0.0011576761025935411,0.006804642733186483,0.0001536643976578489
1772702178473047600,6.076047607421875,-0.0014674017438665032,0.007729026023298502,-0.0003158508916385472
1772702178483097600,6.08609765625,-0.0019204054260626435,0.00768801337108016,-0.0011443602852523327
1772702178493146600,6.096146728515625,-0.0012101404136046767,0.004709267523139715,-0.0015707324491813779
1772702178503196700,6.10619677734375,-0.003866909770295024,0.006622216198593378,-0.003564374754205346
1772702178513245700,6.11624560546875,0.00022184131375979632,0.003932956140488386,-0.0024762072134763002
1772702178523295700,6.126295654296875,0.0008396946941502392,0.006101035512983799,-0.0014053500490263104
1772702178533344500,6.136344482421875,-0.0012780509423464537,0.010281133465468884,-0.001811748486943543
1772702178543394600,6.14639453125,-0.0014647386269643903,0.006638994440436363,-0.00019813918333966285
1772702178553443600,6.156443603515625,-0.0003099919413216412,0.010072074830532074,0.0013840447645634413
1772702178563493400,6.166493408203125,-0.00024474450037814677,0.006656571291387081,-0.0026354643050581217
1772702178573542700,6.176542724609375,-0.00013635384675581008,0.006835002917796373,0.0034328147303313017
1772702178583592700,6.1865927734375,-0.0008591357618570328,0.008197209797799587,-0.0017678063595667481
1772702178593641500,6.196641357421875,-0.0007816377910785377,0.007767375558614731,0.001469798618927598
1772702178603691500,6.20669140625,0.00006418218254111707,0.006411293987184763,-0.0003448793722782284
1772702178613740800,6.21674072265625,-0.002395247109234333,0.008652877062559128,-0.003070891136303544
1772702178623790600,6.22679052734375,-0.0021526331547647715,0.00782809592783451,0.002394980750977993
1772702178633839600,6.236839599609375,-0.001603755634278059,0.006616623606532812,0.0021252024453133345
1772702178643889700,6.2468896484375,0.00049082055920735,0.005949501879513264,0.0016370450612157583
1772702178653938400,6.2569384765625,-0.00004021373388241045,0.00663340138271451,-0.0004926847759634256
1772702178663988500,6.266988525390625,0.00015233281010296196,0.008711200207471848,-0.00040746363811194897
1772702178674037500,6.27703759765625,-0.0027079021092504263,0.008729576133191586,0.000550475378986448
1772702178684087600,6.287087646484375,-0.00019893812714144588,0.008375908248126507,-0.001139300293289125
1772702178694136600,6.297136474609375,-0.0008812400046736002,0.007811051327735186,-0.00006924218905624002
1772702178704186600,6.3071865234375,0.0006601976347155869,0.004067978356033564,-0.0010817759903147817
1772702178714235600,6.317235595703125,0.0012370382901281118,0.006097839679569006,0.00056219327962026
1772702178724284700,6.32728466796875,0.0008815063047222793,0.009708553552627563,0.0008279767935164273
1772702178734334500,6.33733447265625,-0.0005763080553151667,0.008865662850439548,-0.001597630325704813
1772702178744383500,6.347383544921875,0.0014223942998796701,0.006847786251455545,0.0011555455857887864
1772702178754433500,6.35743359375,-0.0011832424206659198,0.007066165097057819,-0.000024234765078290366
1772702178764482600,6.367482666015625,-0.00058323226403445,0.006933539640158415,0.0003075950953643769
1772702178774532600,6.37753271484375,-0.00028069718973711133,0.007424094248563051,-0.0005408879951573908
1772702178784581600,6.38758154296875,-0.0026351979468017817,0.006795055698603392,-0.002034655073657632
1772702178794631400,6.39763134765625,-0.0005403553950600326,0.0067726848646998405,0.00043356261448934674
1772702178804680700,6.4076806640625,0.0009680590592324734,0.0037444045301526785,-0.0015515576815232635
1772702178814730800,6.417730712890625,-0.000009054747351910919,0.008197209797799587,-0.0004881574132014066
1772702178824779500,6.427779541015625,-0.0011938951211050153,0.007287473883479834,-0.0015867113834246993
1772702178834829600,6.43782958984375,-0.0002364887041039765,0.008828379213809967,0.0003174488083459437
1772702178844878600,6.447878662109375,-0.0003736414946615696,0.005046423990279436,0.003388073528185487
1772702178854928400,6.457928466796875,0.0002966761530842632,0.007121559232473373,-0.001999767730012536
1772702178864977700,6.467977783203125,-0.0011230550007894635,0.005109008401632309,-0.0011864382540807128
1772702178875027700,6.47802783203125,-0.002100168727338314,0.008174839429557323,-0.0007227819296531379
1772702178885076500,6.488076416015625,0.0013938985066488385,0.005886917468160391,0.0003430151555221528
1772702178895126500,6.49812646484375,0.0006876281695440412,0.005030977539718151,0.00003328951424919069
1772702178905175600,6.508175537109375,-0.0008993495139293373,0.00854688324034214,-0.0010610034223645926
1772702178915225600,6.5182255859375,-0.0013371731620281935,0.00890667550265789,-0.0015595471486449242
1772702178925274600,6.528274658203125,-0.00026738137239590287,0.00794660672545433,-0.0011853729374706745
1772702178935324700,6.53832470703125,-0.002201635157689452,0.007681621704250574,-0.00028628981090150774
1772702178945373400,6.54837353515625,0.0017747305100783706,0.008207595907151699,0.002430134452879429
1772702178955423500,6.558423583984375,-0.002103098202496767,0.006630206014961004,-0.002007490722462535
1772702178965472500,6.568472412109375,-0.0036661075428128242,0.009311476722359657,-0.00003861583536490798
1772702178975521500,6.578521484375,-0.00007110639853635803,0.009652361273765564,-0.00027084347675554454
1772702178985571600,6.588571533203125,-0.0029028456192463636,0.009667274542152882,0.00031132352887652814
1772702178995620600,6.59862060546875,-0.000934236915782094,0.007929029874503613,-0.0009542105835862458
1772702179005670700,6.608670654296875,0.0015478292480111122,0.007339139468967915,-0.0017467673169448972
1772702179015719700,6.6187197265625,-0.0005744438385590911,0.007948470301926136,-0.001205080421641469
1772702179025769500,6.62876953125,-0.004831506870687008,0.021098094061017036,0.005335377063602209
1772702179035818500,6.638818603515625,-0.0024735440965741873,0.09364499896764755,0.04135729372501373
1772702179045868500,6.64886865234375,-0.0013435647124424577,0.10725215077400208,0.04782557860016823
1772702179055917600,6.65891748046875,-0.004700479097664356,0.08970511704683304,0.03635081648826599
1772702179065967600,6.668967529296875,-0.004807271994650364,0.03582058101892471,0.014302239753305912
1772702179076016600,6.6790166015625,-0.00030360036180354655,-0.024325313046574593,-0.016355270519852638
1772702179086066400,6.68906640625,-0.00046818371629342437,-0.05113748461008072,-0.028378378599882126
1772702179096115700,6.69911572265625,0.0020008329302072525,-0.08125517517328262,-0.044985584914684296
1772702179106165800,6.709165771484375,0.001091629732400179,-0.08536230027675629,-0.044738177210092545
1772702179116214500,6.719214599609375,-0.0002306297537870705,0.0057737333700060844,-0.001088966615498066
1772702179126264600,6.7292646484375,-0.0025814019609242678,-0.005978796631097794,-0.00872238539159298
1772702179136313600,6.739313720703125,-0.0008098672842606902,-0.014518222771584988,-0.009870474226772785
1772702179146363400,6.74936328125,-0.0033814155030995607,0.017917748540639877,0.0028578380588442087
1772702179156412700,6.75941259765625,-0.0009989517275243998,-0.000758734589908272,-0.00663579860702157
1772702179166462700,6.769462646484375,-0.000835966260638088,0.014065485447645187,0.0028192223981022835
