time,seconds_elapsed,z,y,x
1772702172459690000,0.06268994140625,0.000021693529561161995,-0.005813338793814182,-0.0019123631063848734
1772702172469739300,0.0727392578125,0.0012941518798470497,0.0014163441956043243,0.0009015328250825405
1772702172479789300,0.082789306640625,-0.002223360352218151,-0.0012321453541517258,0.0005102932336740196
1772702172489838000,0.092838134765625,0.001710927695967257,0.0003843936137855053,0.0007491788128390908
1772702172499888000,0.10288818359375,0.0003680716617964208,-0.002073256764560938,-0.000721289194189012
1772702172509937400,0.1129375,0.0001267892075702548,0.0013409154489636421,0.0027096611447632313
1772702172519987200,0.1229873046875,-0.0002491478808224201,-0.001149617601186037,-0.0014638151042163372
1772702172530036200,0.1330361328125,0.0011439516674727201,-0.0013791820965707302,0.0014552758075296879
1772702172540086300,0.143086181640625,0.001726559130474925,-0.002720428630709648,-0.0005747938994318247
1772702172550135000,0.153135009765625,-0.00032114540226757526,0.0022112131118774414,0.0019136638147756457
1772702172560185000,0.16318505859375,0.0016729449853301048,0.0009221578948199749,-0.0013874609721824527
1772702172570234400,0.173234375,-0.00009912240784615278,0.0014143106527626514,0.0010234987130388618
1772702172580284700,0.18328466796875,0.001263439771719277,0.00039522117003798485,-0.000013082695659250021
1772702172590333700,0.193333740234375,-0.00033765274565666914,-0.0010620607063174248,-0.0005864612176083028
1772702172600383700,0.2033837890625,0.00033641286427155137,-0.00019283965229988098,0.00026325188810005784
1772702172610432500,0.2134326171875,0.00015318742953240871,0.0005637644790112972,0.000516518484801054
1772702172620482600,0.223482666015625,-0.00004823936615139246,0.0021237824112176895,0.0008487233426421881
1772702172630531800,0.23353173828125,-0.00044371874537318945,-0.0006890483200550079,0.0015075893606990576
1772702172640581600,0.24358154296875,-0.001474443357437849,-0.0013690441846847534,-0.002089340705424547
1772702172650630700,0.253630615234375,0.0032992728520184755,-0.0007322821766138077,0.00004145439015701413
1772702172660680700,0.2636806640625,0.0018572702538222075,-0.0005966485477983952,-0.0000768476165831089
1772702172670729700,0.273729736328125,-0.00014835631009191275,-0.0036811213940382004,0.0017450208542868495
1772702172680779800,0.28377978515625,-0.0004913730081170797,-0.0006948951631784439,0.0011561744613572955
1772702172690828800,0.293828857421875,0.0021659291815012693,0.0008116550743579865,0.0010070374701172113
1772702172700878600,0.303878662109375,-0.0008060643449425697,-0.0006761625409126282,-0.0015524617629125714
1772702172710927600,0.313927734375,-0.0006774336798116565,0.0013353228569030762,0.0009077664581127465
1772702172720977700,0.323977783203125,0.0006933131953701377,-0.0005211955867707729,0.002156615722924471
1772702172731026700,0.334026611328125,0.0011684211203828454,-0.0009496985003352165,-0.0025332109071314335
1772702172741076700,0.34407666015625,-0.0025148175191134214,-0.000024856068193912506,-0.001400316134095192
1772702172751125500,0.35412548828125,0.0003243785467930138,-0.0027380846440792084,0.00026442582020536065
1772702172761175600,0.364175537109375,0.001078678760677576,-0.0003912104293704033,0.0017347498796880245
1772702172771224800,0.374224853515625,0.0002147493651136756,0.00022531114518642426,0.0003597598697524518
1772702172781275000,0.38427490234375,0.002780271926894784,-0.0003517167642712593,0.0019645229913294315
1772702172791323600,0.39432373046875,-0.0003255065530538559,0.0005364478565752506,-0.0022573862224817276
1772702172801373700,0.404373779296875,-0.0015303996624425054,-0.0002551344223320484,-0.0002009579911828041
1772702172811422500,0.41442236328125,-0.0003700603265315294,-0.0013425033539533615,0.001938625588081777
1772702172821471700,0.4244716796875,0.001493368181400001,0.000847935676574707,0.00031796947587281466
1772702172831521800,0.434521728515625,-0.0006334321806207299,-0.00021573109552264214,0.0018266502302139997
1772702172841570600,0.444570556640625,0.001926845288835466,-0.0016256822273135185,0.00015470359358005226
1772702172851620600,0.45462060546875,-0.00032858585473150015,0.002320590429008007,0.0011952006025239825
1772702172861670000,0.464669921875,0.0005471556796692312,-0.0014692582190036774,0.001373092643916607
1772702172871719700,0.4747197265625,0.0026459929067641497,-0.0007091918960213661,0.0007416571606881917
1772702172881768700,0.484768798828125,-0.0007577834185212851,-0.001489503774791956,-0.002005854155868292
1772702172891818800,0.49481884765625,0.001137055573053658,-0.0003810962662100792,0.00007860202458687127
1772702172901867500,0.504867431640625,-0.000058870529755949974,0.000795561820268631,-0.0038282412569969893
1772702172911917600,0.51491748046875,-0.0027444022707641125,-0.002693712245672941,0.00044213756336830556
1772702172921966800,0.524966796875,-0.00037090212572366,-0.0001652105711400509,-0.0008098213002085686
1772702172932016600,0.5350166015625,0.0009699994116090238,0.0013788905926048756,-0.0013275399105623364
1772702172942065700,0.545065673828125,-0.0011061156401410699,-0.001595744863152504,-0.0006774191278964281
1772702172952115700,0.55511572265625,-0.0016757656121626496,0.0022522560320794582,-0.0010859480826184154
1772702172962164700,0.565164794921875,0.00017807632684707642,-0.00013900920748710632,0.002147007267922163
1772702172972214800,0.57521484375,0.00044652289943769574,-0.0014586052857339382,-0.002628306858241558
1772702172982263800,0.585263916015625,-0.0006429062923416495,-0.0014999075792729855,-0.0022026002407073975
1772702172992313600,0.595313720703125,-0.0017281443579122424,-0.00040508201345801353,-0.0010441250633448362
1772702173002362600,0.605362548828125,-0.0014918389497324824,0.001301376149058342,-0.00391432037577033
1772702173012412700,0.61541259765625,-0.0001474752789363265,0.0000981595367193222,0.000222633927478455
1772702173022461700,0.625461669921875,0.0017225691117346287,0.0011564702726900578,0.00164663209579885
1772702173032511700,0.63551171875,-0.00011980568524450064,-0.0022973837330937386,-0.0004143881960771978
1772702173042560500,0.645560546875,0.00038099271478131413,-0.002196431625634432,-0.0006983730127103627
1772702173052610600,0.655610595703125,0.0012358673848211765,0.002081403974443674,-0.00020169344497844577
1772702173062659800,0.665659912109375,0.0009760239627212286,0.0014104656875133514,0.0020453063771128654
1772702173072710000,0.6757099609375,-0.0012650261633098125,0.0017225882038474083,-0.0007928243139758706
1772702173082758700,0.685758544921875,0.0006557797896675766,-0.0006499504670500755,-0.0017196821281686425
1772702173092808700,0.69580859375,-0.0003303887788206339,0.00018814625218510628,0.0033174208365380764
1772702173102857500,0.705857421875,-0.00003857433330267668,0.0022646128199994564,0.0017937563825398684
1772702173112907800,0.71590771484375,0.00010150799062103033,-0.0011956323869526386,-0.0029898136854171753
1772702173122956800,0.725956787109375,0.000031000818125903606,-0.0008723363280296326,-0.0005605766782537103
1772702173133006600,0.736006591796875,0.0010006577940657735,-0.001050502061843872,-0.00029932058532722294
1772702173143055600,0.7460556640625,-0.0025511968415230513,-0.0017997948452830315,-0.0018579841125756502
1772702173153105700,0.756105712890625,0.0007916028844192624,-0.0008362629450857639,-0.0010206862352788448
1772702173163154700,0.76615478515625,0.001092624617740512,-0.0010170075111091137,-0.0016284259036183357
1772702173173204700,0.776204833984375,0.0006920851883478463,0.0016418923623859882,0.0010134298354387283
1772702173183253800,0.786253662109375,-0.001389605225995183,0.0002542608417570591,-0.00005192635580897331
1772702173193303600,0.796303466796875,0.0008037742227315903,-0.00013402802869677544,0.003488479880616069
1772702173203352600,0.8063525390625,0.003191397525370121,0.0014194031246006489,-0.00008443300612270832
1772702173213401900,0.81640185546875,0.0026100296527147293,-0.0014671972021460533,0.0009046649793162942
1772702173223451600,0.82645166015625,-0.0003400840796530247,0.0017000269144773483,0.00017004286928568035
1772702173233500700,0.836500732421875,0.003480220679193735,-0.00032583996653556824,-0.0014174674870446324
1772702173243550700,0.84655078125,0.000309727038256824,-0.0008922400884330273,-0.001534253591671586
1772702173253599700,0.856599853515625,-0.0003113221609964967,-0.00045921001583337784,-0.002908178372308612
1772702173263649800,0.86664990234375,0.00041809119284152985,-0.001502875704318285,-0.0016834011767059565
1772702173273698800,0.87669873046875,0.0005065081641077995,-0.0006227008998394012,0.0017544731963425875
1772702173283748600,0.88674853515625,0.0025715772062540054,0.00004035746678709984,-0.001882638200186193
1772702173293797600,0.896797607421875,0.0016823478508740664,0.0007402356714010239,-0.0009763644775375724
1772702173303847700,0.90684765625,-0.0004444899968802929,0.00013736076653003693,0.0001172301999758929
1772702173313896700,0.916896728515625,0.0001909402199089527,-0.0005910140462219715,0.0006730319000780582
1772702173323946800,0.92694677734375,0.0009506059577688575,-0.0026806266978383064,-0.0007616803632117808
1772702173333995500,0.93699560546875,0.00014872814062982798,-0.0012896577827632427,-0.0033337613567709923
1772702173344045600,0.947045654296875,-0.00039144104812294245,-0.0006337035447359085,0.0012927963398396969
1772702173354094800,0.9570947265625,0.000877022510394454,0.0002675103023648262,0.0008017094805836678
1772702173364145000,0.967144775390625,-0.0007096439367160201,-0.00020839087665081024,-0.0008809356368146837
1772702173374193700,0.977193603515625,0.0021756247151643038,-0.0011183926835656166,0.0019044645596295595
1772702173384243700,0.98724365234375,0.0005543888546526432,0.0010508219711482525,-0.0011578018311411142
1772702173394292500,0.99729248046875,0.0016537416959181428,-0.0008077980019152164,-0.00013674586080014706
1772702173404342500,1.007342529296875,-0.00004227110184729099,0.0009025842882692814,0.0007546476554125547
1772702173414391800,1.017391845703125,-0.001096084015443921,0.00005889451131224632,-0.0008387216366827488
1772702173424441600,1.027441650390625,-0.001695446320809424,-0.0005073687061667442,-0.000583301589358598
1772702173434490600,1.03749072265625,0.0009727748110890388,0.0011848034337162971,-0.0009697263012640178
1772702173444540700,1.047540771484375,-0.0015436335233971477,0.0003778841346502304,0.001989090582355857
1772702173454589700,1.057589599609375,-0.003554852679371834,0.0014050649479031563,-0.0014386640395969152
1772702173464639700,1.0676396484375,0.0013864737702533603,-0.00017117010429501534,-0.001276771305128932
1772702173474688800,1.077688720703125,-0.0010862713679671288,-0.0017741266638040543,-0.002068262780085206
1772702173484738600,1.087738525390625,0.0003520473837852478,-0.0012061623856425285,0.0018323982367292047
1772702173494787600,1.09778759765625,-0.00009722786489874125,0.0013134540058672428,0.0009442339651286602
1772702173504837600,1.107837646484375,-0.00030568859074264765,0.0023691575042903423,-0.0022576621267944574
1772702173514886700,1.11788671875,-0.0004939740756526589,0.0017843269743025303,-0.001419831532984972
1772702173524936700,1.127936767578125,0.00038950855378061533,-0.0009705903939902782,0.00037712653283961117
1772702173534985700,1.13798583984375,-0.0004147660220041871,-0.001603890210390091,-0.0006804147269576788
1772702173545035500,1.148035400390625,-0.0024029873311519623,0.00008212774991989136,0.0007585493149235845
1772702173555084800,1.158084716796875,-0.0012596923625096679,-0.0005588950589299202,-0.0008225693600252271
1772702173565133800,1.1681337890625,-0.0008150577777996659,-0.0009665032848715782,-0.0003382936993148178
1772702173575183400,1.178183349609375,-0.0006065322086215019,0.0006897170096635818,-0.0007936942856758833
1772702173585232400,1.188232421875,0.003721856977790594,0.0006411336362361908,0.0009066254715435207
1772702173595282400,1.198282470703125,0.0011460476089268923,-0.00018391385674476624,0.0008831896120682359
1772702173605331500,1.20833154296875,0.0009349285392090678,0.00005319016054272652,-0.0004939231439493597
1772702173615381200,1.21838134765625,-0.00029465300031006336,0.0007988750003278255,-0.0018976753344759345
1772702173625430300,1.22843017578125,0.0000386673491448164,-0.0010836427100002766,0.0009538554004393518
1772702173635480300,1.238480224609375,0.00271434523165226,-0.001215469092130661,0.0009890091605484486
1772702173645529300,1.248529296875,0.0009101409814320505,-0.0009877150878310204,-0.0013161554234102368
1772702173655579400,1.258579345703125,-0.0006398187251761556,-0.0005877083167433739,0.002274052007123828
1772702173665628400,1.26862841796875,-0.00022080237977206707,-0.0013497564941644669,-0.00019363497267477214
1772702173675678200,1.27867822265625,-0.001758511527441442,0.0003948807716369629,-0.0006532965926453471
1772702173685727200,1.288727294921875,0.0013449699617922306,-0.000977841205894947,0.002960716374218464
1772702173695777500,1.298777587890625,-0.00008434848859906197,-0.0004223058931529522,0.001131391036324203
1772702173705826300,1.308826416015625,0.0012796566588804126,-0.0016179648227989674,-0.002195140114054084
1772702173715876400,1.31887646484375,0.001325196702964604,-0.001203044317662716,-0.0021884820889681578
1772702173725925000,1.328925048828125,-0.00007595308125019073,0.000026188790798187256,-0.000040066312067210674
1772702173735975200,1.33897509765625,-0.0019177952781319618,0.0017876033671200275,-0.00005391472950577736
1772702173746024400,1.3490244140625,0.00007350195664912462,-0.000046199653297662735,-0.0011833300814032555
1772702173756074500,1.359074462890625,-0.00048336503095924854,0.0014251968823373318,-0.0018278151983395219
1772702173766123300,1.369123291015625,0.0002936582313850522,0.00006204098463058472,0.0007633115747012198
1772702173776173300,1.37917333984375,0.000006835791282355785,-0.0025768852792680264,0.0022885038051754236
1772702173786222300,1.389222412109375,0.00038378057070076466,-0.0011270223185420036,0.0010119028156623244
1772702173796272400,1.3992724609375,-0.000020487233996391296,0.0009132255800068378,-0.0002965081948786974
1772702173806321400,1.4093212890625,0.0010298872366547585,-0.000648092944175005,0.001886904239654541
1772702173816371200,1.41937109375,-0.0003650764701887965,0.0011591282673180103,0.003047510050237179
1772702173826420200,1.429420166015625,0.0025734310038387775,-0.0005644774064421654,0.000020564300939440727
1772702173836470300,1.43947021484375,0.0013230766635388136,-0.0006353175267577171,0.0029772059060633183
1772702173846519300,1.449519287109375,-0.000017893617041409016,0.0008380874060094357,0.00117438193410635
1772702173856569300,1.4595693359375,0.0017033073818311095,0.0013528759591281414,0.001964009366929531
1772702173866618400,1.469618408203125,-0.0008802746888250113,-0.0005667638033628464,-0.0008022544207051396
1772702173876668200,1.479668212890625,0.001140531967394054,-0.0016333600506186485,-0.00031276544905267656
1772702173886717400,1.489717529296875,0.0006624539382755756,0.0002420954406261444,-0.0013656585942953825
1772702173896766500,1.499766357421875,0.00048322323709726334,0.0009153420105576515,0.001518278499133885
1772702173906816300,1.509816162109375,0.00029510335298255086,-0.001572771929204464,-0.0022625478450208902
1772702173916865300,1.519865234375,0.00044743617763742805,-0.0015658475458621979,0.000817664316855371
1772702173926915300,1.529915283203125,-0.0006734250346198678,0.0003428715281188488,-0.001917466288432479
1772702173936964400,1.53996435546875,0.001530607114546001,-0.0005583423189818859,-0.00040905180503614247
1772702173947014400,1.550014404296875,0.000357503944542259,-0.000791486818343401,0.001623089425265789
1772702173957063200,1.560063232421875,-0.00022093462757766247,0.00008709030225872993,-0.0009455294930376112
1772702173967113200,1.57011328125,0.00015749409794807434,0.0002467581070959568,0.00015433158841915429
1772702173977162200,1.580162353515625,0.0009761498076841235,-0.0004200977273285389,-0.0014081449480727315
1772702173987212500,1.590212646484375,0.0014904527924954891,-0.0018238737247884274,0.0000799286353867501
1772702173997261300,1.60026123046875,-0.0011588598135858774,-0.00004807766526937485,-0.0006433859816752374
1772702174007311400,1.610311279296875,-0.0019899928011000156,0.0005582566373050213,-0.00023556576343253255
1772702174017360100,1.620360107421875,-0.0013572259340435266,-0.0010766582563519478,-0.0014632830861955881
1772702174027410200,1.63041015625,-0.0025986391119658947,0.002188661601394415,0.0005409697769209743
1772702174037459500,1.64045947265625,-0.00048275780864059925,0.0023085041902959347,-0.0006891443626955152
1772702174047509500,1.650509521484375,0.002721742494031787,-0.002732382155954838,0.003742576576769352
1772702174057558300,1.660558349609375,-0.0007361058378592134,0.00002611987292766571,-0.0014039820525795221
1772702174067608300,1.6706083984375,-0.0004506009863689542,-0.0023393132723867893,0.0004628099559340626
1772702174077657300,1.6806572265625,-0.0003952072001993656,-0.000025292392820119858,0.003110524732619524
1772702174087707400,1.690707275390625,0.0011545971501618624,-0.0006596902385354042,-0.001890911953523755
1772702174097756400,1.70075634765625,0.00018866860773414373,-0.0004588882438838482,0.001408478245139122
1772702174107806200,1.71080615234375,0.0004998974618501961,0.002186012454330921,0.0025256257504224777
1772702174117855200,1.720855224609375,0.0026916791684925556,0.001204637810587883,0.0008696723380126059
1772702174127905300,1.7309052734375,-0.003100968897342682,-0.0011570625938475132,-0.0007917697075754404
1772702174137954300,1.740954345703125,0.0022764860186725855,0.000044555868953466415,-0.00028124169330112636
1772702174148004400,1.75100439453125,0.0016768177738413215,-0.0025972784496843815,0.0001411954581271857
1772702174158053400,1.761053466796875,0.0013196879299357533,-0.0014412002637982368,-0.0005107463803142309
1772702174168103200,1.771103271484375,-0.0012959081213921309,0.0017197662964463234,0.00011383093078620732
1772702174178152400,1.78115234375,0.0004391413531266153,-0.001061638817191124,-0.0007136132335290313
1772702174188202500,1.791202392578125,-0.001163352862931788,-0.0005465447902679443,-0.00038144446443766356
1772702174198251300,1.801251220703125,-0.0013830637326464057,-0.0017660059966146946,0.000014034972991794348
1772702174208300300,1.81130029296875,-0.0031135189346969128,0.002005034126341343,0.0028460666071623564
1772702174218350300,1.821350341796875,-0.000463940086774528,0.0015536285936832428,0.00175097503233701
1772702174228399400,1.8313994140625,-0.002402916084975004,-0.002080905716866255,0.0007021811907179654
1772702174238449400,1.841449462890625,-0.0016255393857136369,-0.00044173048809170723,-0.002134085400030017
1772702174248498200,1.851498291015625,-0.001719671767205,-0.00000819377601146698,0.0017223800532519817
1772702174258548200,1.86154833984375,0.0013967592967674136,0.0013521485961973667,-0.0013189499732106924
1772702174268597200,1.87159716796875,-0.002287335693836212,0.0002902853302657604,-0.0010313260136172175
1772702174278647300,1.881647216796875,0.0026717367582023144,-0.0006191842257976532,-0.0020878019277006388
1772702174288696300,1.8916962890625,-0.0010137537028640509,0.00005879020318388939,0.0004784015181940049
1772702174298746400,1.901746337890625,-0.0011852611787617207,-0.0005361600778996944,0.0016746934270486236
1772702174308795100,1.911795166015625,-0.0028083883225917816,0.00015041744336485863,-0.0011521520791575313
1772702174318845200,1.92184521484375,-0.00009702402167022228,-0.0013476107269525528,0.0017208660719916224
1772702174328894500,1.93189453125,-0.00038899178616702557,-0.0013041887432336807,0.0015418147668242455
1772702174338944500,1.941944580078125,0.0006728105363436043,-0.0013625118881464005,-0.0004837854648940265
1772702174348993300,1.9519931640625,-0.0005667475052177906,-0.0023035071790218353,-0.0004318103310652077
1772702174359043300,1.962043212890625,-0.00042906205635517836,-0.0013538240455091,0.0007892490830272436
1772702174369092400,1.97209228515625,0.0021603077184408903,-0.0011085662990808487,-0.001402293797582388
1772702174379142400,1.982142333984375,0.00007638416718691587,0.000041919294744729996,0.0024768663570284843
1772702174389191400,1.99219140625,0.0006849691271781921,-0.0011394578032195568,0.00015965322381816804
1772702174399241200,2.0022412109375,0.0012213297886773944,0.0008978601545095444,0.0016350444639101624
1772702174409290200,2.012290283203125,0.0009545868379063904,0.0023949663154780865,-0.0005921958363614976
1772702174419340300,2.02234033203125,-0.0008789995918050408,-0.000381645280867815,-0.002816201653331518
1772702174429389300,2.032389404296875,0.00044943304965272546,0.00083906389772892,0.0020854538306593895
1772702174439439400,2.042439453125,0.001924291718751192,0.004523280076682568,0.0024966460186988115
1772702174449488400,2.05248828125,0.00026987167075276375,0.0008696671575307846,0.00046696627396158874
1772702174459538200,2.0625380859375,0.0010714831296354532,-0.001953550148755312,0.0016281044809147716
1772702174469587200,2.072587158203125,-0.00007267552427947521,0.002139702904969454,0.00045586423948407173
1772702174479636500,2.082636474609375,-0.0008915975922718644,-0.0003165309317409992,-0.002001434564590454
1772702174489686300,2.092686279296875,0.0006142562488093972,-0.001249000895768404,-0.00042045392910949886
1772702174499735300,2.1027353515625,0.0014859088696539402,-0.0009246277622878551,0.0018203298095613718
1772702174509785300,2.112785400390625,0.0002875712816603482,0.0010137869976460934,-0.00047864418593235314
1772702174519834400,2.12283447265625,-0.00007861340418457985,0.0008449419401586056,-0.001862955279648304
1772702174529884400,2.132884521484375,0.0004404509672895074,0.0012196842581033707,0.0005629367078654468
1772702174539933200,2.14293310546875,-0.002342818770557642,-0.0012804917059838772,0.0006175314774736762
1772702174549983200,2.152983154296875,0.0007747653871774673,-0.002545981202274561,0.0004302455054130405
1772702174560032300,2.1630322265625,0.0012107249349355698,-0.0005318326875567436,0.0016411847900599241
1772702174570082300,2.173082275390625,0.0003753709024749696,0.0020541269332170486,-0.0016465678345412016
1772702174580131300,2.18313134765625,-0.0012899036519229412,-0.0006820042617619038,-0.00022816818091087043
1772702174590181400,2.193181396484375,-0.0011187290074303746,-0.0011908072046935558,-0.0006322400877252221
1772702174600230100,2.203230224609375,-0.0020401827059686184,0.0010028388351202011,0.002486321609467268
1772702174610280200,2.2132802734375,0.000761328439693898,-0.00004658522084355354,-0.0014467979781329632
1772702174620329200,2.2233291015625,0.0012263163225725293,-0.0026439661160111427,-0.0010137679055333138
1772702174630379300,2.233379150390625,-0.00027131009846925735,-0.0007025031372904778,-0.001084822928532958
1772702174640428300,2.24342822265625,0.0007377616129815578,0.0009851418435573578,-0.0004914706805720925
1772702174650478000,2.25347802734375,-0.0004580112872645259,0.001012671273201704,0.0016480240738019347
1772702174660527000,2.263527099609375,0.00002721673808991909,-0.002198834903538227,-0.002790133934468031
1772702174670577400,2.273577392578125,0.0026873117312788963,0.00037301937118172646,0.000015518744476139545
1772702174680626200,2.283626220703125,-0.0002986243925988674,-0.0020741596817970276,0.0010743915336206555
1772702174690676200,2.29367626953125,0.0021257384214550257,-0.0007482171058654785,0.0025514792650938034
1772702174700725200,2.303725341796875,0.00010706228204071522,-0.0011796490289270878,0.0015615824377164245
1772702174710775000,2.313775146484375,-0.0011224155314266682,0.00006741750985383987,0.001729415962472558
1772702174720824300,2.32382421875,-0.0035320434253662825,0.002366790547966957,0.0013475185260176659
1772702174730874400,2.333874267578125,0.00114184501580894,0.0023722401820123196,-0.00003834022209048271
1772702174740923100,2.343923095703125,0.0001791122485883534,0.00036421651020646095,0.0005283804493956268
1772702174750972200,2.35397216796875,0.000602983869612217,-0.000017307233065366745,-0.0003142278001178056
1772702174761022200,2.364022216796875,-0.0024215681478381157,-0.0017211977392435074,0.0008887220756150782
1772702174771071200,2.3740712890625,-0.0014185653999447823,0.0009214454330503941,-0.0006612058496102691
1772702174781121300,2.384121337890625,-0.002108590444549918,-0.00019681639969348907,-0.000550950993783772
1772702174791170000,2.394170166015625,0.0008205007761716843,-0.00025669438764452934,0.002744479337707162
1772702174801220000,2.40422021484375,0.0017171871149912477,0.00045197270810604095,-0.0008406681008636951
1772702174811269400,2.414269287109375,-0.0014456206699833274,-0.0011533638462424278,-0.0008944940054789186
1772702174821319400,2.4243193359375,0.00036852469202131033,-0.00047345878556370735,0.00005279231118038297
1772702174831368200,2.4343681640625,0.002611969131976366,-0.003215431235730648,-0.0011684574419632554
1772702174841418200,2.444418212890625,-0.002014740603044629,0.00019234931096434593,0.0003266410785727203
1772702174851467000,2.454467041015625,-0.0010416606673970819,-0.001029812265187502,0.0009219057974405587
1772702174861517300,2.464517333984375,-0.0011564429150894284,0.0014589116908609867,-0.0009079521405510604
1772702174871566300,2.47456640625,-0.00008326605893671513,-0.00048171868547797203,-0.0030728629790246487
1772702174881616100,2.4846162109375,0.0013156924396753311,-0.0010995720513164997,0.00005155746475793421
1772702174891665200,2.4946650390625,-0.0000750803155824542,0.0002851709723472595,-0.0008087349124252796
1772702174901715200,2.504715087890625,0.0015118973096832633,0.000043888576328754425,-0.00039248287794180214
1772702174911764200,2.51476416015625,0.0013264637673273683,-0.0009506763890385628,-0.00082543829921633
1772702174921814300,2.524814208984375,0.0016010357066988945,-0.0024529658257961273,-0.0009868259076029062
1772702174931863300,2.53486328125,-0.0010535793844610453,-0.00008706795051693916,0.0010421032784506679
1772702174941913000,2.5449130859375,-0.0004327965434640646,-0.00039013568311929703,0.0002980160934384912
1772702174951962000,2.554962158203125,0.0009697203058749437,0.0025272625498473644,-0.0012645195238292217
1772702174962012400,2.565012451171875,-0.0030947960913181305,-0.0015231394208967686,-0.00018434139201417565
1772702174972061200,2.575061279296875,-0.000039878650568425655,-0.0026143724098801613,0.0011878913501277566
1772702174982111200,2.585111328125,0.0016435054130852222,0.0001957952044904232,-0.001946649164892733
1772702174992160300,2.59516015625,-0.0004302102606743574,0.0005396469496190548,-0.002015509409829974
1772702175002210000,2.6052099609375,0.00001933134626597166,0.00243714964017272,-0.0020037915091961622
1772702175012259300,2.61525927734375,-0.0000053372932597994804,0.0026230216026306152,-0.0005363720702007413
1772702175022308400,2.625308349609375,0.001189090427942574,-0.0005171117372810841,0.0007683106232434511
1772702175032358100,2.635358154296875,0.00009655323810875416,0.0002637314610183239,0.0008892686455510557
1772702175042407200,2.6454072265625,0.0006946992361918092,-0.0009722416289150715,0.0018765025306493044
1772702175052457200,2.655457275390625,-0.0022929836995899677,0.001616156194359064,-0.0007745193433947861
1772702175062506200,2.66550634765625,-0.0013891066191717982,-0.0016882941126823425,0.00014027647557668388
1772702175072556300,2.675556396484375,0.0007852900307625532,0.0012474888935685158,-0.0019657297525554895
1772702175082605000,2.68560498046875,-0.0011612145463004708,0.0007673213258385658,0.0015520398737862706
1772702175092655000,2.695655029296875,-0.0011830764124169946,0.0016425102949142456,-0.0003372289938852191
1772702175102704400,2.705704345703125,-0.0012515195412561297,-0.00012556184083223343,-0.0004120637895539403
1772702175112754400,2.71575439453125,0.0011084889993071556,0.000919025857001543,-0.0008258979069069028
1772702175122803200,2.72580322265625,0.0011417785426601768,-0.0002034967765212059,0.0034266377333551645
1772702175132853200,2.735853271484375,-0.0003214256139472127,0.00031422311440110207,0.0012685160618275404
1772702175142902000,2.745902099609375,-0.002095090923830867,-0.00034996913745999336,-0.0010281940922141075
1772702175152952300,2.755952392578125,0.0004708389169536531,-0.0015591224655508995,0.0009066074853762984
1772702175163001300,2.76600146484375,0.0008508720202371478,0.0007692789658904076,0.0016733314841985703
1772702175173051100,2.776051025390625,0.0025209577288478613,-0.002288450952619314,-0.004415891598910093
1772702175183100200,2.78610009765625,-0.0014836374903097749,0.00042131543159484863,-0.0014033237239345908
1772702175193150200,2.796150146484375,0.00012748653534799814,-0.0016777580603957176,-0.0003938915324397385
1772702175203199200,2.80619921875,-0.001083985436707735,-0.0009320732206106186,0.000434884219430387
1772702175213249300,2.816249267578125,-0.00034744758158922195,-0.000722931232303381,0.0012727214489132166
1772702175223298300,2.82629833984375,0.0012424596352502704,-0.0003658011555671692,-0.0017867180285975337
1772702175233348000,2.83634814453125,0.0008969418704509735,0.0024640457704663277,-0.002105396706610918
1772702175243397000,2.846397216796875,-0.0008692666888237,-0.00024039437994360924,-0.003970141988247633
1772702175253447200,2.856447265625,0.0004456313909031451,-0.00125831738114357,0.003260690253227949
1772702175263496200,2.86649609375,0.000840844470076263,-0.0009099757298827171,-0.001059489557519555
1772702175273546200,2.876546142578125,0.0008360138745047152,0.002562821377068758,0.0004828237579204142
1772702175283595300,2.88659521484375,-0.0010018335888162255,-0.0015040915459394455,-0.0030349455773830414
1772702175293644300,2.896644287109375,-0.001131015014834702,0.0010174489580094814,-0.0020565602462738752
1772702175303694300,2.9066943359375,0.00000828527845442295,0.0018225223757326603,-0.0022453784476965666
1772702175313743000,2.9167431640625,0.00022140296641737223,-0.0007501072250306606,0.0008497036760672927
1772702175323793200,2.926793212890625,0.0014115696540102363,-0.00018551712855696678,-0.0011324870865792036
1772702175333842200,2.93684228515625,-0.0004480225034058094,-0.0013111764565110207,0.0008909768075682223
1772702175343892200,2.946892333984375,-0.0013652152847498655,0.0011320076882839203,-0.0011798972263932228
1772702175353941200,2.956941162109375,-0.0004713550442829728,0.000011982396245002747,-0.001280149444937706
1772702175363991300,2.9669912109375,0.0011899247765541077,0.00036831339821219444,0.0019366827327758074
1772702175374040000,2.9770400390625,-0.002605414018034935,0.0009439485147595406,-0.0003833346418105066
1772702175384090000,2.987090087890625,0.0018220911733806133,0.0015333062037825584,0.0025690458714962006
1772702175394139400,2.997139404296875,0.0004803246119990945,0.0008832570165395737,0.0011345335515215993
1772702175404189400,3.007189453125,-0.0033290612045675516,-0.0020627323538064957,-0.00196325546130538
1772702175414238200,3.01723828125,-0.0005975861568003893,0.0031335526145994663,0.00044734388939104974
1772702175424288300,3.027288330078125,0.0013675603549927473,-0.00035652006044983864,0.0016201999969780445
1772702175434337000,3.0373369140625,-0.0019665388390421867,0.0012619290500879288,-0.0012864433228969574
1772702175444387000,3.047386962890625,0.0012851809151470661,0.001401212066411972,-0.000036621844628825784
1772702175454436400,3.057436279296875,0.0010090675204992294,-0.00046631600707769394,0.002760458504781127
1772702175464486100,3.067486083984375,0.0012918952852487564,-0.00009986478835344315,-0.0012177715543657541
1772702175474535200,3.07753515625,-0.00068189378362149,0.0012601925991475582,-0.0022836104035377502
1772702175484585200,3.087585205078125,-0.0012981492327526212,0.0011952114291489124,-0.0015083642210811377
1772702175494634200,3.09763427734375,0.00010802049655467272,0.0005997940897941589,-0.0002812023158185184
1772702175504684300,3.107684326171875,-0.0007662952411919832,-0.002038333099335432,-0.001818112563341856
1772702175514733300,3.1177333984375,-0.0015045538311824203,-0.00020415056496858597,0.001957154367119074
1772702175524783000,3.127783203125,0.0013218589592725039,-0.0015826025046408176,-0.0010945620015263557
1772702175534832000,3.13783203125,-0.0021936865523457527,-0.00004747509956359863,0.0008665057830512524
1772702175544882200,3.147882080078125,0.0009706814307719469,-0.0005414918996393681,-0.0002440323878545314
1772702175554931200,3.15793115234375,-0.000007873750291764736,0.0012927786447107792,0.00029855541652068496
1772702175564980200,3.167980224609375,-0.00021932879462838173,-0.00033494550734758377,-0.0014162540901452303
1772702175575031000,3.178031005859375,0.0026243282482028008,0.0029656882397830486,-0.00009736936772242188
1772702175585080000,3.188080078125,0.00021496647968888283,0.00101945037022233,0.000448312348453328
1772702175595130000,3.198130126953125,0.0019320352002978325,0.000014821067452430725,0.0012371533084660769
1772702175605179100,3.20817919921875,0.0013189755845814943,-0.00013644620776176453,0.0012241038493812084
1772702175615229200,3.218229248046875,-0.00019358377903699875,0.00048359157517552376,0.0008683986961841583
1772702175625278000,3.22827783203125,0.000674340408295393,0.00018318695947527885,-0.0005518650868907571
1772702175635328000,3.238327880859375,0.0011187979253008962,-0.002657851204276085,-0.002889382652938366
1772702175645377300,3.248377197265625,0.0010993569158017635,0.0004884074442088604,-0.0006834861706010997
1772702175655427300,3.25842724609375,0.0004668716574087739,-0.0016064345836639404,-0.0008514150977134705
1772702175665476000,3.26847607421875,0.0014386591501533985,-0.00015394669026136398,0.0016184005653485656
1772702175675526100,3.278526123046875,0.0004727396881207824,-0.0004487931728363037,0.0025430433452129364
1772702175685575000,3.288574951171875,-0.0030274526216089725,-0.0015177857130765915,-0.0006602068897336721
1772702175695625000,3.298625,-0.00003663112875074148,-0.0015938151627779007,0.0014272999251261353
1772702175705674200,3.30867431640625,0.00027975247940048575,0.0004600146785378456,0.0014669810188934207
1772702175715724000,3.31872412109375,0.0008209750521928072,0.001102442853152752,0.0024247418623417616
1772702175725773000,3.32877294921875,-0.0006560140755027533,0.0016366736963391304,-0.0007609314634464681
1772702175735823000,3.338822998046875,0.0008363391389138997,0.00036595622077584267,-0.00037246409920044243
1772702175745872100,3.3488720703125,-0.001565832062624395,0.00016302336007356644,-0.0020992576610296965
1772702175755922200,3.358922119140625,0.000291036325506866,0.0010601943358778954,0.0006017255946062505
1772702175765971200,3.36897119140625,-0.0005739583866670728,-0.0004759170114994049,0.000386009574867785
1772702175776021000,3.37902099609375,-0.0006681603845208883,0.00030640140175819397,-0.00023891343153081834
1772702175786070000,3.389070068359375,-0.000700118369422853,-0.00043182680383324623,-0.000923878513276577
1772702175796120000,3.3991201171875,-0.0011141904396936297,0.0002297121100127697,-0.0014336315216496587
1772702175806169000,3.409169189453125,-0.00022123241797089577,0.002295792568475008,-0.0003470617230050266
1772702175816219100,3.41921923828125,-0.0012743176193907857,0.00035796361044049263,0.00034272694028913975
1772702175826268200,3.42926806640625,-0.0009800383122637868,0.0004423861391842365,-0.0003294548951089382
1772702175836317200,3.439317138671875,-0.0009725074050948024,0.0017637335695326328,-0.0014145344030112028
1772702175846367200,3.4493671875,-0.0007250999333336949,-0.0010227318853139877,-0.0009847001638263464
1772702175856416300,3.459416259765625,0.0008134664385579526,0.00001358427107334137,-0.0012199663324281573
1772702175866466000,3.469466064453125,-0.0002600537845864892,0.0014953669160604477,-0.0026932270266115665
1772702175876515000,3.47951513671875,-0.000802180846221745,0.0009817881509661674,0.0007506095571443439
1772702175886565000,3.489565185546875,0.0009184876689687371,0.0008254610002040863,-0.0008547438774257898
1772702175896614100,3.4996142578125,0.00012634380254894495,0.0014678863808512688,-0.0017965864390134811
1772702175906664200,3.509664306640625,0.001628899248316884,-0.0012184437364339828,0.000029543036362156272
1772702175916713000,3.519712890625,0.0007496112957596779,0.00031471019610762596,-0.0023613511584699154
1772702175926763000,3.529762939453125,-0.00033962156157940626,0.0014332374557852745,-0.0012311055324971676
1772702175936812300,3.539812255859375,0.00008403719402849674,0.0006954241544008255,0.0026895925402641296
1772702175946862300,3.5498623046875,0.0017040381208062172,0.0002077990211546421,-0.0003996744053438306
1772702175956911000,3.5599111328125,-0.00015472783707082272,-0.000786192249506712,-0.00014742201892659068
1772702175966961200,3.569961181640625,0.003761983010917902,-0.0024770330637693405,0.0011918817181140184
1772702175977010000,3.580010009765625,0.0012548384256660938,0.0015959055162966251,0.0006456851260736585
1772702175987060000,3.59006005859375,0.0011714814463630319,0.0004550074227154255,-0.0008430219022557139
1772702175997109200,3.600109130859375,0.0005513917421922088,0.0009229965507984161,0.000044349784730002284
1772702176007159000,3.610158935546875,0.0005868117441423237,0.0001986166462302208,0.002871561562642455
1772702176017208000,3.6202080078125,-0.0006521595641970634,-0.0028993217274546623,0.0005939672701060772
1772702176027258000,3.630258056640625,-0.0009443084709346294,-0.0037536637391895056,0.002085071289911866
1772702176037307100,3.64030712890625,0.0005859776865690947,0.002888299524784088,-0.0003872142406180501
1772702176047357200,3.650357177734375,0.0018674908205866814,-0.0013003204949200153,-0.0007667146273888648
1772702176057406200,3.66040625,-0.0005758947227150202,-0.0015833210200071335,-0.0007721646106801927
1772702176067456000,3.6704560546875,0.0008185363840311766,-0.0010011536069214344,-0.0011873512994498014
1772702176077505000,3.680505126953125,0.0002765037352219224,-0.0008958978578448296,-0.0025625918060541153
1772702176087554300,3.69055419921875,-0.0007791732205078006,0.002426928374916315,-0.0011061090044677258
1772702176097604000,3.70060400390625,0.0012483189348131418,0.0008930214680731297,-0.001056333421729505
1772702176107653000,3.710653076171875,-0.001095529063604772,-0.0012015542015433311,-0.0008169151842594147
1772702176117703200,3.720703125,-0.0009370036423206329,-0.0011562462896108627,-0.0015179130714386702
1772702176127752200,3.730752197265625,-0.0013820179738104343,0.0010073059238493443,0.0007034296868368983
1772702176137802200,3.74080224609375,0.00022271659690886736,0.002042192965745926,-0.00033892763894982636
1772702176147851000,3.75085107421875,0.0012094177072867751,-0.00047236401587724686,0.001056302455253899
1772702176157901000,3.760901123046875,0.00018051883671432734,0.0005029975436627865,0.0010692960349842906
1772702176167950000,3.7709501953125,-0.0012296250788494945,-0.0003478825092315674,0.002411529188975692
1772702176178000100,3.781000244140625,0.001387253520078957,0.000057582277804613113,-0.0006924968911334872
1772702176188049200,3.791049072265625,-0.00005085347220301628,-0.0009272545576095581,-0.0005995526444166899
1772702176198099200,3.80109912109375,-0.000001485692337155342,0.0009961407631635666,0.00011380018258932978
1772702176208148000,3.81114794921875,-0.00010934367310255766,0.0005921395495533943,0.0005484280409291387
1772702176218198000,3.821197998046875,0.002497972222045064,-0.0002818014472723007,0.0007898258045315742
1772702176228247000,3.8312470703125,-0.0006173936417326331,0.00139172887429595,0.0006172529538162053
1772702176238297300,3.84129736328125,-0.0010971216252073646,0.0012209420092403889,0.0007054610177874565
1772702176248346000,3.85134619140625,0.0007353994296863675,0.0007953685708343983,-0.000998163130134344
1772702176258396200,3.861396240234375,0.0007644087309017777,-0.0029974915087223053,-0.0003244382096454501
1772702176268445000,3.87144482421875,0.0016808025538921356,0.0006728773005306721,0.00022976563195697963
1772702176278495000,3.881494873046875,0.0006509121740236878,0.0028167604468762875,-0.0030241336207836866
1772702176288544300,3.891544189453125,-0.0013754870742559433,0.0002563977614045143,0.0011690134415403008
1772702176298594000,3.901593994140625,0.0020890356972813606,-0.0014048279263079166,-0.0019389936933293939
1772702176308643000,3.91164306640625,-0.0006883748574182391,0.0013374285772442818,-0.001779204118065536
1772702176318693000,3.921693115234375,0.001415108097717166,0.002472002524882555,-0.0012775071663782
1772702176328742100,3.9317421875,0.00002334010787308216,-0.0007983590476214886,-0.0016029455000534654
1772702176338791200,3.941791259765625,-0.00015271012671291828,-0.002012740820646286,0.0022009441163390875
1772702176348841200,3.95184130859375,0.0005924424040131271,-0.0032178210094571114,-0.0012244137469679117
1772702176358890000,3.961889892578125,-0.0015394604997709394,0.0011935248039662838,-0.0021716891787946224
1772702176368940000,3.97193994140625,0.0024528843350708485,0.00165185471996665,-0.0009777940576896071
1772702176378989300,3.9819892578125,0.000002753688022494316,0.0020745652727782726,-0.0013877669116482139
1772702176389039000,3.9920390625,-0.0006819450063630939,0.0018665720708668232,-0.0032623661682009697
1772702176399088000,4.002088134765625,-0.0013923122314736247,0.00027470244094729424,-0.0016124816611409187
1772702176409138200,4.01213818359375,-0.00018563400954008102,0.0003189109265804291,-0.0019621546380221844
1772702176419187000,4.02218701171875,0.0018317470094189048,-0.0008823233656585217,0.00007632408232893795
1772702176429237200,4.0322373046875,-0.0002481817500665784,0.0012668473646044731,-0.00001076128683052957
1772702176439286000,4.0422861328125,0.000539527041837573,0.0009759808890521526,0.0006504219491034746
1772702176449336000,4.052336181640625,0.0011291508562862873,-0.0008469526655972004,0.0009833170333877206
1772702176459385000,4.062385009765625,0.0019965805113315582,0.0006775236688554287,-0.0009976541623473167
1772702176469435100,4.07243505859375,-0.0015611362177878618,-0.0010247686877846718,0.0015022550942376256
1772702176479484200,4.082484130859375,-0.00043254182673990726,-0.00016123289242386818,-0.0034103014040738344
1772702176489534200,4.0925341796875,0.0017232870450243354,-0.0007141050882637501,0.0014326570089906454
1772702176499583000,4.1025830078125,-0.00273629417642951,-0.0002078171819448471,-0.005463998764753342
1772702176509633000,4.112633056640625,0.0007135646301321685,-0.0016800123266875744,0.00023596518440172076
1772702176519682000,4.12268212890625,-0.0022893077693879604,-0.002481927163898945,-0.0007715036626905203
1772702176529732000,4.132732177734375,0.000856151687912643,-0.0004661804996430874,-0.004374227952212095
1772702176539781000,4.142781005859375,-0.001292855478823185,-0.0005306219682097435,0.0018701732624322176
1772702176549831200,4.1528310546875,0.0004970550653524697,-0.0007884157821536064,-0.00004250905476510525
1772702176559880000,4.1628798828125,-0.0003649566788226366,-0.0004841117188334465,0.0028069999534636736
1772702176569930000,4.172929931640625,-0.0014059863751754165,-0.0014127562753856182,-0.0011736266314983368
1772702176579977700,4.182977783203125,0.0022452445700764656,0.0003555980511009693,-0.0015592781128361821
1772702176590027800,4.19302783203125,-0.00022457109298557043,0.00016837799921631813,0.0002828303549904376
1772702176600076800,4.203076904296875,0.0017249386291950941,0.0023357588797807693,-0.0007310562068596482
1772702176610125800,4.213125732421875,0.0009049513610079885,0.0008031101897358894,-0.0018024459714069963
1772702176620176000,4.22317578125,0.0011769008124247193,-0.0007003122009336948,0.00032114420901052654
1772702176630224600,4.233224609375,0.00045198830775916576,-0.0004840637557208538,-0.002267448464408517
1772702176640274700,4.243274658203125,-0.000014721881598234177,0.00021740468218922615,-0.0001591635518707335
1772702176650324000,4.253323974609375,0.0005525314481928945,-0.0013514631427824497,-0.0007919305935502052
1772702176660374000,4.2633740234375,-0.0004941809456795454,0.0008619562722742558,0.001784843159839511
1772702176670422800,4.2734228515625,-0.0008595664985477924,0.0010766074992716312,0.0012791089247912169
1772702176680472800,4.283472900390625,0.0013434560969471931,0.0004992000758647919,0.0019095584284514189
1772702176690521600,4.293521484375,-0.00020916678477078676,-0.0013418435119092464,-0.00000631966395303607
1772702176700571600,4.303571533203125,0.0014369256095960736,-0.0013995305635035038,0.0017345250817015767
1772702176710621000,4.313620849609375,0.0008960375562310219,-0.002884242683649063,0.0008444966515526175
1772702176720670700,4.323670654296875,0.0008388531859964132,-0.0000965530052781105,-0.0006306375726126134
1772702176730719700,4.3337197265625,-0.0010232290951535106,-0.00013916334137320518,0.000017309532267972827
1772702176740769800,4.343769775390625,0.0004359745653346181,0.0013288441114127636,-0.0007058758637867868
1772702176750818800,4.35381884765625,-0.0012974770506843925,0.000008182600140571594,-0.0013048206456005573
1772702176760868900,4.363868896484375,0.0018614879809319973,-0.0005139755085110664,-0.0005699907778762281
1772702176770918000,4.37391796875,-0.001325516845099628,0.00023517198860645294,-0.000129503954667598
1772702176780967700,4.3839677734375,0.0019949611742049456,0.000488948542624712,-0.006676811259239912
1772702176791016700,4.3940166015625,0.0010282337898388505,-0.00008443044498562813,0.0010487529216334224
1772702176801066800,4.404066650390625,0.0005900366231799126,0.0006672111339867115,0.0003058243601117283
1772702176811115800,4.41411572265625,-0.0008635165868327022,0.00011487118899822235,0.0009633587906137109
1772702176821165800,4.424165771484375,-0.001991173019632697,-0.0012764660641551018,-0.0007605887949466705
1772702176831214800,4.43421484375,0.0016408460214734077,0.0015297061763703823,-0.0009222426451742649
1772702176841263900,4.444263916015625,0.0004334785626269877,-0.0000586044043302536,0.0007097458001226187
1772702176851314000,4.45431396484375,-0.0009082219330593944,-0.0008724667131900787,-0.0023486283607780933
1772702176861363000,4.464363037109375,-0.001050422084517777,0.0011136163957417011,-0.00003266337444074452
1772702176871412700,4.474412841796875,0.002082520630210638,0.0031674462370574474,-0.0014257628936320543
1772702176881461800,4.484461669921875,0.00022776040714234114,-0.001172478310763836,-0.00025805813493207097
1772702176891511800,4.49451171875,0.0012887638295069337,-0.0005844524130225182,-0.003012565430253744
1772702176901560800,4.504560791015625,0.00047153967898339033,-0.0004847375676035881,0.001030447892844677
1772702176911611000,4.51461083984375,-0.0011846801498904824,-0.0004011141136288643,0.0003848975757136941
1772702176921659600,4.52465966796875,-0.002437182702124119,0.002843850292265415,-0.0030442234128713608
1772702176931709700,4.534709716796875,0.0020715491846203804,0.0006137192249298096,0.001185941742733121
1772702176941759000,4.544759033203125,0.0005311109125614166,-0.0018020044080913067,-0.001267791842110455
1772702176951809000,4.55480908203125,0.0000914230477064848,-0.001975109800696373,0.0017485044663771987
1772702176961857800,4.56485791015625,0.0019552423618733883,0.0024931486696004868,-0.000011747033568099141
1772702176971907800,4.574907958984375,0.0009403115836903453,-0.0017543272115290165,0.003489777212962508
1772702176981956600,4.58495654296875,0.00348052685149014,0.0011113816872239113,-0.00046206373372115195
1772702176992006700,4.595006591796875,0.004728483967483044,0.0008173687383532524,-0.0015329208690673113
1772702177002056000,4.605055908203125,0.0014340269844979048,-0.00035897037014365196,-0.0033024910371750593
1772702177012105700,4.615105712890625,-0.0015982481418177485,0.0021593142300844193,0.0006192798027768731
1772702177022154800,4.62515478515625,-0.00010173814371228218,0.0009725717827677727,-0.0009513252880424261
1772702177032204800,4.635204833984375,0.0019502274226397276,0.002245563082396984,-0.0010823528282344341
1772702177042253800,4.64525390625,0.0007973851752467453,0.000806526280939579,0.0019397775176912546
1772702177052304000,4.655303955078125,0.0017609167844057083,-0.0021091019734740257,0.001854822738096118
1772702177062353000,4.665352783203125,0.002584969624876976,-0.00024932483211159706,0.0016344493487849832
1772702177072402700,4.675402587890625,0.0012443342711776495,-0.0011172490194439888,0.0007279093842953444
1772702177082451700,4.68545166015625,-0.00035914708860218525,-0.0012090513482689857,-0.0019791885279119015
1772702177092501800,4.695501708984375,-0.000423861900344491,0.00036727357655763626,-0.0007932831067591906
1772702177102550800,4.70555078125,0.0015393707435578108,0.0011646077036857605,-0.0010514301247894764
1772702177112599800,4.715599853515625,-0.0022098275367170572,0.0011520907282829285,0.0008798942435532808
1772702177122649900,4.72564990234375,0.0002815710613504052,-0.0023492183536291122,-0.00006999753531999886
1772702177132699000,4.735698974609375,-0.003581876866519451,0.00002285931259393692,0.0007238907855935395
1772702177142749000,4.7457490234375,0.0007451673736795783,-0.00037568993866443634,0.0012135712895542383
1772702177152797700,4.755797607421875,-0.0005962668219581246,0.00024749012663960457,0.00007134152110666037
1772702177162847700,4.76584765625,0.000484718126244843,0.0007015778683125973,-0.0010632206685841084
1772702177172896800,4.775896728515625,-0.0013256986858323216,-0.0004363907501101494,0.0006854109233245254
1772702177182946800,4.78594677734375,0.00038799556205049157,-0.00006787758320569992,0.00398879311978817
1772702177192995800,4.795995849609375,0.0009270193986594677,0.0006538387387990952,0.0004454572044778615
1772702177203046000,4.8060458984375,-0.0005492201307788491,0.001988097093999386,-0.0005444670096039772
1772702177213094700,4.8160947265625,0.0008532005595043302,0.002583579160273075,0.00008590324432589114
1772702177223144700,4.826144775390625,-0.0001751596573740244,0.0014123553410172462,-0.0006926601054146886
1772702177233194000,4.836194091796875,-0.003312629647552967,0.0016765417531132698,-0.0006929264636710286
1772702177243244000,4.846244140625,0.003309468738734722,-0.0023907353170216084,0.0009728462318889797
1772702177253292800,4.856292724609375,-0.002505010925233364,0.0029180096462368965,-0.001867415034212172
1772702177263342800,4.8663427734375,0.0008070769254118204,-0.0026582274585962296,-0.0011281560873612761
1772702177273391600,4.8763916015625,0.0026782138738781214,-0.00037003960460424423,0.0007512366282753646
1772702177283441700,4.886441650390625,0.0006206199759617448,-0.0012593972496688366,0.00019442800839897245
1772702177293491000,4.896490966796875,0.0006999821634963155,0.0004860381595790386,0.0015331991016864777
1772702177303540700,4.906540771484375,0.00012910622172057629,0.0003492254763841629,-0.0009145369403995574
1772702177313589800,4.91658984375,0.0009040861623361707,-0.001335490494966507,-0.0019185487180948257
1772702177323639800,4.926639892578125,-0.0007322776364162564,-0.003449099138379097,-0.000002051936462521553
1772702177333688800,4.936688720703125,0.0009431169601157308,0.00101382564753294,0.0011739999754354358
1772702177343737900,4.94673779296875,0.0009393873042427003,-0.0008292263373732567,-0.00208040839061141
1772702177353788000,4.956787841796875,-0.0008750242413952947,0.000315133947879076,0.000723367789760232
1772702177363836700,4.966836669921875,-0.0005575432442128658,-0.0000940617173910141,-0.0011563354637473822
1772702177373886700,4.97688671875,0.0010123902466148138,-0.0004272232763469219,0.0011491631157696247
1772702177383936000,4.98693603515625,0.0013497911859303713,-0.001184272114187479,0.0007106625125743449
1772702177393985800,4.99698583984375,0.000029129674658179283,0.001515907235443592,0.000026230118237435818
1772702177404034800,5.007034912109375,0.0002123601152561605,0.000985497608780861,-0.0019616326317191124
1772702177414084900,5.0170849609375,0.0003463171306066215,0.0010456843301653862,0.0002562480513006449
1772702177424134000,5.0271337890625,0.0015458713751286268,-0.004796136170625687,0.0007762559689581394
1772702177434184000,5.037183837890625,-0.0002991666551679373,-0.0013542668893933296,0.0007267212495207787
1772702177444232700,5.047232666015625,-0.001874713459983468,0.00014212122187018394,0.001999079715460539
1772702177454282800,5.05728271484375,0.0008837886853143573,0.0019805016927421093,-0.002548533957451582
1772702177464331800,5.067331787109375,0.000750051811337471,0.002036187332123518,-0.0009609583066776395
1772702177474381800,5.0773818359375,-0.001505379332229495,0.0010287133045494556,0.0005381350638344884
1772702177484430800,5.087430908203125,0.0011002938263118267,-0.000219093170017004,-0.0008172426605597138
1772702177494481000,5.09748095703125,0.0006741880788467824,0.0019423281773924828,0.00047199358232319355
1772702177504529700,5.10752978515625,0.00031650078017264605,-0.001254885457456112,-0.000324052496580407
1772702177514579700,5.117579833984375,0.0022965609095990658,-0.00047857360914349556,-0.0008865121053531766
1772702177524629000,5.12762890625,0.0010959343053400517,0.002033369615674019,-0.00018413233920000494
1772702177534678800,5.1376787109375,-0.0025350195355713367,0.00013213837519288063,0.00021108073997311294
1772702177544727800,5.147727783203125,0.0002173016546294093,-0.000214290339499712,-0.0007144298870116472
1772702177554777900,5.15777783203125,0.00030651758424937725,0.000038976315408945084,-0.00299622630700469
1772702177564826600,5.16782666015625,-0.0014597377739846706,0.00024102255702018738,0.0015327621949836612
1772702177574875600,5.177875732421875,-0.0011833016760647297,0.00023782672360539436,0.0030068219639360905
1772702177584925700,5.18792578125,-0.00007148587610572577,-0.000473828986287117,0.0012909041251987219
1772702177594974500,5.197974365234375,-0.0006539191817864776,0.000843370333313942,0.0005478821112774312
1772702177605024500,5.2080244140625,-0.0005367061821743846,0.0009343847632408142,-0.0005712771089747548
1772702177615073800,5.21807373046875,0.00010884413495659828,0.0008182711899280548,-0.0006277361535467207
1772702177625123600,5.22812353515625,-0.0013276293175294995,0.0014568129554390907,0.001452785450965166
1772702177635172600,5.238172607421875,0.0023304885253310204,-0.0009165960364043713,0.0017928711604326963
1772702177645222700,5.24822265625,0.0001896405592560768,-0.0006083855405449867,-0.0008562389411963522
1772702177655271400,5.258271484375,-0.0024889667984098196,-0.0012797685340046883,-0.0007169555756263435
1772702177665321500,5.268321533203125,0.001330657978542149,-0.0008049909956753254,-0.0010125210974365473
1772702177675370800,5.278370849609375,0.0021407916210591793,0.0011993041262030602,-0.0007680428097955883
1772702177685420500,5.288420654296875,0.0021655638702213764,0.001427922397851944,0.001217392971739173
1772702177695469600,5.298469482421875,0.0003000194556079805,-0.0015588123351335526,-0.0010265863966196775
1772702177705519600,5.30851953125,-0.0015557579463347793,0.0008783703669905663,0.0015573939308524132
1772702177715568600,5.318568603515625,-0.002101173624396324,0.0005579926073551178,-0.0009094922570511699
1772702177725617700,5.32861767578125,0.00012908177450299263,-0.0006896480917930603,-0.0002023025881499052
1772702177735667700,5.338667724609375,0.0007219014223664999,-0.002842547371983528,0.00097055354854092
1772702177745716500,5.348716552734375,0.0004395014839246869,0.00201747240498662,0.002292310819029808
1772702177755766500,5.3587666015625,-0.0010334928520023823,-0.0010664677247405052,-0.000024639273760840297
1772702177765815600,5.368815673828125,0.001123519497923553,0.0004971683956682682,0.00017136940732598305
1772702177775865600,5.378865478515625,-0.0011457600630819798,-0.00025570672005414963,0.001521858386695385
1772702177785914600,5.38891455078125,0.0009546420769765973,-0.000437774695456028,0.0012788630556315184
1772702177795964700,5.398964599609375,-0.0002163498429581523,-0.0014982456341385841,0.006120756268501282
1772702177806013700,5.409013671875,-0.0015862967120483518,-0.001708542462438345,-0.0006537000299431384
1772702177816063700,5.419063720703125,0.004740841221064329,0.00008376454934477806,0.00003073233528994024
1772702177826112500,5.429112548828125,-0.0014678311999887228,0.00031520240008831024,0.00040723843267187476
1772702177836162600,5.43916259765625,-0.0022462732158601284,0.001764228567481041,0.0002410571905784309
1772702177846211600,5.449211669921875,-0.0020995372906327248,0.002085121814161539,-0.000015315250493586063
1772702177856261400,5.459261474609375,0.0006576335290446877,-0.0003218431957066059,0.00019693867943715304
1772702177866310700,5.469310546875,-0.0009314704220741987,-0.0007365727797150612,0.0003239284851588309
1772702177876360700,5.479360595703125,0.000472015468403697,0.0025250008329749107,0.0001108755823224783
1772702177886409500,5.489409423828125,0.0004812578554265201,0.0005664215423166752,-0.0028927638195455074
1772702177896458800,5.499458740234375,-0.00038959586527198553,0.00004044780507683754,0.001154974801465869
1772702177906508800,5.5095087890625,-0.0012446766486391425,-0.0010815043933689594,-0.0019481419585645199
1772702177916557600,5.5195576171875,0.0008243332267738879,0.0004705861210823059,0.0012662935769185424
1772702177926607600,5.529607666015625,0.0015332270413637161,-0.0027195527218282223,0.0011520700063556433
1772702177936656600,5.53965673828125,0.0014903501141816378,0.0011412319727241993,-0.0033193773124367
1772702177946706400,5.54970654296875,-0.00039782142266631126,0.00009467080235481262,-0.0019644382409751415
1772702177956755700,5.559755615234375,-0.0008388409623876214,0.0013844403438270092,-0.001331937499344349
1772702177966805800,5.5698056640625,-0.000025871326215565205,0.0020345598459243774,0.00028762148576788604
1772702177976854500,5.5798544921875,-0.0015009961789473891,-0.0014163642190396786,-0.0006854975945316255
1772702177986904600,5.589904541015625,-0.0011945024598389864,-0.0005317018367350101,0.0008793368469923735
1772702177996953600,5.59995361328125,0.0005333565059117973,-0.0006025414913892746,-0.0012826173333451152
1772702178007003600,5.610003662109375,-0.0019517025211825967,-0.00032434007152915,-0.00003777997335419059
1772702178017052700,5.620052734375,-0.00046166381798684597,-0.00042953481897711754,0.0002549014170654118
1772702178027102700,5.630102783203125,0.001803490798920393,-0.000519853550940752,0.00031911759288050234
1772702178037151500,5.6401513671875,-0.001475126831792295,-0.0016628820449113846,-0.001771730137988925
1772702178047201500,5.650201416015625,0.0005302572972141206,-0.0007959711365401745,0.0006123363273218274
1772702178057250600,5.66025048828125,0.0001731273951008916,0.000784615520387888,0.00010713466326706111
1772702178067300600,5.670300537109375,0.0012678401544690132,-0.0009151315316557884,-0.00029660368454642594
1772702178077349600,5.680349609375,0.0019030041294172406,-0.000165451318025589,-0.0010550719453021884
1772702178087398700,5.690398681640625,0.0018998412415385246,0.00019852537661790848,0.0015567662194371223
1772702178097448700,5.70044873046875,0.0003879646537825465,0.0011876230128109455,-0.00014099909458309412
1772702178107497700,5.710497802734375,-0.0011308579705655575,-0.0014274991117417812,-0.0009228087146766484
1772702178117547500,5.720547607421875,-0.0016011721454560757,0.0001602778211236,-0.0031614620238542557
1772702178127596500,5.730596435546875,-0.0014099522959440947,-0.0002105250023305416,-0.0006391821661964059
1772702178137646600,5.740646484375,0.0004792942199856043,-0.00016924599185585976,-0.0011150890495628119
1772702178147695600,5.750695556640625,0.0011345107341185212,-0.002547751646488905,-0.001660259673371911
1772702178157745700,5.76074560546875,-0.0011534109944477677,-0.00008193077519536018,0.004944379907101393
1772702178167794700,5.770794677734375,-0.0004568940494209528,-0.0007208473980426788,-0.002096647396683693
1772702178177844500,5.780844482421875,-0.00031281705014407635,0.0017732027918100357,-0.0024708216078579426
1772702178187893500,5.7908935546875,-0.0002639583544805646,0.0003877268172800541,-0.003355172462761402
1772702178197943800,5.80094384765625,0.0012662939261645079,-0.0013017826713621616,0.001737856538966298
1772702178207992600,5.81099267578125,-0.000060169026255607605,0.0015931176021695137,0.0004220747505314648
1772702178218042600,5.821042724609375,-0.0011528640752658248,0.0005547506734728813,0.0017153057269752026
1772702178228091600,5.831091552734375,0.0012061061570420861,0.0006457329727709293,0.000450061954325065
1772702178238141400,5.841141357421875,-0.0002565018367022276,-0.00028690556064248085,0.001897223643027246
1772702178248190700,5.851190673828125,0.00020840938668698072,-0.0015633907169103622,0.0003724417183548212
1772702178258240800,5.86124072265625,-0.0011556616518646479,0.002362641505897045,-0.004281698726117611
1772702178268289500,5.87128955078125,-0.0003200442297384143,-0.0012781252153217793,-0.00038261577719822526
1772702178278339600,5.881339599609375,0.0027484497986733913,-0.0006757183000445366,0.0020243492908775806
1772702178288388600,5.891388671875,-0.0006997825112193823,0.0014449022710323334,-0.00029669803916476667
1772702178298438700,5.901438720703125,0.0009092993568629026,0.00018389569595456123,-0.0003020243893843144
1772702178308487700,5.91148779296875,-0.0000883470056578517,0.0009447187185287476,-0.000821490422822535
1772702178318537700,5.921537841796875,0.0007412277045659721,0.001110101118683815,0.00014204118633642793
1772702178328586500,5.93158642578125,0.00242420332506299,-0.0011199088767170906,-0.00005865600542165339
1772702178338636500,5.941636474609375,-0.001120464294217527,-0.0027316538617014885,0.0004241750866640359
1772702178348685600,5.951685546875,-0.002601708984002471,-0.0004221550188958645,0.00008588097989559174
1772702178358734600,5.961734619140625,0.0008460193057544529,-0.00319477217271924,0.0009673872264102101
1772702178368784600,5.97178466796875,-0.0002477249363437295,-0.001624837052077055,0.000305676250718534
1772702178378833400,5.98183349609375,0.00032405578531324863,-0.002422720193862915,0.002064960543066263
1772702178388883700,5.9918837890625,0.002603969071060419,-0.0002945694141089916,-0.0020506291184574366
1772702178398932700,6.0019326171875,-0.0003513407427817583,0.0003696228377521038,0.0009318449883721769
1772702178408982500,6.011982421875,0.00030691782012581825,0.001538009848445654,-0.0012343209236860275
1772702178419031600,6.022031494140625,0.00009013654198497534,-0.001033271662890911,-0.0021688241977244616
1772702178429081600,6.03208154296875,-0.0011059941025450826,-0.0022757919505238533,-0.0009856841061264277
1772702178439130600,6.042130615234375,0.0008208028739318252,0.000060599297285079956,0.00038770801620557904
1772702178449180700,6.0521806640625,-0.0012359194224700332,0.0016155154444277287,-0.0021852245554327965
1772702178459229700,6.062229736328125,0.0008661135216243565,0.0021982151083648205,-0.0022507382091134787
1772702178469279500,6.072279541015625,-0.00024100777227431536,0.0010997527278959751,0.000934565206989646
1772702178479328500,6.08232861328125,0.0009624746744520962,-0.0014952314086258411,0.0003172444412484765
1772702178489378800,6.09237890625,0.0007599087548442185,0.0009588045068085194,-0.0015145719517022371
1772702178499427600,6.102427490234375,-0.000270734541118145,-0.000022570136934518814,-0.00014544083387590945
1772702178509477600,6.1124775390625,-0.0008231626125052571,0.0004939367063343525,-0.00016694783698767424
1772702178519526700,6.122526611328125,0.0005691380356438458,0.0007059243507683277,-0.0014173019444569945
1772702178529576400,6.132576416015625,0.00023703876649960876,-0.00007144967094063759,0.0016165791312232614
1772702178539625700,6.142625732421875,0.002045591361820698,-0.00155989034101367,0.0001616941881366074
1772702178549675800,6.15267578125,0.0034909420646727085,-0.0005394117906689644,-0.0018083746545016766
1772702178559724500,6.162724609375,0.0021377899684011936,-0.001932777464389801,0.0007178999949246645
1772702178569774600,6.172774658203125,-0.0007139025256037712,0.0011989478953182697,-0.0009024090832099319
1772702178579823600,6.18282373046875,-0.001563983503729105,-0.0007896344177424908,-0.0013855064753443003
1772702178589872600,6.19287255859375,0.0019373743562027812,-0.0014391643926501274,0.0009752655168995261
1772702178599922700,6.202922607421875,0.00012615846935659647,0.001869546715170145,0.0005923029966652393
1772702178609971500,6.212971435546875,0.002011549426242709,0.00047229044139385223,0.001216106815263629
1772702178620021500,6.223021484375,-0.0004931535804644227,0.0009362129494547844,0.00031222988036461174
1772702178630070500,6.233070556640625,0.0010163551196455956,-0.0012486469931900501,-0.0004318174906075001
1772702178640120600,6.24312060546875,-0.001109113683924079,-0.00019510043784976006,0.00005234518903307617
1772702178650169600,6.253169677734375,-0.0005353668238967657,-0.0003901710733771324,-0.0005452295299619436
1772702178660219600,6.2632197265625,-0.0013665392762050033,0.0003872052766382694,0.004023423418402672
1772702178670268400,6.273268310546875,-0.00007720803841948509,-0.0003908504731953144,0.00009376497473567724
1772702178680318700,6.283318603515625,0.0006335896323435009,-0.0006316001527011395,-0.002084434498101473
1772702178690367500,6.293367431640625,-0.000020540785044431686,0.0006010164506733418,-0.0006872661178931594
1772702178700417500,6.30341748046875,-0.001824299804866314,-0.0019428352825343609,0.000620079692453146
1772702178710466600,6.313466552734375,-0.001154583296738565,-0.0003210850991308689,0.0007652136264368892
1772702178720516600,6.3235166015625,-0.0023173196241259575,0.0004560258239507675,-0.0025155346374958754
1772702178730565600,6.333565673828125,0.0017667871434241533,-0.00214504636824131,0.00018666841788217425
1772702178740615700,6.34361572265625,0.0009694367181509733,-0.002688064705580473,0.0022554120514541864
1772702178750664400,6.35366455078125,0.0004143464029766619,-0.0017461441457271576,0.0019029348623007536
1772702178760714500,6.363714599609375,-0.0011409396538510919,0.0008352575823664665,0.0008075766963884234
1772702178770763500,6.373763427734375,0.00001985661219805479,0.00036551523953676224,-0.002225094474852085
1772702178780813600,6.3838134765625,-0.000012101372703909874,0.0007306351326406002,-0.0013180217938497663
1772702178790862600,6.393862548828125,-0.000649035326205194,0.002430280204862356,-0.0010247572790831327
1772702178800912600,6.40391259765625,0.00005297386087477207,0.0016126898117363453,-0.0006433926173485816
1772702178810961400,6.41396142578125,0.0013861849438399076,-0.0004733595997095108,-0.000038952333852648735
1772702178821011500,6.424011474609375,-0.0006199742201715708,0.00019749067723751068,-0.002215287648141384
1772702178831060700,6.434060791015625,-0.0025244620628654957,0.0011952868662774563,-0.00048776576295495033
1772702178841109500,6.444109619140625,-0.0014304352225735784,0.0004573254846036434,-0.0015346542932093143
1772702178851159600,6.45415966796875,-0.0013390898238867521,0.0012893099337816238,-0.0013880871701985598
1772702178861208600,6.46420849609375,-0.0032853279262781143,0.0004935571923851967,0.001470549963414669
1772702178871258600,6.474258544921875,-0.000040414975956082344,0.001156538724899292,0.0007487037219107151
1772702178881307600,6.4843076171875,0.0002466738224029541,-0.0010951641015708447,0.0012757433578372002
1772702178891357700,6.494357666015625,0.0020622173324227333,0.0010718079283833504,-0.00036556716077029705
1772702178901406500,6.504406494140625,-0.002280066953971982,0.00014982186257839203,0.0011108892504125834
1772702178911456500,6.51445654296875,0.001692483201622963,-0.0009765787981450558,0.00041218442493118346
1772702178921505500,6.524505615234375,-0.0010303327580913901,0.0011715264990925789,0.0008481439435854554
1772702178931555600,6.5345556640625,0.0010713465744629502,0.002455553039908409,0.0005479358369484544
1772702178941604600,6.5446044921875,0.000981598044745624,0.00020784512162208557,-0.001416411716490984
1772702178951654700,6.554654541015625,-0.0004539113724604249,-0.00012428220361471176,0.0002449298626743257
1772702178961703400,6.564703369140625,-0.0009884078754112124,0.002011040225625038,0.00026889832224696875
1772702178971753500,6.57475341796875,0.0013765925541520119,0.000010616611689329147,0.0021139809396117926
1772702178981802500,6.584802490234375,-0.0006601930363103747,-0.00028153229504823685,0.0000529605895280838
1772702178991852500,6.5948525390625,0.00034655717900022864,-0.0003496450372040272,0.00007005571387708187
1772702179001901600,6.604901611328125,-0.0022825156338512897,0.00030043255537748337,-0.0026093507185578346
1772702179011951600,6.61495166015625,-0.0015047485940158367,0.00012544821947813034,0.0010704377200454473
1772702179022000600,6.625000732421875,-0.0018400405533611774,0.0007094796746969223,0.00030264834640547633
1772702179032050700,6.63505078125,-0.002145759528502822,0.05740226432681084,0.026224588975310326
1772702179042099500,6.645099365234375,0.0002694612485356629,0.10626168549060822,0.052321966737508774
1772702179052149500,6.6551494140625,-0.0027113626711070538,0.08757948130369186,0.04309707507491112
1772702179062198500,6.665198486328125,-0.0005153199890628457,0.05475149303674698,0.0281229205429554
1772702179072248600,6.67524853515625,0.0002149452338926494,-0.010655294172465801,-0.004821052309125662
1772702179082297600,6.685297607421875,0.0016796838026493788,-0.05242804065346718,-0.025508221238851547
1772702179092346600,6.6953466796875,0.0009702249662950635,-0.07398341596126556,-0.037902090698480606
1772702179102396400,6.705396484375,0.0016522605437785387,-0.10447660833597183,-0.04958910495042801
1772702179112445700,6.71544580078125,0.00044034619349986315,-0.03608335554599762,-0.017812663689255714
1772702179122495700,6.725495849609375,-0.001425730879418552,0.005760496016591787,0.0022886088117957115
1772702179132544500,6.73554443359375,-0.000022699125111103058,-0.034988150000572205,-0.01587783545255661
1772702179142594600,6.745594482421875,-0.0003896827111020684,0.014155960641801357,0.005766207352280617
1772702179152643600,6.7556435546875,0.0013462586794048548,-0.010508560575544834,-0.006535789463669062
1772702179162693400,6.765693359375,-0.0006236815825104713,0.008009729906916618,0.001819079159758985
