time,seconds_elapsed,z,y,x
1772701782299315700,0.074315673828125,0.14151158044934273,-0.18133038061857223,-0.0728629916369915
1772701782309363700,0.08436376953125,0.11542319946885109,-0.1573106226056814,-0.09337035761475562
1772701782319412700,0.094412841796875,0.07666121487617492,-0.10545184055268764,-0.0680044456899166
1772701782329461500,0.10446142578125,0.08570902920663356,-0.07458323955833912,-0.06455050584375858
1772701782339509800,0.114509765625,-0.022779987084865568,-0.03761895203739404,-0.10680500872731208
1772701782349558500,0.12455859375,-0.16444529679119585,-0.05899024136811495,-0.1226373686313629
1772701782359607800,0.13460791015625,-0.22201076605319975,-0.12616904988884925,-0.14563304429352283
1772701782369655600,0.144655517578125,-0.30719547912478445,-0.1418935655042529,-0.17254443209469317
1772701782379704800,0.154704833984375,-0.4124421524941921,-0.12418138320297002,-0.20818565431833266
1772701782389753600,0.164753662109375,-0.4634732515513897,-0.03364975614547729,-0.195351891708374
1772701782399801900,0.1748017578125,-0.42818157341778273,0.13400427355915306,-0.24387772994637488
1772701782409850600,0.1848505859375,-0.3689163145005703,0.22367460761219263,-0.2974164279103279
1772701782419899600,0.194899658203125,-0.32230653901696205,0.2201134079992771,-0.30536534108817576
1772701782429947600,0.20494775390625,-0.2970259672880173,0.21635610129237173,-0.3180699243605137
1772701782439996700,0.21499658203125,-0.27595921386182304,0.16425766526460647,-0.3153156572163105
1772701782450045700,0.225045654296875,-0.1890823099195957,0.11220482194423675,-0.3434861051678657
1772701782460093700,0.23509375,-0.08519172733426093,0.06370119553804397,-0.3626590076714754
1772701782470142700,0.245142822265625,-0.005584522134065628,-0.011240063677728175,-0.37721652533411976
1772701782480190700,0.255190673828125,0.056841246640682214,-0.06725654993206262,-0.35434126118123527
1772701782490239700,0.26523974609375,0.143594231942296,-0.12099720020890235,-0.3045709758400917
1772701782500288800,0.275288818359375,0.17624854730963707,-0.10526099415570497,-0.2710819632142782
1772701782510336500,0.28533642578125,0.14180617948174476,-0.09589373861253261,-0.242717453995347
1772701782520385800,0.2953857421875,0.12266133402884005,-0.094540862698853,-0.20950199761390684
1772701782530434600,0.3054345703125,0.1035930609434843,-0.04824000703394413,-0.11541676972806453
1772701782540482800,0.31548291015625,0.07895897042453288,-0.020310966622829437,-0.059576809084415434
1772701782550531600,0.325531494140625,0.09210311415791511,-0.041214053919911384,-0.07162497427463531
1772701782560580600,0.33558056640625,0.09617255555391312,0.008351064237952233,-0.16350012489557264
1772701782570628600,0.345628662109375,0.10533727426230907,-0.08508651339411735,-0.1431020645111799
1772701782580677600,0.355677734375,0.18477613715827465,-0.22499504256099462,-0.17943945230543612
1772701782590726700,0.3657265625,0.23047288945019243,-0.24882366191595792,-0.2449357145667076
1772701782600774700,0.375774658203125,0.10796996085345745,-0.12429215010106563,-0.27772330092489717
1772701782610823700,0.38582373046875,-0.09826280583143233,0.01180588086694479,-0.3009925328314304
1772701782620872700,0.395872802734375,-0.30490824497044083,0.09925210912972689,-0.3380991514325142
1772701782630920700,0.405920654296875,-0.24704993024170396,0.15083061293661593,-0.4272790716201067
1772701782640969700,0.4159697265625,0.05561375067234039,0.056175183947384355,-0.5484446141332388
1772701782651018500,0.4260185546875,0.2931365586340427,-0.05542845723330974,-0.6716787796139717
1772701782661066800,0.436066650390625,0.5053180045902729,-0.10723492457717657,-0.8513649001568555
1772701782671115500,0.446115478515625,0.6906149507522582,-0.1236877544671297,-1.0598223571538925
1772701782681163800,0.456163818359375,1.0697557221472263,-0.04804156185239553,-1.2821926041692495
1772701782691212500,0.466212646484375,1.281558982440829,-0.08668781111091375,-1.5056354488521813
1772701782701261800,0.47626171875,1.4359317980289459,-0.22147096008807418,-1.6992448808073997
1772701782711309600,0.4863095703125,1.679704314035177,-0.42909839600175614,-1.90219438803792
1772701782721358800,0.49635888671875,2.060584038051963,-0.6078811379641295,-2.0342244389146567
1772701782731407600,0.50640771484375,2.3147522758662697,-0.7488780468896031,-2.094185863402486
1772701782741455600,0.51645556640625,2.49110720615983,-0.8910039598450065,-2.212603568512201
1772701782751504600,0.526504638671875,2.7001807492285965,-1.0468944865196943,-2.2855600836515424
1772701782761553700,0.5365537109375,2.965055089974403,-1.2302312385246157,-2.3253502422481773
1772701782771601700,0.5466015625,3.209895527473092,-1.4270280683442949,-2.3218851964861154
1772701782781650700,0.556650634765625,3.314474092322588,-1.8620242902129887,-2.374876781961322
1772701782791699700,0.56669970703125,4.1168274165511125,-2.335481760162115,-2.1932202381283044
1772701782801747500,0.57674755859375,4.245297144597768,-2.5285914259016513,-1.981193690472841
1772701782811796700,0.586796630859375,4.116448646366596,-2.43846779512316,-1.8167834649950265
1772701782821845800,0.596845703125,3.8835955837815996,-1.9774626872509717,-1.5480267298579216
1772701782831893800,0.606893798828125,3.3490497311413288,-1.4180588722079992,-1.027810431343317
1772701782841942800,0.61694287109375,2.463554597845673,-0.521757974998653,-0.20326573357284067
1772701782851991600,0.626991455078125,0.8211778516858815,0.7339002579882741,0.8441635904759168
1772701782862039600,0.63703955078125,-1.6077333028018475,1.858293579252064,1.9199673606157301
1772701782872088600,0.647088623046875,-4.074729565533995,2.3569991799652574,2.8548487483710048
1772701782882136600,0.657136474609375,-5.688500394934415,2.496339553855359,3.7038679621845483
1772701782892185600,0.667185546875,-7.1641603922396895,3.1257524324089285,4.705228193497658
1772701782902234600,0.677234619140625,-8.680608911529182,4.296100572378934,4.975688225421309
1772701782912282600,0.68728271484375,-9.690995914384722,5.308630140221118,4.606539855730533
1772701782922331600,0.69733154296875,-11.09398698132038,6.30758038778305,4.59176635722965
1772701782932380700,0.707380615234375,-12.583809359490871,7.4318024441331625,4.380488582114875
1772701782942428700,0.7174287109375,-13.377692961537837,7.55198657439351,4.044948175254464
1772701782952477700,0.727477783203125,-12.95640348572135,6.581136632156372,4.140926085019111
1772701782962526500,0.7375263671875,-12.118535780519247,5.3053761068612335,4.757520106270909
1772701782972574700,0.74757470703125,-11.262974597716331,4.302269031880796,5.587013366359472
1772701782982623500,0.75762353515625,-10.65763437640667,3.220593447098136,6.260605870640277
1772701782992672800,0.7676728515625,-10.574348190432787,2.311988656371832,6.5095256864070885
1772701783002720500,0.777720458984375,-10.365004013729095,1.9687892591908573,6.761438254249096
1772701783012769800,0.787769775390625,-9.878702844297885,1.9287474639207123,6.868590468978882
1772701783022818600,0.797818603515625,-9.57728945570588,1.8027268825918434,6.8099494794398545
1772701783032866800,0.80786669921875,-8.78608062582612,1.6374375361919402,6.479256804871559
1772701783042915600,0.81791552734375,-7.343147424602508,1.5493416118487715,6.2235436757028095
1772701783052964600,0.827964599609375,-5.5084682374328375,1.1523279146328569,4.776805236977339
1772701783063012600,0.8380126953125,-3.357113210609555,0.26043080534040924,2.94174844866693
1772701783073061600,0.8480615234375,-1.569965589943528,-0.7370438167110085,1.0946619076058268
1772701783083110700,0.858110595703125,0.5579600459754467,-1.171796292951703,-0.6029767070487141
1772701783093158700,0.86815869140625,2.8445728535503148,-1.210778642296791,-1.5546531622603534
1772701783103207700,0.878207763671875,4.456922710236907,-1.7306532877668737,-1.9485864291176198
1772701783113256700,0.888256591796875,5.814777581372857,-2.4119895380422474,-2.4236074951216575
1772701783123304700,0.8983046875,7.357481654903292,-3.1567472901314497,-3.109360392795503
1772701783133353700,0.908353759765625,8.55342103998661,-3.591260989180207,-3.6526737815201282
1772701783143402500,0.918402587890625,9.10098770224154,-4.08101580619663,-4.531892318764329
1772701783153450800,0.92845068359375,9.412406352019309,-4.938246091255546,-5.5510401357024906
1772701783163499500,0.93849951171875,9.572581716406345,-5.812659858566522,-5.907559325444698
1772701783173547800,0.9485478515625,9.801028068464994,-6.399215884429216,-6.154474231129885
1772701783183596500,0.958596435546875,10.201370617842674,-6.780791774016619,-6.616786037686467
1772701783193645800,0.968645751953125,10.657075573480128,-7.063636655738949,-6.675264530140161
1772701783203693600,0.978693603515625,10.844670859712362,-7.154658988922834,-6.66489861894846
1772701783213742800,0.988742919921875,11.117370194995402,-7.006599594265222,-6.650746759477257
1772701783223792000,0.998792236328125,11.366757628273962,-6.587506167188287,-6.437092902880907
1772701783233839900,1.00883984375,11.529674400323628,-5.981859656408429,-6.224023568174243
1772701783243889200,1.01888916015625,11.32702066116929,-5.413952801436186,-6.190684777674079
1772701783253938000,1.02893798828125,10.351354258561134,-4.812048692055046,-6.161826931980252
1772701783263986200,1.038986083984375,9.271881444519758,-4.4220247075960035,-5.879689321744442
1772701783274035000,1.049034912109375,8.207949898481369,-4.133140253448486,-5.48257800937295
1772701783284084000,1.059083984375,7.362056707733869,-3.754366561800241,-5.178629549345374
1772701783294132000,1.069132080078125,6.685248164016008,-3.2497882696613667,-4.7349236590594055
1772701783304181000,1.079180908203125,6.187535958254337,-2.6528353529468176,-4.444990864902734
1772701783314230000,1.08922998046875,5.678906637158989,-2.1607520929828286,-4.4424014329314225
1772701783324278000,1.099278076171875,5.428872138148546,-1.8118799108624457,-4.68399952750802
1772701783334327000,1.1093271484375,5.362049011197686,-1.683703320543468,-4.855149874895811
1772701783344376000,1.1193759765625,5.098867445844411,-1.631385981068015,-5.101067001715302
1772701783354424000,1.129424072265625,4.897556353470683,-1.4695777547821403,-5.299537317705154
1772701783364473000,1.13947314453125,4.703184704971314,-1.3423106805235148,-5.394392945441603
1772701783374521000,1.14952099609375,4.473856893903017,-1.3209808922469615,-5.336853195142746
1772701783384570000,1.159570068359375,4.050872304606438,-1.229335458728671,-4.824969256165623
1772701783394619000,1.169618896484375,3.3407214632570743,-1.2747314745083451,-3.6875633085936306
1772701783404667000,1.1796669921875,2.4006740710407493,-1.4526689978182314,-2.121128815385699
1772701783414716000,1.1897158203125,0.8542804953426122,-1.426815302376449,-1.153254089567065
1772701783424765200,1.19976513671875,-0.9937620312690735,-1.178730476129055,0.3435270217001438
1772701783434813000,1.20981298828125,-2.8829595750898123,-0.7924220050618052,4.1899920214831825
1772701783444862000,1.219862060546875,-5.126234760719537,-0.07822481093108653,8.646286955210567
1772701783454911000,1.229910888671875,-5.723452465850115,1.2376114119037984,10.557159739744662
1772701783464959000,1.239958984375,-6.23902298438549,3.0931545234039426,11.070892521458864
1772701783475008000,1.250008056640625,-12.141537885922192,5.939381866163015,16.03641649574041
1772701783485057000,1.26005712890625,-24.293220733761785,11.611327432137728,22.64370931341648
1772701783495105000,1.27010498046875,-27.78935370800495,16.154113485360146,20.457712012279032
1772701783505153800,1.28015380859375,-23.29185290366411,13.462521116256713,17.564014185553788
1772701783515203000,1.290203125,-24.273178647208212,9.118624481219053,20.012897868490217
1772701783525250800,1.300250732421875,-18.770360982882977,4.207642828986049,12.879237243932485
1772701783535300000,1.310300048828125,-11.267072096163034,0.5472745474405586,2.9628917744606733
1772701783545349000,1.32034912109375,-7.200195582216978,-0.6245517022579908,-2.930617982843518
1772701783555397000,1.330397216796875,-4.884978026926517,-0.05967617780566215,-5.557640556880831
1772701783565446000,1.34044580078125,-2.75196588152349,0.0855897867411375,-3.9846950743436813
1772701783575495000,1.350494873046875,-2.192453929930925,-1.9233010350830853,-5.593638921979069
1772701783585543000,1.36054296875,-1.8500351617336273,-1.7016586639508604,-4.022327178123593
1772701783595592000,1.370592041015625,-0.535129790008068,-0.27051658441647886,-0.36772681245505806
1772701783605641000,1.380640869140625,1.2463403695434332,0.052929626154899594,0.43282559983134267
1772701783615689000,1.39068896484375,3.9976936721265313,-0.24196415141001343,-0.18025544486343859
1772701783625738000,1.400738037109375,6.389428065386414,-0.7096857080556452,-0.7082412083357572
1772701783635787000,1.410787109375,7.262950436815619,-0.8430597208872437,-1.3886112439274787
1772701783645835000,1.4208349609375,7.263734280669689,-0.8107647403515875,-1.6829858199238776
1772701783655884000,1.430884033203125,7.406075297680497,-0.7709994239352643,-1.7224264344304798
1772701783665932800,1.440932861328125,8.077742386856675,-0.831931447020918,-1.7633681011497973
1772701783675981000,1.45098095703125,9.277895590242743,-0.942784708225727,-1.9992168384194373
1772701783686029800,1.46102978515625,10.384723444199562,-0.9966882939793169,-2.5215087741643187
1772701783696079000,1.4710791015625,10.72678799213171,-0.5807639984577894,-3.04975055822432
1772701783706126800,1.481126953125,10.371651196658611,-0.22743922084271906,-2.9084201795607805
1772701783716176100,1.491176025390625,10.239380907285213,0.19550006800740957,-2.9741245316147804
1772701783726224000,1.501223876953125,9.621432548815012,0.3810251238368451,-2.9612329013377425
1772701783736273200,1.511273193359375,8.853587058866024,0.1903296796321869,-2.5410943491220475
1772701783746322000,1.521322021484375,7.793546675047278,-0.08638385972827672,-2.5893524763345717
1772701783756370200,1.5313701171875,6.612610213306546,-0.5260350677959621,-2.572965405157208
1772701783766419000,1.5414189453125,5.4904404133111235,-0.7932838825881481,-2.4280600906163454
1772701783776468000,1.551468017578125,4.5180110929280515,-0.7914397160261869,-2.031409966015816
1772701783786516000,1.561515869140625,3.724713766336441,-0.5092142813764512,-1.1626865193009377
1772701783796565000,1.57156494140625,3.0267420230805873,-0.26441724462807176,-0.6002274083405733
1772701783806614000,1.581614013671875,2.0637971548795697,-0.06113163731098175,-0.011423895812034606
1772701783816662000,1.591662109375,0.7821814738154411,0.2340621461138129,0.690615535274148
1772701783826711000,1.6017109375,-0.6646610098063945,0.7166599309824406,1.2577099048197269
1772701783836760000,1.611760009765625,-1.7528291714787483,1.2876070304334164,1.595683968567848
1772701783846808000,1.62180810546875,-2.480036361569166,1.6589691306509076,1.9312550628274678
1772701783856857000,1.631857177734375,-2.3782114793419837,1.8852360928438603,2.114765710094571
1772701783866905900,1.64190576171875,-1.4597148246765135,1.7676213746801017,1.5824690976858138
1772701783876954000,1.6519541015625,-1.5252631093859672,1.445037626156956,1.1600649386256932
1772701783887003000,1.6620029296875,-1.8502678014457226,1.2743339996233582,1.0008657257944344
1772701783897052200,1.67205224609375,-2.103258812174201,1.2338251713633537,0.9691203419655561
1772701783907100000,1.682099853515625,-2.1378607544779777,1.3546072675168515,0.956272550830245
1772701783917149200,1.692149169921875,-2.376284310671687,1.4877239445865154,0.5111509485274554
1772701783927198000,1.702197998046875,-2.4890719009399414,1.5547291501060128,-0.22065701335668564
1772701783937246200,1.71224609375,-2.5886761845082042,1.90713652061522,-0.3824883282572031
1772701783947295000,1.722294921875,-3.0900024891138074,2.145459539043903,0.22896891462802885
1772701783957343000,1.732343017578125,-3.7021255024313926,2.0342071955189107,0.9957540818691253
1772701783967392000,1.74239208984375,-4.163593259379267,1.8772315039560197,1.7313602669924497
1772701783977441000,1.75244091796875,-4.694539041700959,1.8496245351061225,2.508136082372069
1772701783987489000,1.762489013671875,-5.620186152642965,2.15373666126281,3.6442917376220225
1772701783997538000,1.7725380859375,-7.3263833368062965,3.0307658717691894,4.695037638872861
1772701784007587000,1.782587158203125,-10.093490088838339,4.424319248273968,5.140003173831105
1772701784017635000,1.792635009765625,-13.016894487041235,5.626239461332559,5.159123469364642
1772701784027684000,1.80268408203125,-15.315711527150869,5.956499005180597,4.873254563646018
1772701784037733000,1.812733154296875,-15.816086814641952,5.849228132507204,4.17793947237879
1772701784047780900,1.82278076171875,-13.555544267868996,4.948955116796493,3.6470074263215064
1772701784057830100,1.832830078125,-10.877061555707455,3.188874951276183,4.198574556389451
1772701784067879000,1.84287890625,-9.197112327000498,1.4157067561239003,5.2949786314874885
1772701784077927200,1.85292724609375,-8.23215378088951,0.4089358979389071,5.804157403159142
1772701784087976000,1.862975830078125,-8.576412039473652,1.1738315981715917,5.893354274481535
1772701784098025000,1.87302490234375,-9.045775518107414,1.6061889959692954,5.853139752992988
1772701784108073000,1.883072998046875,-8.15997818699479,1.8990508293151855,5.88821632707119
1772701784118122000,1.8931220703125,-7.195912790331244,1.9309139943048357,5.262251250883937
1772701784128171000,1.9031708984375,-6.179544374978542,1.469080034393072,4.405374309307336
1772701784138219000,1.913218994140625,-4.710304766109585,0.8031625947847962,3.644102060268819
1772701784148268000,1.92326806640625,-2.7399469424277543,-0.020362696810066697,3.12702756691128
1772701784158317000,1.933317138671875,-0.4842331309854984,-0.6656181644007563,2.765274275907874
1772701784168365000,1.943364990234375,1.669333142146468,-1.1640405642583966,2.2453581293836233
1772701784178414000,1.9534140625,3.5853345217406747,-1.5689898767791688,1.4701210678786039
1772701784188462800,1.963462890625,5.359032293725013,-1.8709744893878697,0.4568979648143053
1772701784198511000,1.973510986328125,6.907715441665053,-2.0643821151606736,-0.6250166894212364
1772701784208559600,1.9835595703125,8.410049510884285,-2.366430148394406,-1.7060539763003586
1772701784218608600,1.993608642578125,9.86388638343811,-2.75017549097538,-2.807150885389745
1772701784228656600,2.00365673828125,10.671410388302803,-3.3230607188820835,-3.7309602595105766
1772701784238705400,2.013705322265625,11.312553744399548,-4.218193156833946,-4.487359641815722
1772701784248754400,2.02375439453125,11.631443168449401,-4.922746908828616,-5.21767093540132
1772701784258802400,2.033802490234375,11.416091275763511,-5.651458073741197,-5.993152619317174
1772701784268851500,2.0438515625,11.207701038783789,-5.868732458922267,-6.377434260731935
1772701784278900700,2.053900634765625,11.159089860349892,-5.729139279314875,-6.631968993771076
1772701784288948500,2.063948486328125,11.035420226061344,-5.5940831586152315,-7.043387063914537
1772701784298997500,2.07399755859375,11.089892990005016,-5.114396438887715,-6.928947614786028
1772701784309045500,2.08404541015625,10.877066231882571,-4.559405471850932,-6.766224319481849
1772701784319094500,2.094094482421875,10.443924990230798,-4.0836642748787995,-6.705111386871337
1772701784329143600,2.1041435546875,10.127176085340976,-3.2964135349750516,-6.6158987334579225
1772701784339191600,2.114191650390625,9.54629284441769,-2.861281119506061,-6.509772354644537
1772701784349240600,2.124240478515625,7.998813227048516,-2.863628559415042,-6.490005577901005
1772701784359289300,2.134289306640625,6.817009919345378,-2.960480621665716,-5.899847143632173
1772701784369337600,2.144337646484375,6.3934641890347,-3.230095142675936,-5.371698883074521
1772701784379386400,2.154386474609375,6.36964784463942,-3.309074863627553,-5.063148482209444
1772701784389435600,2.164435546875,6.435121310546994,-3.195107708185911,-4.948863931381702
1772701784399483400,2.1744833984375,6.552922929584979,-3.0540096769735214,-4.860221771332621
1772701784409532700,2.18453271484375,6.706476245483755,-2.750020300413668,-4.742907643550634
1772701784419581400,2.19458154296875,6.915323578581214,-2.4053043611899017,-4.603427861189842
1772701784429629400,2.20462939453125,7.102944583776593,-1.8346806484743952,-4.516982918924093
1772701784439678500,2.214678466796875,6.9756807243883605,-1.2478162873148917,-4.132265808701515
1772701784449727500,2.2247275390625,6.445712262666225,-1.07078842619583,-3.3431133268296715
1772701784459775500,2.234775390625,5.897669215071201,-0.8438996788427233,-2.260173128938675
1772701784469824500,2.244824462890625,5.4841217316836115,-0.5540533939257264,-1.404963243791461
1772701784479873500,2.25487353515625,4.687518349283933,-0.749945091599226,-0.5887006366759538
1772701784489921500,2.264921630859375,3.8199768058300014,-1.2334399714380502,0.678136577451229
1772701784499970600,2.274970458984375,2.9131776032209395,-1.3074677690707146,2.639604407712817
1772701784510019600,2.28501953125,1.1409820524930954,-0.9917384164869785,5.617589706408977
1772701784520067300,2.2950673828125,-2.334347787696123,-0.1536024157375097,9.297609760016202
1772701784530116600,2.30511669921875,-8.042588655889034,1.227273996154219,13.655751193505525
1772701784540165400,2.315165283203125,-18.28531770455837,3.163881964316964,18.333517379581927
1772701784550213600,2.325213623046875,-30.888624376201626,5.42457414869368,21.305654536771772
1772701784560262400,2.335262451171875,-39.57154740989208,7.596947413626313,20.671703138005732
1772701784570311400,2.3453115234375,-36.288009723103045,8.849147030591965,16.203222676444053
1772701784580359400,2.355359375,-24.243657953691482,7.635922748708724,12.160486916542052
1772701784590408400,2.365408447265625,-17.629984495067596,4.674226029251516,6.593955197197198
1772701784600457500,2.37545751953125,-13.835899670863151,4.244521484050154,1.6074071395874023
1772701784610505500,2.38550537109375,-11.074883636921644,3.5381209351450202,1.2173480838149786
1772701784620554500,2.395554443359375,-9.042951108336448,1.696952824347466,1.9626514870882033
1772701784630603500,2.405603515625,-6.203175425934791,0.23163988740295172,1.0517863502144813
1772701784640651500,2.415651611328125,-3.0308962201505896,-0.6145205759786069,-0.4584124610304832
1772701784650700500,2.425700439453125,-0.6000280863761901,-0.9032625529155135,-1.5542472118079662
1772701784660749300,2.435749267578125,1.7592279326051472,-1.064411146248877,-2.5831699883073567
1772701784670797600,2.445797607421875,3.820485339874029,-0.9135558372624218,-3.1890561530619856
1772701784680846300,2.455846435546875,5.55917141970992,-0.937710181440413,-4.042061806163192
1772701784690895600,2.4658955078125,7.221448798125982,-0.9566180032670497,-4.90306196514964
1772701784700943400,2.475943359375,8.14459064824879,-0.8580091604769229,-5.2791830964624875
1772701784710992600,2.48599267578125,8.751626567560434,-0.6415842317320406,-5.977572772869467
1772701784721040400,2.496040283203125,9.34235607971549,-0.5804414885051549,-6.236199743658304
1772701784731089700,2.506089599609375,9.213246300199627,-0.7784012246243656,-5.969617429950833
1772701784741138400,2.516138427734375,9.072129856547713,-1.3341520701177418,-5.566138920634985
1772701784751186700,2.526186767578125,9.240138398778438,-1.878209993599355,-5.4099955882430075
1772701784761235500,2.5362353515625,9.20917568975985,-1.7344420125253497,-4.947411394485831
1772701784771284500,2.546284423828125,9.090770259609817,-1.3871874947346745,-4.471138867115974
1772701784781332500,2.55633251953125,8.918749559128283,-1.044924501620978,-4.404595726150274
1772701784791381500,2.566381591796875,8.966470510724186,-0.879820302529633,-4.620913248997926
1772701784801430500,2.576430419921875,9.241668677085638,-0.7983997642971575,-4.8639662185579535
1772701784811478500,2.586478515625,9.074811058455705,-0.7262266546204685,-5.214100675699115
1772701784821527600,2.596527587890625,8.333122338548302,-0.8254906003184616,-5.421000966382026
1772701784831576600,2.60657666015625,7.5681977044820785,-0.8320530275739729,-5.6471875568151475
1772701784841624600,2.61662451171875,6.806620042756199,-0.7862818948715925,-5.315666030207276
1772701784851673600,2.626673583984375,5.972946866634488,-0.7618648081041872,-4.529609760785102
1772701784861722400,2.636722412109375,5.079727861088514,-0.8570626734070479,-3.6120045020014047
1772701784871770600,2.6467705078125,4.303025110945105,-1.2752042065866291,-2.7091215960532424
1772701784881819400,2.6568193359375,3.1354566648215054,-1.7652900091230868,-1.3393600140243769
1772701784891868700,2.66686865234375,0.3556476676046848,-1.5228285757154225,0.7515238852232694
1772701784901916400,2.67691650390625,-3.7646705136716365,-0.6506072769474238,2.611411163407564
1772701784911965700,2.686965576171875,-5.6398903855443,-0.14175145361982286,4.895519294685125
1772701784922014500,2.697014404296875,-4.493183525663614,0.40217261434905227,5.15123885359466
1772701784932062500,2.7070625,-5.18852141328454,1.4306938973754644,5.203710799109936
1772701784942111500,2.717111572265625,-7.265934421062469,2.4555478170007468,4.650380751022697
1772701784952160500,2.727160400390625,-7.138822537365555,2.803739615641534,2.0689508843809366
1772701784962208500,2.73720849609375,-5.414007161971926,2.031799988246709,-0.683787735080719
1772701784972257500,2.747257568359375,-4.278150781929493,1.0905240771487354,-1.6050415794998407
1772701784982306600,2.757306640625,-3.435555463683605,0.6004213234774768,-0.9613964697152375
1772701784992354300,2.767354248046875,-2.383022679015994,0.05577230223491787,0.18422317945063113
1772701785002403600,2.777403564453125,-1.5640847152113913,-0.001147927926108241,0.9446177688717842
1772701785012452600,2.78745263671875,-1.6870295423567294,0.27105887459963557,1.6029267793029547
1772701785022500600,2.79750048828125,-2.516073305112123,0.9367340298846364,1.6843085929602384
1772701785032549600,2.807549560546875,-3.1038480591148137,2.0874986407235263,2.0091034416615963
1772701785042598400,2.817598388671875,-3.552586098349094,2.5693337706565855,3.054012891843915
1772701785052646400,2.827646484375,-4.687870231461525,2.2564418334558605,4.327302643111348
1772701785062695400,2.8376953125,-6.6410857816845175,1.7718008523218334,5.6089709311455485
1772701785072744700,2.84774462890625,-9.800015092030167,1.403924256132543,7.06533176921904
1772701785082792400,2.85779248046875,-13.90537126649618,1.2348758494600653,7.676067712092399
1772701785092841500,2.867841552734375,-18.28477643728852,0.9204475695375353,6.981023838981986
1772701785102890500,2.877890380859375,-20.607527310693264,1.3697525219395756,5.812106900858879
1772701785112938500,2.8879384765625,-19.77919198846817,1.7797580949366092,5.205795788690447
1772701785122987500,2.897987548828125,-17.18564147592187,1.5485197740718721,6.9546157245278355
1772701785133036500,2.90803662109375,-14.91752820163369,1.2493895279809832,9.157454270350932
1772701785143084500,2.91808447265625,-12.907059316837787,1.1351620411027221,9.306405645412205
1772701785153133300,2.92813330078125,-11.801650097507238,0.8391212854597717,7.836292176318168
1772701785163182600,2.9381826171875,-10.697893906080722,0.413683530857414,6.594595833188295
1772701785173230300,2.948230224609375,-8.297733629781007,-0.31239487439878283,6.034893911981582
1772701785183279600,2.958279541015625,-5.405542700487375,-1.1797907988369465,5.554033472299576
1772701785193328600,2.96832861328125,-2.889084195449948,-1.75483086668998,5.0150224569439885
1772701785203376600,2.978376708984375,-1.065345504489541,-1.7010421394877135,4.87495815269351
1772701785213425700,2.98842578125,0.1555775152027607,-1.290849081094563,5.176033687633276
1772701785223474400,2.998474365234375,1.0157838934630155,-0.8280991753816604,5.162492069014907
1772701785233522700,3.008522705078125,1.8514298309624193,-0.49204438925832505,4.195215309089422
1772701785243571500,3.018571533203125,3.0566748045295475,-0.25388299113214013,3.0301249435171482
1772701785253620700,3.028620849609375,4.99629437559843,-0.41723099420592186,1.5913567530184984
1772701785263668500,3.03866845703125,7.202607904055714,-0.6746637867741286,-0.033920974302291865
1772701785273717800,3.0487177734375,8.916300412410497,-0.732883043769747,-1.5183227887287736
1772701785283766500,3.0587666015625,10.247762951183319,-0.9235665783409028,-2.707016440467536
1772701785293814800,3.068814697265625,11.58261805500388,-1.2348659125879407,-3.901557649190724
1772701785303863600,3.078863525390625,12.946306454598902,-1.4226812713116406,-5.4002831725239755
1772701785313912600,3.08891259765625,13.805548956263065,-1.245935588134825,-6.306860841336846
1772701785323960600,3.098960693359375,13.849437197828292,-0.9576753303002565,-6.582447714754939
1772701785334009600,3.109009521484375,13.593129025375843,-0.770428857505694,-6.942164823755622
1772701785344058600,3.11905859375,13.343919286751746,-0.6415783134479075,-7.108735442137718
1772701785354106600,3.129106689453125,13.133407235312461,-0.3261312118716538,-7.3956766532629725
1772701785364155600,3.13915576171875,12.461499323117732,-0.06603555676974356,-7.366625330823659
1772701785374204700,3.14920458984375,11.49527879424691,-0.14150222809910773,-7.0309536987990136
1772701785384252700,3.159252685546875,10.966090084725618,-0.24840806685239075,-6.74837477453649
1772701785394301700,3.1693017578125,10.70406996436715,-0.1987874191150069,-6.518486991497874
1772701785404350500,3.1793505859375,10.293915630549192,-0.21254180370122194,-6.410414739313722
1772701785414398500,3.1893984375,9.732190679082274,-0.07633892411924899,-6.170460320290923
1772701785424447500,3.199447509765625,9.053767685905099,-0.040597383326292036,-5.928754089164734
1772701785434496800,3.209496826171875,8.297711417949198,-0.3895593626219779,-6.190414144039154
1772701785444544500,3.21954443359375,7.361330731546879,-0.6057645111363381,-6.066042498961091
1772701785454593500,3.229593505859375,6.032470484226942,-0.9014930590249598,-5.755355086067318
1772701785464642600,3.239642578125,4.925622172003984,-1.191641322563216,-5.851561543890834
1772701785474690600,3.249690673828125,4.553907166695595,-1.200646978252381,-5.844717377084494
1772701785484739600,3.259739501953125,4.807941548997164,-1.3760346709489821,-5.769571242946386
1772701785494788600,3.26978857421875,5.172056600695848,-1.5893752238124608,-5.5382613181501625
1772701785504836600,3.279836669921875,5.363118101733923,-1.5742098033845424,-5.18714018805921
1772701785514885600,3.2898857421875,5.046056477633118,-1.4889341971591115,-4.562679086694121
1772701785524934700,3.2999345703125,4.585219419804215,-1.632818059697747,-3.837557470706105
1772701785534982400,3.309982421875,4.4668040527820585,-1.8576301469072698,-3.182150026935339
1772701785545031400,3.320031494140625,4.338615479764342,-1.915211982782185,-2.6940602205216884
1772701785555080700,3.330080810546875,4.216959523385763,-2.227284274163097,-1.8779945972830057
1772701785565128400,3.34012841796875,3.6013141811609266,-2.674265094466507,-0.5402461101084948
1772701785575177500,3.350177490234375,2.444099371269345,-2.914972669944167,0.9439420615673064
1772701785585226500,3.3602265625,0.6047703124672175,-2.5456132878512143,2.9212668016523122
1772701785595274500,3.3702744140625,-2.683075885170698,-1.7435921181865035,5.505472562748193
1772701785605323500,3.380323486328125,-7.380287360951304,-0.636952772539109,8.554978206300735
1772701785615372500,3.39037255859375,-12.097288409829138,-0.20187413308396934,11.441024641489982
1772701785625420500,3.400420654296875,-15.679844114506244,-0.45616687406077977,13.582718690520524
1772701785635469300,3.41046923828125,-18.18671821411848,-0.8945457241050898,14.532523506641388
1772701785645518600,3.4205185546875,-20.639084478473663,-0.2927139493077993,14.83041456632614
1772701785655566300,3.43056640625,-20.895979510903356,2.094328048352152,15.097435855972765
1772701785665615600,3.44061572265625,-19.810538728368282,3.630109190751612,14.074754019689559
1772701785675664600,3.45066455078125,-17.15967584453821,3.0790321822881697,11.545108116298913
1772701785685712600,3.460712646484375,-13.11071141937971,2.6543819978669285,8.10609871276915
1772701785695761400,3.470761474609375,-9.838009599381685,2.9638498058378695,4.367860863471031
1772701785705810400,3.480810546875,-7.5315101880759,3.24466288947165,1.8881442353755236
1772701785715858400,3.4908583984375,-6.038138008469343,3.3043554338902235,0.44692602137625215
1772701785725907500,3.500907470703125,-4.666604740592837,3.5162346820294856,-0.5045318226486444
1772701785735956500,3.51095654296875,-3.305419263729453,3.535941253018379,-0.800764593732357
1772701785746004500,3.52100439453125,-2.052428204125166,3.439261624725163,-1.1192430988937616
1772701785756053500,3.531053466796875,-1.0953151108175516,3.2678841905832288,-1.5668915893256663
1772701785766102500,3.5411025390625,-0.1295475864112377,2.9900346329301595,-2.2339444627046583
1772701785776150500,3.551150634765625,1.2030167761236428,2.5761668315470216,-2.742380891576409
1772701785786199600,3.561199462890625,2.9191794739842414,2.09952167147249,-2.69262112762928
1772701785796248300,3.571248291015625,4.360106596082448,1.4726120079115033,-2.9676094506323336
1772701785806296600,3.581296630859375,5.485310064685344,0.8943665681459009,-3.880878141516447
1772701785816345300,3.591345458984375,6.032402679687738,0.8219025126986205,-5.021586053243279
1772701785826394600,3.60139453125,6.185823893639445,1.126334518459439,-6.1536389493495225
1772701785836442400,3.6114423828125,6.496048949718475,1.3922498926907776,-7.048178389844298
1772701785846491600,3.62149169921875,6.032938101738691,1.4826614004999399,-7.8446724666506045
1772701785856540400,3.63154052734375,5.223142060288787,1.3702160477980971,-8.316328440135717
1772701785866588700,3.641588623046875,4.976327107846736,1.2553729863047598,-8.591568107551335
1772701785876637400,3.651637451171875,4.996829213127493,1.256499359986186,-8.923841329309344
1772701785886686500,3.6616865234375,4.484446676978469,1.4149763960227368,-7.906857412406802
1772701785896734500,3.671734375,4.16909068775177,1.2597437487348913,-6.36532121361196
1772701785906783500,3.681783447265625,5.049800340336561,0.8714028219919652,-5.5148991472631685
1772701785916832500,3.69183251953125,5.4112575710028405,0.7684566806498915,-5.421360447344184
1772701785926880500,3.701880615234375,5.588109344902635,0.8240349946826696,-5.569982736581563
1772701785936929500,3.711929443359375,5.730868879586458,0.7447389743234962,-5.62879206842482
1772701785946978600,3.721978515625,5.583176564675569,0.5019533869953826,-5.295706945762038
1772701785957026600,3.732026611328125,5.137440045344829,0.3887757379636168,-4.364996706211567
1772701785967075600,3.74207568359375,4.095874644893407,0.5659774943448603,-2.8462966086030006
1772701785977124400,3.752124267578125,2.1973568995416164,1.1168971933547407,-0.9090677320629358
1772701785987172600,3.762172607421875,-0.170495098349452,1.891932814003527,0.8642080151170491
1772701785997221400,3.772221435546875,-1.8718086021244524,2.3593916280597447,1.6352923408567905
1772701786007270700,3.782270751953125,-2.5516461382746694,2.0720240082159638,1.5233470466315746
1772701786017318400,3.792318359375,-3.0252637672215696,1.6318293409213422,1.2028531099945305
1772701786027367700,3.80236767578125,-3.4316274765849113,1.4813190459802745,1.7298276505976915
1772701786037416400,3.81241650390625,-2.447016135498881,1.5815049288287757,2.469853990250826
1772701786047464700,3.822464599609375,-0.9322902022182941,1.3997908095896243,2.855779307219386
1772701786057513500,3.832513427734375,-1.230562954697013,1.448285083645582,3.074792645022273
1772701786067562500,3.8425625,-3.5411774001061915,1.3528484411507844,2.827241194999218
1772701786077610500,3.852610595703125,-4.751898759257793,1.0535611048020421,1.7800503558814524
1772701786087659500,3.862659423828125,-4.904309334862232,0.9623054012537002,0.7015092697322368
1772701786097708500,3.87270849609375,-5.323830047440529,0.9931843775115906,-0.11769114440083503
1772701786107756500,3.882756591796875,-5.487449414801597,0.8522272160746157,0.08784078053832053
1772701786117805600,3.8928056640625,-5.0612172218859195,0.3519771623983979,0.7224182022482156
1772701786127854600,3.9028544921875,-4.2450002074778075,-0.2302903724901378,1.4942951396703719
1772701786137902600,3.912902587890625,-3.5703982338935134,-0.6825671072445809,2.370098315513134
1772701786147951600,3.92295166015625,-4.539680488422513,-0.9356995722703635,3.1915970697164533
1772701786158000400,3.93300048828125,-7.8488781016469,-1.1909690493248402,4.912801853397489
1772701786168048600,3.943048583984375,-11.278894635903834,-1.650597462016344,7.830335898262262
1772701786178097400,3.953097412109375,-14.199542428874969,-1.665488887808472,11.01218898807764
1772701786188146700,3.963146728515625,-16.253587420547007,-0.3343621568612754,11.457115360069274
1772701786198194400,3.9731943359375,-16.75027086778283,0.9174928844504058,10.486382322210073
1772701786208244000,3.983243896484375,-15.886517026174067,0.8747565893992781,10.02410850957632
1772701786218292700,3.993292724609375,-14.099427857697009,1.139118450578302,9.68428794117868
1772701786228341000,4.003341064453125,-11.42646186313033,1.7738346962369977,8.95672886891067
1772701786238389800,4.0133896484375,-8.400569734877347,1.817885727148503,8.230987659719586
1772701786248438800,4.023438720703125,-5.833695632332563,1.600435400878638,8.220540499985217
1772701786258486800,4.03348681640625,-3.891821560335159,1.4219672778233885,7.912798492893576
1772701786268535800,4.043535888671875,-2.2094044802099466,1.468587574701011,7.178062076342106
1772701786278584800,4.053584716796875,-0.30180852538943287,1.3404482476525008,6.151168175321817
1772701786288632800,4.0636328125,1.7556863144755361,1.2112883453845977,5.111590733817219
1772701786298681900,4.073681884765625,3.804619077700376,1.4912357520997523,3.973202789470553
1772701786308731000,4.08373095703125,5.6846746991664165,1.7135259196162222,2.812958402624726
1772701786318779000,4.09377880859375,7.265002108648419,1.5062717009291051,1.2876537921845912
1772701786328828000,4.103827880859375,8.509250474348663,1.042667589539662,-0.4206862492263317
1772701786338876700,4.113876708984375,9.423119469213486,0.6458078407764435,-1.9152800795823335
1772701786348924700,4.123924560546875,10.00338837763071,0.2483172467637807,-3.33341903128922
1772701786358973700,4.1339736328125,10.342360804766416,-0.1282107848495245,-4.751563828215002
1772701786369022700,4.144022705078125,10.47117072455287,-0.49732620211876927,-5.822956211653351
1772701786379070700,4.15407080078125,10.584532899838685,-0.7239280222892761,-6.712666916817426
1772701786389119700,4.16411962890625,10.494666166430711,-1.0154308422416447,-7.436946821284294
1772701786399168800,4.174168701171875,10.274947895228863,-1.3341359957657755,-7.946760968250036
1772701786409216800,4.184216796875,9.9296649697721,-1.4880208817064762,-8.408558395543695
1772701786419265800,4.194265869140625,9.431571655738352,-1.3579083548888564,-8.987064385941624
1772701786429314800,4.204314697265625,8.817236811590194,-1.2617645870380103,-9.249386119595169
1772701786439362800,4.21436279296875,8.200662664082646,-1.1357304155752062,-9.460586153298616
1772701786449411800,4.224411865234375,7.729614008840918,-1.1033289059251545,-9.388539738741516
1772701786459460600,4.234460693359375,7.296602531048655,-1.0051296668492258,-9.09572817427814
1772701786469508600,4.244508544921875,7.089643788176774,-0.7688368390738963,-8.962558305716515
1772701786479557600,4.2545576171875,7.009560782158374,-0.6912973800584673,-8.829123648738861
1772701786489607000,4.26460693359375,6.865173938533664,-0.8683595818385481,-8.202008233472704
1772701786499654700,4.274654541015625,6.829625070768595,-1.1281705017149448,-7.547949281701445
1772701786509704000,4.284703857421875,6.685068131273985,-1.4383350597783922,-6.901757410043477
1772701786519752700,4.294752685546875,6.4587453472405665,-1.6452951178245245,-6.5986500770151615
1772701786529800700,4.30480078125,6.351306716784834,-1.8935314813718198,-6.423014693167805
1772701786539849700,4.314849609375,6.273417421418428,-2.1749764331683514,-6.381512469956278
1772701786549898800,4.324898681640625,6.010538053882121,-2.3215764227978886,-6.1882023132085795
1772701786559946800,4.33494677734375,5.367037905526161,-2.318204023755342,-5.688488119974732
1772701786569995500,4.34499560546875,4.61245755534172,-2.111889862397313,-4.748839371687174
1772701786580044800,4.355044921875,3.934336175459623,-1.7828287345536051,-3.714250824511051
1772701786590092500,4.365092529296875,3.2036914121359583,-1.513943989122659,-2.5009148989468812
1772701786600141800,4.375141845703125,2.598851541563868,-1.2823388807721434,-1.1869810026019811
1772701786610190800,4.38519091796875,2.4366069696873427,-1.0111823910169302,-0.5677075330078601
1772701786620238800,4.39523876953125,1.8116612996757029,-0.832132741746679,0.35922377252578735
1772701786630287600,4.40528759765625,0.11653496010303496,-0.9833759540721774,3.619167233237624
1772701786640336600,4.415336669921875,-3.5301755290985106,-1.3683330105304716,10.069154104483127
1772701786650384600,4.425384521484375,-11.608441063046454,-1.823511604206264,19.112544773280618
1772701786660433700,4.43543359375,-24.13241174764633,-1.3875978291012345,24.944971993112564
1772701786670483000,4.44548291015625,-32.78765650081635,0.7535375631332397,20.061986016786097
1772701786680530700,4.45553076171875,-29.998729546642302,5.388017565190792,20.08377933092117
1772701786690579700,4.465579833984375,-21.56769336183071,7.58475545605123,18.996935695850848
1772701786700628700,4.475628662109375,-16.57725472652316,5.108993703061342,13.255111707007885
1772701786710676700,4.4856767578125,-11.9902355638206,2.444849605114758,7.985449887606501
1772701786720725800,4.495725830078125,-8.399413550579547,3.126266227149963,3.6675551243096587
1772701786730774500,4.5057744140625,-6.199094294100999,4.475200709727406,-1.439512579125166
1772701786740823800,4.51582373046875,-4.836943771597743,2.7146067494660615,-2.9608599763721224
1772701786750871600,4.52587158203125,-3.672416592866182,1.0221544514082372,-2.17614460016489
1772701786760920800,4.5359208984375,-2.3680215092390773,0.46026963320448994,-2.0869722787618636
1772701786770969900,4.545969970703125,-0.9319020796835422,0.32654958341419693,-2.2950006966918703
1772701786781017900,4.556017822265625,0.8952233311057091,0.28196408029980957,-2.7732816412746906
1772701786791066600,4.566066650390625,2.326458495751023,-0.034691228022426364,-3.551461478233337
1772701786801115600,4.57611572265625,3.6000738257110116,-0.35850897531993686,-4.194371844002604
1772701786811163600,4.58616357421875,4.872363460025191,-0.6883887260701507,-4.778904839605093
1772701786821212700,4.596212646484375,6.085498310059308,-1.018887266305834,-5.5671402066320175
1772701786831262000,4.606261962890625,7.065713462013006,-1.3981591167345642,-6.382614293718338
1772701786841309700,4.616309814453125,7.6021268620908256,-2.0337135667830704,-6.464452034449577
1772701786851358700,4.626358642578125,7.6219643659830085,-2.638265268063545,-6.1414832321316
1772701786861407700,4.63640771484375,7.313086048337817,-2.938853896269202,-5.569799781230092
1772701786871455700,4.646455810546875,6.878614434865117,-2.667133342890441,-4.843435471704602
1772701786881504800,4.6565048828125,6.305352774861454,-1.3789458822205662,-4.325744307753443
1772701786891553500,4.666553466796875,5.677068315815926,-0.13733816722221673,-3.792336519232392
1772701786901601800,4.676601806640625,5.532300948441028,0.4338253514584154,-3.6760377059727904
1772701786911650600,4.686650634765625,5.407518384474516,0.4305689069457352,-3.692092768716812
1772701786921699800,4.696699951171875,5.151790057736635,-0.18814955911412834,-3.39576588960886
1772701786931747600,4.70674755859375,4.91572621641159,-0.861183114337921,-3.352370399996638
1772701786941796900,4.716796875,4.690121809780598,-1.0320447079122066,-3.2911750497996803
1772701786951845600,4.726845703125,4.187275163739919,-0.8668424552738666,-2.741773573333025
1772701786961894000,4.736893798828125,3.534531386220455,-0.6537110151164234,-1.6622323702305555
1772701786971942700,4.746942626953125,2.7249714916139838,-0.5975568739570677,0.038792379730939866
1772701786981991700,4.75699169921875,1.2678490215182303,-0.45377939440235493,2.2102456072092056
1772701786992039700,4.767039794921875,-1.1370037965118884,0.10307897394150495,4.068083551648259
1772701787002088700,4.777088623046875,-3.3740497323632237,0.8905496402062475,4.432580296140909
1772701787012137700,4.7871376953125,-4.356838534197211,1.626910735350102,3.128812404501438
1772701787022185700,4.797185791015625,-3.794125740736723,2.3382746057510375,1.220812545055151
1772701787032234800,4.80723486328125,-1.256016544905305,1.89099947867617,-0.552151651957631
1772701787042283800,4.81728369140625,0.03340834860503673,0.4197261720225215,-2.1416899573773143
1772701787052331800,4.827331787109375,-0.573659134888649,-0.3541293719962239,-3.097540483403206
1772701787062380800,4.837380859375,-1.363030227947235,0.16622063590064645,-3.461065167993307
1772701787072429600,4.8474296875,-1.237905134153366,0.8982036620907485,-3.3606910690963265
1772701787082477800,4.857477783203125,-0.3782908765673637,0.8436575406499206,-2.5376328104913233
1772701787092526600,4.867526611328125,0.3227864314883947,0.641855011497438,-2.111753668797016
1772701787102575900,4.877575927734375,0.7296446463704108,0.47607115957885976,-1.7376608284413813
1772701787112623600,4.88762353515625,1.1849813532173632,0.46915801918953653,-1.432576057860255
1772701787122673000,4.8976728515625,1.5011872372716664,0.3845551976591348,-1.3980536105334758
1772701787132721700,4.9077216796875,1.6900427526980637,0.416490404971689,-1.6190794572025538
1772701787142770000,4.91777001953125,1.451875217092037,0.7081478309638798,-2.1350030269593
1772701787152818700,4.927818603515625,0.5739285994797945,0.7828694560796022,-2.4138310742557048
1772701787162867700,4.93786767578125,-0.31499884635210035,0.40269408093988895,-2.129547684162855
1772701787172915700,4.947915771484375,-0.907155760961771,0.37089828209802506,-1.8673492846280335
1772701787182964700,4.95796484375,-1.4987702392578124,0.4815126199804246,-1.1418097354888916
1772701787193013800,4.968013671875,-2.3206243827700614,0.5861785708524286,0.3653121525287628
1772701787203061800,4.978061767578125,-3.6621991502344606,1.026849769617617,2.121557854452729
1772701787213111000,4.988111083984375,-6.618892070055008,1.8224612183704971,4.040520421940088
1772701787223159800,4.998159912109375,-11.569544638419151,2.9345491848126053,6.192590319034457
1772701787233208000,5.0082080078125,-16.13133349827528,3.367268401660025,7.839264470127224
1772701787243256800,5.0182568359375,-18.228467105567454,2.2387761206448076,8.430337681153416
1772701787253305900,5.028305908203125,-18.5662810103178,0.8607944072812795,8.060375072470308
1772701787263353900,5.038353759765625,-17.728185341578723,-0.23628325622938573,8.215159391468763
1772701787273403000,5.04840283203125,-16.42218340727687,-1.3127365032538771,9.466689146348834
1772701787283452000,5.058451904296875,-15.791242296242713,-1.5073755705177783,11.216804382693766
1772701787293500000,5.0685,-15.815965234088896,-0.8338896684166044,12.267204246985912
1772701787303549000,5.078548828125,-15.952820513164996,-0.13008943820297716,12.507674214315413
1772701787313598000,5.088597900390625,-15.388782608580588,0.7210301088906824,12.372100207221507
1772701787323646000,5.09864599609375,-13.687936137795447,1.5878484526365995,11.381174276161193
1772701787333695000,5.108695068359375,-10.501983211445808,1.923558078584075,9.47348421331644
1772701787343743700,5.11874365234375,-6.496164100530743,1.839070992387831,7.176085807833075
1772701787353792000,5.1287919921875,-2.404386369562149,1.275513710927218,5.26845478169918
1772701787363840800,5.1388408203125,1.327168056449294,0.6546355095501989,3.764247904345393
1772701787373890000,5.14889013671875,4.6557980998963115,0.17142229619696736,2.3221289421141145
1772701787383937800,5.158937744140625,7.366752756595611,-0.3787735455177724,0.6000497136861086
1772701787393986800,5.16898681640625,9.202876881876588,-1.0964632579393685,-0.8680775500267743
1772701787404035800,5.179035888671875,10.33556398423314,-1.3945257286682724,-2.26325881999433
1772701787414083800,5.189083740234375,11.198338167154787,-1.5713960611380635,-3.13367621114552
1772701787424132900,5.1991328125,11.93911444839239,-1.7721284768410026,-3.8644068991869687
1772701787434182000,5.209181884765625,12.25090660765767,-2.068998961306363,-4.350049896970391
1772701787444230000,5.21922998046875,12.790152600812911,-2.436822658264637,-4.846644496878981
1772701787454279000,5.22927880859375,13.05265670529604,-2.6892110269248484,-5.711164062163234
1772701787464328000,5.239327880859375,13.306138129889964,-2.8330668324127792,-6.377505572402477
1772701787474377000,5.249376953125,13.381831376516818,-2.7066373780220747,-7.142464108738303
1772701787484424700,5.2594248046875,13.212289633369444,-2.47256850990653,-8.00747934858501
1772701787494474000,5.269473876953125,13.091964633333681,-2.1644794429428873,-8.609398363274336
1772701787504522800,5.279522705078125,12.800346662569046,-1.702187071739137,-9.180793644884227
1772701787514571000,5.289571044921875,12.462062802219391,-1.1430713529225438,-9.737762341734767
1772701787524619800,5.299619873046875,12.18386194691062,-0.7757474952451884,-10.172029957067966
1772701787534668800,5.309668701171875,11.307155100226401,-0.5461269117753953,-10.537702175080776
1772701787544716800,5.319716796875,10.133506457406282,-0.4939238463293761,-9.394638055616616
1772701787554765800,5.329765869140625,8.94009045332074,-0.448656060039252,-8.060340001156925
1772701787564814800,5.33981494140625,8.003025291785598,-0.5565480602856725,-7.58315269702971
1772701787574862800,5.34986279296875,7.32800012435317,-0.6060870941542089,-7.2344228459894655
1772701787584912000,5.359911865234375,6.703591629958153,-0.5666945565730332,-6.912268867185712
1772701787594961000,5.3699609375,5.950622222101688,-0.4399311940528452,-6.774274939468502
1772701787605009000,5.3800087890625,5.28960570627749,-0.05699409911483526,-6.933834217783808
1772701787615058000,5.390057861328125,4.631470883369445,0.30099063313528895,-7.114454404306412
1772701787625106700,5.400106689453125,3.94672511691153,0.5871604580292478,-7.302507955700158
1772701787635155000,5.410155029296875,4.359744777032732,0.7366635852217673,-7.241223758175969
1772701787645203700,5.42020361328125,5.494733726590871,0.5351528420900926,-6.827697317576408
1772701787655253000,5.4302529296875,6.099020639455318,0.15521675559896975,-6.19707886262536
1772701787665300700,5.44030078125,6.065779464110732,-0.15360274453107267,-5.346664395061135
1772701787675350000,5.45035009765625,5.659765298837423,-0.4424378431115299,-4.673644722232222
1772701787685398800,5.460398681640625,4.667359358352423,-0.7955572343476116,-3.802443487226963
1772701787695447000,5.470447021484375,2.7659043905049563,-0.9517940902419387,-0.19135960720181464
1772701787705495800,5.480495849609375,0.03439560607671738,-0.48006483232490715,6.503621430799365
1772701787715544800,5.490544921875,-3.179346659952402,0.18893585065361113,10.368567259168625
1772701787725592800,5.5005927734375,-5.802844566994905,-0.028275771489553153,9.598434535065293
1772701787735641900,5.510641845703125,-8.47794348193705,0.007224471360817551,8.650244168403745
1772701787745691000,5.52069091796875,-12.54374856725931,-0.1500675561422482,9.343058090505004
1772701787755739000,5.53073876953125,-17.30692158472538,-0.48967144958190617,10.713128884613514
1772701787765788000,5.540787841796875,-21.15869404326677,0.23953210195749997,13.754255991399287
1772701787775837000,5.5508369140625,-23.75484334013462,1.316177875879407,17.026781285786626
1772701787785885000,5.560885009765625,-25.667651476645467,1.3245619656041263,17.97308247770071
1772701787795934000,5.570933837890625,-24.68402739303112,0.8533102620709687,16.059217525613306
1772701787805982700,5.580982666015625,-15.606063423502444,-0.11168898137658834,12.537194907832145
1772701787816031000,5.591031005859375,-9.874253463673591,-0.3414747653454542,9.040642831394075
1772701787826079700,5.601079833984375,-7.680330630233883,0.1584514632038772,4.730610472035408
1772701787836129000,5.61112890625,-5.354307018768787,0.5479862759064883,1.032400097221136
1772701787846176800,5.6211767578125,-2.8394869285881517,0.2643534586768597,-1.6429215205609797
1772701787856226000,5.63122607421875,-0.695244364118576,0.06737425802759826,-3.651970601686835
1772701787866274800,5.64127490234375,1.0287918435961008,0.37886619223728774,-5.1049786222010844
1772701787876323000,5.651322998046875,2.308771447890997,1.0187733576025813,-5.898500989720225
1772701787886371800,5.661371826171875,3.182858467465639,1.4558596105530857,-5.945039453533291
1772701787896420900,5.6714208984375,3.4341485194951296,1.427009363643825,-5.379918429887295
1772701787906470000,5.681469970703125,3.850201848223805,1.4457751466512678,-5.0863826428025956
1772701787916518000,5.691517822265625,4.5650119135558604,1.4083752441920339,-5.129935368803143
1772701787926567000,5.70156689453125,5.214636097750067,1.3403317816659808,-5.278346645638346
1772701787936616000,5.711615966796875,5.701826324975491,1.2210619167063383,-5.3345478408098215
1772701787946664000,5.721663818359375,6.192946877387166,1.031539534869045,-4.969278942900896
1772701787956713000,5.731712890625,6.522707824063301,0.7328926883809268,-4.371673699757457
1772701787966761700,5.74176171875,6.4659478259652845,0.24413075485937297,-3.8946033000081774
1772701787976810000,5.75181005859375,6.131801211550831,-0.3349249053105712,-3.525930146613717
1772701787986858800,5.761858642578125,5.704813231831789,-0.5297699434753507,-3.402371571484208
1772701787996908000,5.771907958984375,5.321847349190712,-0.4677176841881126,-3.565570667606592
1772701788006955800,5.781955810546875,5.27548541098833,-0.2354763968259096,-3.856401871907711
1772701788017005000,5.792005126953125,5.412071809995174,0.046886546598374844,-4.07915965693593
1772701788027053800,5.8020537109375,5.487068306529522,0.16162987404428422,-4.152795971032977
1772701788037102000,5.81210205078125,5.543258395785093,0.08927337062470614,-4.169135111415386
1772701788047150800,5.82215087890625,5.651981220832467,-0.13695092147029936,-4.225892186903954
1772701788057199900,5.832199951171875,5.724690483212471,-0.42883638406470415,-4.345827895361185
1772701788067247900,5.842247802734375,5.549759448242187,-0.7721127920046448,-4.425808025527
1772701788077297000,5.852296875,5.346867224156856,-1.1338668136604129,-4.265914400690794
1772701788087346000,5.862345947265625,5.252227869519591,-1.396238670065999,-3.893731777870655
1772701788097395000,5.87239501953125,4.955681794703007,-1.5489308390907943,-3.2801708407044408
1772701788107443000,5.88244287109375,3.9428807164430615,-1.6160707769058644,-2.2241268330454824
1772701788117492000,5.892491943359375,2.2864906424999236,-1.5740760940022767,-0.85327745577991
1772701788127540700,5.902540771484375,0.19166589667201042,-1.0996228910140693,0.42589433926343917
1772701788137589000,5.912589111328125,-2.9135855994999407,-0.1516276085332036,1.4511621003866195
1772701788147637800,5.9226376953125,-5.464893299600481,1.0320318484306334,2.785233360353112
1772701788157687000,5.93268701171875,-6.548099454951286,1.994451377583295,3.854896728041768
1772701788167734800,5.94273486328125,-7.123339137029648,2.8138059593647715,3.693538291350007
1772701788177784000,5.9527841796875,-7.424348620995879,3.171330819018185,1.4911112489372491
1772701788187832800,5.962832763671875,-6.978249113571644,1.6103860092677176,-0.1657195545107126
1772701788197881000,5.972881103515625,-6.975283249503374,-0.7896217068187892,0.24576632017195224
1772701788207929900,5.982929931640625,-10.353257461833953,-1.1628270968154073,1.4955115297228097
1772701788217979000,5.992978759765625,-15.802617092216014,0.8658882232889532,2.364637712019682
1772701788228027000,6.00302685546875,-18.520055850237608,3.015705665281415,4.012221379172802
1772701788238076000,6.013075927734375,-18.921392086827755,3.6699452343165873,7.223268414768576
1772701788248125000,6.023125,-19.583095415872336,2.4722972917497157,9.164597127842903
1772701788258173000,6.0331728515625,-18.14462445475459,1.192133416929096,9.548674186596275
1772701788268222000,6.043221923828125,-15.394246719205379,1.0073210394136607,9.536237314349412
1772701788278271000,6.05327099609375,-13.02602004278302,1.7264555438160896,9.51581996474266
1772701788288319000,6.063319091796875,-11.42515837931633,2.2527290965430438,9.894654446667433
1772701788298368000,6.073367919921875,-10.945614282929897,2.4054301795266566,10.786556524395943
1772701788308416800,6.083416748046875,-11.70477494664192,2.357378826932609,10.967674139046668
1772701788318465000,6.093465087890625,-13.085429678606987,2.426837563084066,10.07951884663105
1772701788328513800,6.103513671875,-13.700760548055172,2.7120950589060784,8.247953992089629
1772701788338563000,6.11356298828125,-12.019130818915366,2.6485183665305376,5.651456904697418
1772701788348611800,6.12361181640625,-8.035252906173467,2.6172832703113555,3.151423172499239
1772701788358660000,6.13366015625,-3.5916572950214145,2.681447991707921,1.3796785804092884
1772701788368708900,6.143708984375,-0.4921580787658691,2.052404384858161,0.4738306871756911
1772701788378758000,6.1537578125,1.9259101946681736,0.851060071991384,0.1602519367545843
1772701788388806000,6.163805908203125,4.261998104029893,-0.1166283374749124,-0.15223288094997406
1772701788398855000,6.17385498046875,6.4949716758757825,-0.6978237130872905,-0.5011746211752295
1772701788408904000,6.183904052734375,8.145515946400165,-1.3499942207634448,-0.8578200676456094
1772701788418952000,6.193951904296875,9.414816920292377,-1.9554729737609624,-1.3108116726711392
1772701788429001000,6.2040009765625,10.240307959002255,-2.40934063096866,-2.02049168163836
1772701788439050000,6.214050048828125,10.807987434959411,-2.7076819186389445,-2.806128848865628
1772701788449098000,6.224097900390625,11.282098984903097,-2.961217703768611,-3.5198914509713646
1772701788459147000,6.23414697265625,11.68756428412199,-2.9622347718566653,-4.304406336170435
1772701788469195800,6.24419580078125,12.030117492353915,-2.87681829585582,-5.0641258028089995
1772701788479244000,6.254244140625,12.19870763386488,-3.028500849446654,-5.751715268260241
1772701788489292800,6.264292724609375,12.48932724124193,-3.1011423072874544,-6.451543453037738
1772701788499342000,6.274342041015625,13.000686864084004,-2.9113220384821292,-7.568698639741539
1772701788509389800,6.284389892578125,14.040349061262607,-2.441361762998998,-9.121956255990266
1772701788519439000,6.294439208984375,15.211200182318686,-1.9044322300925849,-10.854676705420017
1772701788529488000,6.30448779296875,15.386349828475712,-1.3008987659439444,-12.225541864776611
1772701788539536000,6.314535888671875,15.025656567919253,-0.5434668257206678,-13.323132519310713
1772701788549585000,6.3245849609375,12.696747171884775,-0.15949527316838502,-12.866521554744242
1772701788559634000,6.334634033203125,9.499306052315234,0.24530352496579289,-10.561228012096882
1772701788569682000,6.344681884765625,7.916981916058063,0.33488829962722955,-8.615331260454655
1772701788579731000,6.35473095703125,7.868838939657807,-0.09722432962916791,-7.638618563663959
1772701788589780000,6.364780029296875,7.550044208154082,-0.5398918898433447,-7.225511225259304
1772701788599827700,6.37482763671875,6.7804913297653195,-0.6008860183797776,-6.706341805449128
1772701788609877000,6.384876953125,6.266371594560146,-0.5666757788073271,-6.337790817129612
1772701788619926000,6.394926025390625,5.935413547053932,-0.5191357367362827,-6.186907597222924
1772701788629974800,6.404974853515625,5.753280033358931,-0.4392249454796314,-6.145496559426188
1772701788640023000,6.41502294921875,5.522443571293354,-0.25512721903957425,-6.092739367228746
1772701788650071800,6.42507177734375,5.378014057570695,-0.0650792058929801,-6.079044603875279
1772701788660121000,6.43512109375,5.213049705341458,0.03594546586722135,-6.0769736428201195
1772701788670168800,6.4451689453125,4.919846511211991,0.09944901994131505,-5.861648638141155
1772701788680217900,6.4552177734375,4.475775879266858,0.06876987710446118,-5.405591800326109
1772701788690267000,6.465266845703125,3.851504162994027,-0.10739815231487154,-4.775538578042387
1772701788700315000,6.47531494140625,2.985814969408512,-0.19529322032369673,-3.69127619163692
1772701788710364000,6.485364013671875,1.9898925452351568,0.03574197918437421,-0.784617176529765
1772701788720413000,6.495412841796875,1.9699948355883359,0.22935170340053737,3.7462457991868257
1772701788730461000,6.5054609375,2.9993484047204255,-0.05913228018730878,5.2817222595512865
1772701788740510000,6.515510009765625,2.144896644464135,-0.799401196424663,5.2640661913514135
1772701788750559000,6.52555908203125,-4.6952281930089,-1.7047379252657293,7.471730549895763
1772701788760606700,6.535606689453125,-15.71047539961338,-2.20287493231073,11.25318385606408
1772701788770655700,6.54565576171875,-30.949613390171525,-0.34204905810207126,17.48665037536621
1772701788780705000,6.555705078125,-35.745896065557,1.9306464294098316,23.68753915166855
1772701788790752800,6.565752685546875,-28.068128563809392,3.937991775357723,18.747966780245303
1772701788800802000,6.575802001953125,-19.681134934341905,3.5364287442743776,14.254678040641545
1772701788810850800,6.585850830078125,-14.663390943479538,0.7674756337232888,11.457692867696284
1772701788820898800,6.59589892578125,-13.076313475215434,-1.348868577734381,8.500055360502005
1772701788830947800,6.60594775390625,-13.322132986879348,-1.2991167048327623,5.144874579259753
1772701788840996900,6.615996826171875,-12.374922278904915,0.6203511818282306,2.2039368624538183
1772701788851046000,6.6260458984375,-9.037994362711906,2.289943559432775,0.8401800737977028
1772701788861094000,6.636093994140625,-6.288528481310606,2.546023622217774,0.4928951608687639
1772701788871143000,6.646142822265625,-4.803386369910836,1.95677324270457,1.0387708012968302
1772701788881192000,6.65619189453125,-3.240062117677927,1.317229723019898,1.41943717482388
1772701788891240000,6.666239990234375,-1.561509896287322,0.699264267284423,1.112319437110424
1772701788901289000,6.6762890625,-0.3194675161987543,0.10816533729508518,0.6036731648802757
1772701788911337700,6.686337646484375,0.8777823669612407,-0.22620821774303912,0.036738369810581206
1772701788921385700,6.6963857421875,2.24542973331511,-0.16341303113400935,-0.3133762135863304
1772701788931434800,6.706434814453125,3.5723709952712057,0.28057094544097777,-0.5923024605602025
1772701788941484000,6.716484130859375,4.322902362325787,0.9881262173391878,-0.7026525945484637
1772701788951531800,6.72653173828125,4.584506303098798,1.4321626547537742,-0.7955226014256477
1772701788961581000,6.7365810546875,4.861580200204253,1.4526730894714592,-0.9358552012234925
1772701788971629800,6.7466298828125,5.338313915345072,1.2994975208438933,-1.4931184971064329
1772701788981677800,6.756677734375,5.812270566987991,0.8601217687167226,-2.41840963421762
1772701788991726800,6.766726806640625,5.934443825238943,0.38655835417509077,-3.4762580609500406
1772701789001775900,6.77677587890625,5.971179272440075,-0.0018419746048748491,-4.395916745132207
1772701789011825000,6.786824951171875,6.003096505704522,-0.2652380594916642,-5.151664385530352
1772701789021873000,6.796872802734375,6.011479134124517,-0.44998497055545444,-5.8321858122915025
1772701789031922000,6.806921875,5.9297308252424,-0.5797403544984757,-6.528881544262171
1772701789041971000,6.816970947265625,5.762033248656988,-0.7859929218623787,-7.341995916479825
1772701789052019000,6.82701904296875,5.730343978929519,-1.1228759755034,-7.673926608410477
1772701789062068000,6.83706787109375,5.869149807551503,-1.3913719408124685,-7.22320645544827
1772701789072116700,6.84711669921875,5.830975267457962,-1.391809163185954,-5.909819671592116
1772701789082164700,6.857164794921875,5.645642080938816,-1.0508680663257837,-4.730626254126429
1772701789092213800,6.8672138671875,5.380885813614726,-0.6851417069729417,-4.347185155189037
1772701789102263000,6.877262939453125,4.983862764048576,-0.557598665317148,-4.311922703149914
1772701789112310800,6.887310791015625,4.692312597823142,-0.5441868836235255,-4.242022068449854
1772701789122360000,6.897360107421875,4.198694383376837,-0.5086610314078629,-3.9963340742111204
1772701789132408800,6.907408935546875,3.4498177977919577,-0.3610880320277065,-3.4845383980393407
1772701789142456800,6.917456787109375,2.682759074306488,-0.1537602366477251,-2.7507863163501023
1772701789152505900,6.927505859375,2.0377268940776587,-0.01951046389490366,-1.9235890582442283
1772701789162555000,6.937554931640625,1.4528841018736363,0.17827026239559055,-1.1398831513404846
1772701789172603000,6.947602783203125,1.010085389560461,0.2894279133744538,-0.5738479354590177
1772701789182652000,6.95765185546875,0.7586281642705202,0.13427826819494365,0.07263093644678592
1772701789192701000,6.967700927734375,0.18383622595965862,-0.09467968664765357,0.9502911383330821
1772701789202748700,6.977748779296875,-0.6248509774655103,-0.03724836515933275,1.858383303362131
1772701789212797700,6.987797607421875,-1.4988152474433183,0.5024914028622209,2.497008539158106
1772701789222846700,6.9978466796875,-3.1064684707462784,1.166610560876876,3.127435855451226
1772701789232895500,7.0078955078125,-5.2263142605841155,1.6136632773727178,3.473042021512985
1772701789242943500,7.017943603515625,-7.442046774771809,2.0751589452408252,2.9134540820747614
1772701789252992500,7.027992431640625,-8.813642586490511,2.786775329098105,1.8317746978998184
1772701789263041800,7.038041748046875,-9.21821882791519,2.9839988598972558,1.6627759755879639
1772701789273089500,7.048089599609375,-9.348542074874043,2.0802258732415733,2.485898531600833
1772701789283138600,7.058138671875,-9.960002824890614,1.4351057224683463,3.5644004547834394
1772701789293187600,7.0681875,-10.574700072610378,1.5405045176595449,4.986572607529163
1772701789303235600,7.078235595703125,-11.634174054718017,2.2241722796224055,6.785033649370074
1772701789313284600,7.08828466796875,-12.840631911206245,3.096296036300063,8.091098127514124
1772701789323333600,7.098333740234375,-13.463867854690552,3.0493992605686184,8.340334754145145
1772701789333381600,7.108381591796875,-13.51681618554592,2.5418980667203663,7.4980205909281965
1772701789343430400,7.118430419921875,-12.64833823802471,2.45496387963295,6.826660960265993
1772701789353479700,7.128479736328125,-11.545144356656074,2.2618678040273488,6.789660724648833
1772701789363527400,7.13852734375,-10.674743332117796,1.7619925750128924,6.926658627066016
1772701789373576700,7.14857666015625,-9.782358439308405,1.4597715232998132,6.821362853857875
1772701789383625700,7.158625732421875,-9.031303925162554,1.2229423966906965,6.662471099540591
1772701789393674500,7.168674560546875,-8.183719712588191,1.1164854707486926,6.276437061500549
1772701789403722500,7.178722412109375,-6.992502095329761,1.1726556862600146,5.62950343156457
1772701789413771500,7.188771484375,-5.562247758415341,1.1645767169617116,4.644063822960853
1772701789423820800,7.19882080078125,-4.110974014347791,0.8509197867378592,3.366534826688468
1772701789433868500,7.20886865234375,-2.718066534531116,0.42033831257149573,1.8760662595689295
1772701789443917600,7.21891748046875,-1.565581091248989,0.03397752679511905,0.6572238455429673
1772701789453966600,7.228966552734375,-0.20491876147687435,-0.2827291463881731,0.017896306696534157
1772701789464014600,7.2390146484375,2.3806647177129983,0.01033595444485545,-0.34339112036079167
1772701789474063600,7.249063720703125,5.2154900842308995,0.5280542255986481,-0.4013984881713986
1772701789484112600,7.259112548828125,7.884955377200245,0.696256682966277,-0.1567772463813424
1772701789494160600,7.26916064453125,9.863670110338926,0.2388255611233413,0.5415186142623424
1772701789504209400,7.27920947265625,11.347152764093876,-0.3318099881604314,-0.3471443354144692
1772701789514258700,7.2892587890625,13.955455440092086,0.06224902396835386,-2.925774634465575
1772701789524306400,7.299306396484375,15.827313142055273,0.25583690167888995,-5.0528416077286
1772701789534355700,7.309355712890625,16.42143171212673,0.048073418295383454,-5.66366932053864
1772701789544404700,7.31940478515625,15.923939286595582,-0.8347926816709339,-5.1710208279073235
1772701789554453500,7.32945361328125,16.2922067817986,-1.2418705306529998,-5.925857198679447
1772701789564501500,7.33950146484375,16.198020431625842,-0.9801713858772069,-6.102402098587155
1772701789574550500,7.349550537109375,15.392794766831397,-0.7742335104856639,-5.791466848412155
1772701789584599800,7.359599853515625,14.221742570245265,-0.8529846103131771,-5.925037114468217
1772701789594647600,7.3696474609375,13.246362583363055,-0.8854860732063651,-6.22993892969787
1772701789604696600,7.379696533203125,12.6362386349082,-0.7168528232060373,-5.992392740860581
1772701789614745600,7.38974560546875,11.824004552656412,-0.6715856945030391,-5.670854848128557
1772701789624793600,7.399793701171875,10.470185220646858,-0.6696757692284881,-5.370996287763118
1772701789634842600,7.409842529296875,9.280948548072576,-0.6300779183335602,-5.038115747761726
1772701789644891600,7.4198916015625,7.950690708914399,-0.5330087062008678,-4.84360732114017
1772701789654939600,7.429939697265625,6.754051066607237,-0.3841422329440713,-4.917411393019557
1772701789664988400,7.439988525390625,6.082340722811222,-0.40872013629637655,-5.073854000619053
1772701789675037700,7.45003759765625,5.714933643829823,-0.575251299450919,-4.99871955691874
1772701789685085400,7.46008544921875,5.479764120995998,-0.8509189830202609,-4.794543138241767
1772701789695134700,7.470134765625,5.231423566421866,-1.0767925619814545,-4.668537169960141
1772701789705183700,7.480183837890625,4.903181207615137,-1.0804955081526189,-4.401318896436691
1772701789715232500,7.490232421875,4.247960226327181,-0.8409272389031947,-3.8825416908144947
1772701789725280500,7.500280517578125,3.1502135044485327,-0.354375821037963,-3.4010388615757225
1772701789735329500,7.51032958984375,1.9831530078470705,0.03494206097833812,-3.2335762627899647
1772701789745378800,7.52037890625,1.3260931206941604,-0.09875460793636738,-2.8064503359049557
1772701789755426600,7.530426513671875,0.8231114500969647,-0.7524864466451108,-2.1009750851511955
1772701789765475600,7.5404755859375,-0.06293079568743705,-1.5313351227760315,-1.0252075553685427
1772701789775524600,7.550524658203125,-1.2072428693860768,-2.483701898339391,0.899781432801485
1772701789785572600,7.560572509765625,-3.348337198957801,-3.330919907949865,4.154331510037183
1772701789795621600,7.57062158203125,-6.7661307959795,-2.976892242762446,7.797107582399248
1772701789805670700,7.580670654296875,-11.029660347360371,-0.9043255059719085,10.93113450667858
1772701789815718700,7.59071875,-16.937933958554268,3.6558190938085318,14.698850379395484
1772701789825767400,7.600767333984375,-20.428280166089532,7.723251488071679,16.85291641874313
1772701789835816700,7.610816650390625,-18.35423283535242,6.955081003952026,12.285773338377474
1772701789845865700,7.62086572265625,-13.847751436698436,3.5562796921700235,10.083140544259548
1772701789855913700,7.630913818359375,-13.203157063364982,0.5155171809129416,9.362683412951231
1772701789865962800,7.640962646484375,-14.008985954749583,0.904012056108564,7.164134673276544
1772701789876011500,7.651011474609375,-13.974502670389413,3.0677877346962688,5.797060138374567
1772701789886059500,7.6610595703125,-12.990796753710507,3.5836961068838833,5.45365002105236
1772701789896108500,7.671108642578125,-10.45048449487686,3.100307610028982,5.0446664845794436
1772701789906157800,7.68115771484375,-7.509996275404095,2.670246214213967,4.852543491789699
1772701789916205600,7.69120556640625,-4.892629418462515,2.230152230814844,4.600515188613533
1772701789926254800,7.7012548828125,-2.1483996841490267,1.4753180519998073,3.9290111810445785
1772701789936303600,7.7113037109375,0.6176520058721303,0.9201219177797436,3.3636341368108984
1772701789946351600,7.7213515625,2.9662463455855845,0.7496604294389486,2.78743759239912
1772701789956400600,7.731400634765625,4.420868231037259,0.8739838514611125,1.7797113331854342
1772701789966449700,7.74144970703125,4.45706591809988,1.1503558839075267,0.7071902379781008
1772701789976498700,7.751498779296875,3.9773593246281145,0.7513562735714018,-0.2478951488941908
1772701789986546400,7.76154638671875,3.176934338113665,0.3172472098007798,-0.9397276587426662
1772701789996595700,7.771595703125,2.5848060650765894,0.30897286406084895,-1.864580988958478
1772701790006644700,7.781644775390625,2.1851000600367785,0.20500176358520983,-2.3981892684876915
1772701790016692700,7.791692626953125,2.4591215838342904,-0.2819352195315063,-2.520158528599143
1772701790026741800,7.80174169921875,2.779259546640515,-0.6316767318323254,-2.9358260728806256
1772701790036790500,7.81179052734375,2.8084499852895735,-0.7381111536815762,-3.1985651551634073
1772701790046838500,7.821838623046875,2.954471736639738,-0.7734668369621038,-3.499377655252814
1772701790056887600,7.831887451171875,3.2212621401399373,-0.8171148400306701,-3.7861861799091097
1772701790066936800,7.841936767578125,3.2802292928934094,-0.8245131335884333,-3.9689486391574142
1772701790076984600,7.851984619140625,3.130030548119545,-0.7812585137516259,-4.000921402001381
1772701790087033900,7.862033935546875,2.956944848755002,-0.8380453998565673,-3.778242527428269
1772701790097082600,7.87208251953125,2.661980490171909,-1.158938857205212,-3.420092521613836
1772701790107130600,7.882130615234375,2.502323012179136,-1.4532976511105895,-2.9823721354782577
1772701790117179600,7.8921796875,2.3841204111248255,-1.388469205108285,-2.3948551556289193
1772701790127228700,7.902228759765625,2.11892633690536,-1.002728012534976,-1.5359581064015626
1772701790137277700,7.912277587890625,1.8467711915016174,-0.5244210567280649,-0.7373796245366334
1772701790147325400,7.922325439453125,1.405073133906722,0.0696253248900175,0.12155600313544272
1772701790157374700,7.932374755859375,0.5792664533764124,0.7135884145826101,0.7229705754339695
1772701790167423700,7.942423828125,-0.3886854293316602,0.9776499776408075,0.8549187932461499
1772701790177471700,7.9524716796875,-0.889324336194992,0.8825403751432895,0.7172212181270122
1772701790187520800,7.962520751953125,-0.7087579256862402,0.7628890365853905,0.6383651235550641
1772701790197569500,7.972569580078125,-0.3793845170229673,0.6845987592026591,0.570509146425128
1772701790207617500,7.982617431640625,-0.37752749097943306,0.21423253326714037,0.5353285274505615
1772701790217666000,7.992666015625,-0.38444998371899125,-0.45220513082295655,0.8114543300509452
1772701790227715000,8.002715087890625,-0.593666734650731,-0.8031260621666908,1.0045511363089084
1772701790237763000,8.01276318359375,-1.0494365722179413,-0.9269014949172735,1.14996264680624
1772701790247812000,8.02281201171875,-1.4309353049159048,-1.1206669942170382,1.0460434226483106
1772701790257861000,8.032861083984375,-1.8335113124340772,-1.1726441419526934,0.6370949574887752
1772701790267910100,8.04291015625,-2.315474160400033,-0.9208025935202836,0.12933131331205366
1772701790277958100,8.052958251953125,-2.63368670810163,-0.7288800917387008,-0.7129366726756096
1772701790288007000,8.0630068359375,-2.400637246161699,-0.8075015007719397,-1.3175731296300888
1772701790298056200,8.07305615234375,-1.69478673235476,-0.8951254236891866,-1.361346220383048
1772701790308104000,8.08310400390625,-0.9822621476113795,-0.7944526341065764,-0.8100994083106517
1772701790318153200,8.0931533203125,-0.4430167389780283,-0.7153525016456842,-0.3817962543398142
1772701790328202200,8.1032021484375,-0.058715223819017406,-0.7668759142644703,-0.33266718951165675
1772701790338250200,8.113250244140625,0.20338556056022644,-0.9121833798654377,-0.41308512657284735
1772701790348299000,8.123299072265626,0.3862999954998493,-0.9934406903602182,-0.33013153355419633
1772701790358348000,8.13334814453125,0.4980892223805189,-0.6829167974650859,-0.2264092932730913
1772701790368396000,8.14339599609375,0.6563245586156845,-0.23058906317576763,-0.18840777165889738
1772701790378445000,8.153445068359375,0.8445534665763378,-0.012533172228187322,-0.1993219643831253
1772701790388494000,8.163494140625,0.983721698769927,-0.007887976770848036,-0.3925122941434383
1772701790398543000,8.173543212890625,0.9056868574529886,-0.0020037410378456115,-0.40926469150185585
1772701790408591000,8.183591064453125,0.8143617419302464,-0.04724588143005967,-0.47811494036614893
1772701790418640100,8.19364013671875,0.6729951229095459,-0.03654562371745705,-0.42177287541925906
1772701790428689200,8.203689208984375,0.5692144304394722,-0.08326046701073646,-0.34396833572685714
1772701790438737200,8.213737060546874,0.5247071801930666,-0.03102086894661188,-0.19111527705192566
1772701790448786000,8.223785888671875,0.5594786338448524,0.06684504652172327,0.043110242930054665
1772701790458835200,8.233835205078124,0.572390722388029,0.1690402233660221,0.25252865391373636
1772701790468883000,8.243883056640625,0.48540392833054063,0.20193974566608666,0.3050584670960903
1772701790478932200,8.25393212890625,0.1848386810004711,0.23642303002625703,0.4225163872629404
1772701790488981200,8.263981201171875,-0.011066168415546416,0.1702709342047572,0.40788755792975423
1772701790499029200,8.274029296875,-0.03710077338218689,0.08217135659977794,0.2534703186780214
1772701790509078000,8.284078125,-0.01319791974723339,-0.02890563035830855,0.15466975270807742
1772701790519127000,8.294126953125,-0.011834814700484276,-0.1938509856261313,0.1080330892175436
1772701790529176300,8.30417626953125,0.07169628594517707,-0.28001111960113045,0.10029518844187259
1772701790539224000,8.31422412109375,0.21368542077839373,-0.1734330514974892,0.07824059302210808
1772701790549273000,8.324273193359375,0.26212065812349317,-0.07356456403508782,0.028318331989645958
1772701790559322000,8.334322021484375,0.24150106394290924,-0.08026815332695841,0.014512509477138518
1772701790569370000,8.3443701171875,0.12926350877285003,0.009086392775177955,0.11065291632711886
1772701790579419100,8.354419189453125,0.09230185160040855,0.12160437232181429,0.1786076776564121
1772701790589468200,8.36446826171875,0.035971477091312404,0.22745047288909553,0.20858371372520923
1772701790599516200,8.37451611328125,0.015141455030441283,0.3117025812856853,0.2998123831361532
1772701790609565000,8.38456494140625,0.07147884380221367,0.42291795380115504,0.3721995739549398
1772701790619614200,8.3946142578125,-0.020194646766781805,0.4881979429632425,0.416744818124175
1772701790629663200,8.404663330078124,0.0536702153891325,0.3405107426188886,0.26495325120091434
1772701790639711200,8.414711181640625,0.5485340459823608,0.009617284781485795,-0.0814724145501852
1772701790649760300,8.42476025390625,0.22208616937696932,-0.0933938846208155,-0.05973638356029987
1772701790659809000,8.43480908203125,-0.10693243449926376,-0.31060674887299533,-0.06759644941091537
1772701790669857000,8.44485693359375,-0.13149462882578372,-0.52874315771088,0.009534136542677879
1772701790679906000,8.454906005859375,-0.0018599486529827117,-0.6255237621605396,-0.03288870864510536
1772701790689955300,8.464955322265626,0.07058978600800037,-0.4622366954937577,-0.04483750511407852
1772701790700003000,8.475003173828124,-0.255904852348566,-0.1662844949170947,0.018809914410114287
1772701790710052000,8.485052001953125,-0.2703834595561027,0.05779416345134377,-0.02443827568590641
1772701790720101000,8.49510107421875,-0.04057107984125614,0.20565862005874513,0.09140519502162933
1772701790730149000,8.505149169921875,0.3446785298228264,0.3205208246439695,0.09496727141737937
