time,seconds_elapsed,z,y,x
1772701782285498600,0.06049853515625,0.055746618658304214,-0.010630007833242416,-0.06471854448318481
1772701782295547600,0.070547607421875,0.05582704767584801,-0.009428389370441437,-0.05515806004405022
1772701782305595600,0.080595703125,0.062016233801841736,0.015479623340070248,-0.041125331073999405
1772701782315644700,0.090644775390625,0.08155451714992523,0.04032398760318756,-0.0327472947537899
1772701782325693700,0.100693603515625,0.10367552936077118,0.05904707312583923,-0.033730264753103256
1772701782335741700,0.11074169921875,0.12412381172180176,0.07756003737449646,-0.03894074261188507
1772701782345790700,0.120790771484375,0.1321343332529068,0.06059623509645462,-0.05814346298575401
1772701782355839700,0.13083984375,0.12777793407440186,0.0405716598033905,-0.07066458463668823
1772701782365887700,0.1408876953125,0.1129918023943901,0.04294800013303757,-0.07427769154310226
1772701782375936800,0.150936767578125,0.08977808803319931,0.0492788664996624,-0.06964166462421417
1772701782385985500,0.160985595703125,0.07630942016839981,0.03374837711453438,-0.0530051626265049
1772701782396033800,0.17103369140625,0.0740225613117218,0.001356614287942648,-0.0353848896920681
1772701782406082600,0.18108251953125,0.07655256241559982,-0.03141278401017189,-0.02172100730240345
1772701782416131800,0.1911318359375,0.07352534681558609,-0.05703532323241234,-0.00606348505243659
1772701782426179600,0.2011796875,0.07515040785074234,-0.06353956460952759,0.010405236855149269
1772701782436228900,0.211228759765625,0.07623352110385895,-0.05817302688956261,0.015359781682491302
1772701782446277600,0.221277587890625,0.0787973403930664,-0.059901416301727295,0.010239854454994202
1772701782456326000,0.231325927734375,0.07693099975585938,-0.07391177117824554,0.007162039168179035
1772701782466374700,0.241374755859375,0.07054074853658676,-0.06457233428955078,-0.0027987160719931126
1772701782476423000,0.2514228515625,0.06335047632455826,-0.0428989976644516,-0.015595205128192902
1772701782486471700,0.2614716796875,0.05730057507753372,-0.006456567905843258,-0.0305176954716444
1772701782496520700,0.271520751953125,0.04530942440032959,0.02431865595281124,-0.0442766509950161
1772701782506568700,0.281568603515625,0.033795248717069626,0.043117910623550415,-0.05312873050570488
1772701782516617700,0.29161767578125,0.018208565190434456,0.06705173850059509,-0.06233394891023636
1772701782526666800,0.301666748046875,0.007315170951187611,0.08413511514663696,-0.06088012829422951
1772701782536714500,0.311714599609375,-0.00552179804071784,0.09010166674852371,-0.057981278747320175
1772701782546763800,0.321763671875,-0.024407871067523956,0.06983580440282822,-0.04958885908126831
1772701782556812800,0.331812744140625,-0.04599172621965408,0.045824747532606125,-0.04880775138735771
1772701782566860800,0.34186083984375,-0.07888522744178772,0.009938384406268597,-0.058098722249269485
1772701782576909800,0.351909912109375,-0.12983229756355286,-0.05988117679953575,-0.0778585821390152
1772701782586958600,0.36195849609375,-0.1804981380701065,-0.11826299130916595,-0.09813322126865387
1772701782597006600,0.372006591796875,-0.22499077022075653,-0.1410556584596634,-0.11670424789190292
1772701782607055600,0.3820556640625,-0.2542929947376251,-0.12417920678853989,-0.12220527231693268
1772701782617105000,0.39210498046875,-0.27260249853134155,-0.08251005411148071,-0.11730505526065826
1772701782627152600,0.402152587890625,-0.28636252880096436,-0.0989617332816124,-0.1145433560013771
1772701782637201700,0.41220166015625,-0.30153802037239075,-0.12816622853279114,-0.12277092784643173
1772701782647250700,0.422250732421875,-0.32431602478027344,-0.18352055549621582,-0.1357373297214508
1772701782657298700,0.432298583984375,-0.34950900077819824,-0.23348678648471832,-0.11938658356666565
1772701782667347700,0.44234765625,-0.3666757345199585,-0.3030725121498108,-0.08583901077508926
1772701782677395500,0.4523955078125,-0.37069711089134216,-0.37520742416381836,-0.036557476967573166
1772701782687444700,0.46244482421875,-0.38240915536880493,-0.4218558967113495,0.039331693202257156
1772701782697493500,0.472493408203125,-0.4111659824848175,-0.4432013928890228,0.11252867430448532
1772701782707541800,0.482541748046875,-0.43208402395248413,-0.46611711382865906,0.1390758603811264
1772701782717590500,0.492590576171875,-0.4493248164653778,-0.5292936563491821,0.11914823204278946
1772701782727639600,0.5026396484375,-0.45968449115753174,-0.5400893092155457,0.11023516207933426
1772701782737687600,0.5126875,-0.47623124718666077,-0.5338410139083862,0.11141334474086761
1772701782747736600,0.522736572265625,-0.5076626539230347,-0.5581884384155273,0.09896386414766312
1772701782757785600,0.53278564453125,-0.5542954206466675,-0.6387820839881897,0.056114666163921356
1772701782767833600,0.54283349609375,-0.6202725768089294,-0.5224754214286804,0.16306482255458832
1772701782777882600,0.552882568359375,-0.7382631301879883,-0.5267623662948608,0.2147519886493683
1772701782787931600,0.562931640625,-0.8847399353981018,-0.6600415706634521,0.15060842037200928
1772701782797979600,0.572979736328125,-0.9847109913825989,-0.6693903207778931,0.13773123919963837
1772701782808028700,0.583028564453125,-1.031786322593689,-0.5324758887290955,0.15547268092632294
1772701782818077400,0.593077392578125,-1.0224237442016602,-0.3302391767501831,0.17785973846912384
1772701782828125700,0.603125732421875,-0.9753579497337341,-0.27257534861564636,0.19607549905776978
1772701782838174500,0.613174560546875,-0.9478134512901306,-0.5019930601119995,0.16320383548736572
1772701782848223700,0.6232236328125,-0.9507130980491638,-0.9035559296607971,0.07005125284194946
1772701782858271500,0.633271484375,-0.9697421789169312,-1.2617295980453491,-0.06218134984374046
1772701782868320800,0.64332080078125,-0.9985165596008301,-1.3759407997131348,-0.2734706997871399
1772701782878368500,0.653368408203125,-0.9902042746543884,-1.1056725978851318,-0.5699782371520996
1772701782888417800,0.663417724609375,-0.9455148577690125,-0.7142520546913147,-0.7553377151489258
1772701782898466600,0.673466552734375,-0.9171740412712097,-0.6182025074958801,-0.7629378437995911
1772701782908514800,0.683514892578125,-0.8623001575469971,-0.849385142326355,-0.6155886054039001
1772701782918563600,0.6935634765625,-0.7440222501754761,-1.0307413339614868,-0.3431360423564911
1772701782928612600,0.703612548828125,-0.5632748007774353,-1.0198417901992798,-0.008902947418391705
1772701782938660600,0.71366064453125,-0.3144964277744293,-0.79842609167099,0.2532016336917877
1772701782948709600,0.723709716796875,-0.07509847730398178,-0.5217862129211426,0.38042616844177246
1772701782958758700,0.733758544921875,0.10749876499176025,-0.29522180557250977,0.4093289077281952
1772701782968806700,0.743806640625,0.24888412654399872,-0.1773737221956253,0.3508123457431793
1772701782978855700,0.753855712890625,0.3466287851333618,-0.025001490488648415,0.2572224736213684
1772701782988904700,0.76390478515625,0.44206395745277405,0.1628592163324356,0.1797732263803482
1772701782998952700,0.77395263671875,0.5081092715263367,0.29254478216171265,0.1262625902891159
1772701783009001700,0.784001708984375,0.5636223554611206,0.43404650688171387,0.10866682231426239
1772701783019050500,0.794050537109375,0.5618268251419067,0.6248257756233215,0.06404875963926315
1772701783029098800,0.8040986328125,0.567177951335907,0.7516458034515381,-0.030953388661146164
1772701783039147500,0.8141474609375,0.51076740026474,0.7541736364364624,-0.17596358060836792
1772701783049196800,0.82419677734375,0.36934635043144226,0.5680634379386902,-0.4076708257198334
1772701783059244500,0.83424462890625,0.2340010404586792,0.29993051290512085,-0.5913668870925903
1772701783069293800,0.8442939453125,0.08657803386449814,0.13346271216869354,-0.6481723785400391
1772701783079342600,0.854342529296875,-0.08458466082811356,-0.002114816103130579,-0.693983793258667
1772701783089390800,0.864390869140625,-0.15757764875888824,-0.05096438154578209,-0.6758820414543152
1772701783099439600,0.874439697265625,-0.1516193449497223,0.03458727151155472,-0.6428788304328918
1772701783109488600,0.884488525390625,-0.07650409638881683,0.23383086919784546,-0.626126229763031
1772701783119536600,0.89453662109375,0.001252750982530415,0.47852635383605957,-0.6666560769081116
1772701783129585700,0.904585693359375,0.11611755192279816,0.6588367819786072,-0.6767742037773132
1772701783139634700,0.914634765625,0.1768868863582611,0.7843959927558899,-0.6763734221458435
1772701783149682700,0.9246826171875,0.22859668731689453,0.8854634761810303,-0.6394108533859253
1772701783159731700,0.934731689453125,0.30765849351882935,0.9348049759864807,-0.5732515454292297
1772701783169779700,0.94477978515625,0.35199692845344543,1.0034396648406982,-0.48670732975006104
1772701783179828700,0.954828857421875,0.3712731599807739,1.22119140625,-0.38831445574760437
1772701783189877800,0.964877685546875,0.3725173771381378,1.474243402481079,-0.26463592052459717
1772701783199925800,0.97492578125,0.34237945079803467,1.5896821022033691,-0.12713079154491425
1772701783209975000,0.98497509765625,0.3069809675216675,1.5453839302062988,0.010550645180046558
1772701783220024000,0.995024169921875,0.3119288682937622,1.2864471673965454,0.13236470520496368
1772701783230072000,1.005072021484375,0.3438580334186554,0.7977554798126221,0.15093599259853363
1772701783240120800,1.015120849609375,0.34428948163986206,0.3625052273273468,0.11486054211854935
1772701783250170000,1.025170166015625,0.30649733543395996,0.0882214680314064,0.06069929897785187
1772701783260217900,1.0352177734375,0.280637264251709,-0.10475117713212967,-0.02430720441043377
1772701783270267100,1.04526708984375,0.2483658641576767,-0.2142704874277115,-0.09537366032600403
1772701783280316200,1.055316162109375,0.22206342220306396,-0.19335348904132843,-0.12757234275341034
1772701783290364000,1.065364013671875,0.2377486377954483,-0.0027515781112015247,-0.11073317378759384
1772701783300413000,1.075412841796875,0.3142724335193634,0.2892126441001892,-0.051442950963974
1772701783310462000,1.0854619140625,0.36429592967033386,0.5948657393455505,0.037573207169771194
1772701783320510000,1.095510009765625,0.40647774934768677,0.7916712164878845,0.09348654001951218
1772701783330559000,1.10555908203125,0.44291430711746216,0.7649237513542175,0.13457858562469482
1772701783340608000,1.11560791015625,0.4846910536289215,0.5184162855148315,0.18322734534740448
1772701783350656000,1.125656005859375,0.5244507193565369,0.1881142407655716,0.23312726616859436
1772701783360705000,1.135705078125,0.557166576385498,-0.12408546358346939,0.2818188965320587
1772701783370753000,1.1457529296875,0.586601734161377,-0.36303120851516724,0.33885103464126587
1772701783380801800,1.1558017578125,0.5952540636062622,-0.47253984212875366,0.42084628343582153
1772701783390851000,1.16585107421875,0.6095943450927734,-0.3612074553966522,0.5039539933204651
1772701783400898800,1.17589892578125,0.5725255608558655,0.15302176773548126,0.5578475594520569
1772701783410948000,1.185947998046875,0.40893876552581787,1.1105458736419678,0.553132951259613
1772701783420996900,1.195996826171875,0.3355391323566437,2.103205680847168,0.4794992208480835
1772701783431045000,1.206045166015625,0.5586523413658142,2.8491036891937256,0.5468170046806335
1772701783441094000,1.216093994140625,0.8509159088134766,2.7590978145599365,0.7805208563804626
1772701783451143000,1.226142822265625,0.5284696817398071,1.646236777305603,0.8728401064872742
1772701783461191000,1.23619091796875,0.2429806888103485,0.5528227090835571,0.7257335186004639
1772701783471240000,1.246239990234375,0.8157967925071716,-0.17351852357387543,1.4232052564620972
1772701783481289000,1.2562890625,1.0422179698944092,-0.9649910926818848,2.4643826484680176
1772701783491337000,1.2663369140625,0.35060063004493713,-2.02364182472229,2.0390098094940186
1772701783501386000,1.276385986328125,-0.023740483447909355,-1.2564868927001953,1.5708969831466675
1772701783511435000,1.28643505859375,-0.08786354213953018,0.3264164626598358,1.6406382322311401
1772701783521483000,1.29648291015625,-0.388757586479187,0.7323938012123108,1.5295817852020264
1772701783531532000,1.306531982421875,-0.7720770239830017,0.24361692368984222,1.3230406045913696
1772701783541580800,1.316580810546875,-1.1002395153045654,-0.615588366985321,1.1318570375442505
1772701783551629000,1.326629150390625,-0.9880732297897339,-1.251522183418274,0.9801380634307861
1772701783561677800,1.336677734375,-0.8606324791908264,-1.801571249961853,1.0436038970947266
1772701783571727000,1.34672705078125,-0.9488185048103333,-2.236989736557007,1.291702389717102
1772701783581774800,1.35677490234375,-0.8036056756973267,-2.3534536361694336,1.4882508516311646
1772701783591824100,1.36682421875,-0.5667092204093933,-2.040865182876587,1.6078991889953613
1772701783601873000,1.376872802734375,-0.39974525570869446,-1.8288638591766357,1.6179395914077759
1772701783611921200,1.386921142578125,-0.26325640082359314,-2.0375771522521973,1.5084998607635498
1772701783621970000,1.396969970703125,-0.17507754266262054,-2.2867348194122314,1.4084217548370361
1772701783632019000,1.40701904296875,-0.12285907566547394,-2.300980567932129,1.3698430061340332
1772701783642067000,1.41706689453125,-0.07742741703987122,-1.8135367631912231,1.3368898630142212
1772701783652116000,1.427115966796875,-0.012150672264397144,-0.9513072371482849,1.2637336254119873
1772701783662165000,1.4371650390625,0.0946119949221611,-0.051348939538002014,1.0765557289123535
1772701783672213000,1.447212890625,0.15795262157917023,0.3784959018230438,0.7046471238136292
1772701783682262000,1.457261962890625,0.1632445901632309,0.23858514428138733,0.18673072755336761
1772701783692311000,1.46731103515625,0.18370671570301056,0.0391780287027359,-0.2974260747432709
1772701783702359000,1.477359130859375,0.22760173678398132,-0.11841399222612381,-0.772199273109436
1772701783712408000,1.487407958984375,0.21987377107143402,-0.11985929310321808,-1.169555902481079
1772701783722456000,1.4974560546875,0.2501477897167206,0.14505653083324432,-1.4301222562789917
1772701783732505000,1.507505126953125,0.28573641180992126,0.5366418957710266,-1.5240591764450073
1772701783742553900,1.517553955078125,0.29637253284454346,0.9266104102134705,-1.4297233819961548
1772701783752602000,1.52760205078125,0.2815544605255127,1.144005537033081,-1.183528184890747
1772701783762651000,1.53765087890625,0.2375425100326538,1.106408715248108,-0.8749160766601562
1772701783772700200,1.5477001953125,0.21780742704868317,0.8914721012115479,-0.5656527280807495
1772701783782748000,1.557747802734375,0.16057662665843964,0.6296631693840027,-0.3633268177509308
1772701783792797200,1.567797119140625,0.011138138361275196,0.4189107120037079,-0.2892136871814728
1772701783802846000,1.577845947265625,-0.1896120011806488,0.2904568612575531,-0.28796759247779846
1772701783812894200,1.587894287109375,-0.357745885848999,0.34245163202285767,-0.26394641399383545
1772701783822943000,1.59794287109375,-0.4810457229614258,0.6380997896194458,-0.2130318433046341
1772701783832992000,1.607991943359375,-0.5607168674468994,1.0363438129425049,-0.14338591694831848
1772701783843040000,1.6180400390625,-0.5798996090888977,1.2103593349456787,-0.028304075822234154
1772701783853089000,1.628089111328125,-0.5998669266700745,1.1269844770431519,0.02040167711675167
1772701783863138000,1.638137939453125,-0.6439787149429321,0.8910529613494873,0.05962977558374405
1772701783873186000,1.64818603515625,-0.6424950361251831,0.7728637456893921,0.1878894716501236
1772701783883235000,1.658235107421875,-0.6582151651382446,0.6912988424301147,0.3143414258956909
1772701783893284000,1.6682841796875,-0.6969588398933411,0.35924097895622253,0.32714828848838806
1772701783903332000,1.67833203125,-0.7626904249191284,0.01666473038494587,0.274548202753067
1772701783913381000,1.688381103515625,-0.7691752314567566,-0.14562271535396576,0.2074035257101059
1772701783923430000,1.698429931640625,-0.7707371711730957,-0.15347450971603394,0.13500842452049255
1772701783933478100,1.70847802734375,-0.7501363158226013,-0.13038544356822968,0.0773288756608963
1772701783943527000,1.71852685546875,-0.6920791268348694,-0.11458037793636322,0.08147142082452774
1772701783953575000,1.728574951171875,-0.705105721950531,-0.1462072730064392,0.12573981285095215
1772701783963624000,1.7386240234375,-0.8001813888549805,-0.3022408187389374,0.1663900464773178
1772701783973673200,1.748673095703125,-0.9637095928192139,-0.6751944422721863,0.19087247550487518
1772701783983721000,1.758720947265625,-1.1224110126495361,-1.3220645189285278,0.19235186278820038
1772701783993770200,1.768770263671875,-1.2176082134246826,-2.118412971496582,0.21644948422908783
1772701784003819000,1.778819091796875,-1.1480075120925903,-2.72922945022583,0.25323599576950073
1772701784013867000,1.788866943359375,-0.9185847043991089,-2.733474016189575,0.3332615792751312
1772701784023916000,1.798916015625,-0.6069591641426086,-2.00223708152771,0.5310513377189636
1772701784033965000,1.808965087890625,-0.42592546343803406,-0.9842220544815063,0.7108754515647888
1772701784044013000,1.819012939453125,-0.43608516454696655,-0.4414013624191284,0.7801392078399658
1772701784054061800,1.829061767578125,-0.5688855648040771,-0.614700198173523,0.7622283697128296
1772701784064111000,1.839111083984375,-0.7860897779464722,-1.1007928848266602,0.6174770593643188
1772701784074158800,1.849158935546875,-0.9926613569259644,-1.4974536895751953,0.43663644790649414
1772701784084208000,1.8592080078125,-1.0397816896438599,-1.438830852508545,0.3601666986942291
1772701784094257200,1.869257080078125,-0.9260103702545166,-1.2020992040634155,0.3932540714740753
1772701784104305200,1.87930517578125,-0.7189139127731323,-0.9591689109802246,0.5045598149299622
1772701784114354000,1.88935400390625,-0.5039907097816467,-0.7514678835868835,0.6727365851402283
1772701784124403000,1.89940283203125,-0.3243700861930847,-0.5205981731414795,0.8375928997993469
1772701784134451000,1.909450927734375,-0.18217699229717255,-0.335405170917511,0.8900047540664673
1772701784144500000,1.9195,-0.07166113704442978,-0.15347690880298615,0.7928369045257568
1772701784154549200,1.92954931640625,0.04565776512026787,0.01581518165767193,0.5595764517784119
1772701784164597000,1.939596923828125,0.1634507179260254,0.18973451852798462,0.2705835700035095
1772701784174646000,1.94964599609375,0.28843843936920166,0.30615273118019104,-0.021505825221538544
1772701784184695000,1.959695068359375,0.41111457347869873,0.5042207837104797,-0.31341198086738586
1772701784194743000,1.969742919921875,0.5375803709030151,0.7364410161972046,-0.6245278120040894
1772701784204791600,1.97979150390625,0.6481971740722656,0.8752555847167969,-0.9520729184150696
1772701784214840300,1.98984033203125,0.7221810817718506,0.8888412117958069,-1.2913929224014282
1772701784224888600,1.999888671875,0.7533944249153137,0.8719143867492676,-1.552996039390564
1772701784234937300,2.009937255859375,0.6881541609764099,0.8430654406547546,-1.803161859512329
1772701784244986600,2.019986572265625,0.5384411215782166,0.8847673535346985,-2.00136661529541
1772701784255034400,2.030034423828125,0.31994497776031494,1.0351898670196533,-2.104072332382202
1772701784265083600,2.040083740234375,0.146242156624794,1.1850214004516602,-2.1102354526519775
1772701784275132400,2.05013232421875,-0.06235019490122795,1.294408917427063,-2.0166850090026855
1772701784285180700,2.0601806640625,-0.2041773647069931,1.3499995470046997,-1.807093858718872
1772701784295229400,2.0702294921875,-0.2327411025762558,1.3078054189682007,-1.501143455505371
1772701784305277700,2.080277587890625,-0.12143135815858841,1.1622719764709473,-1.0710722208023071
1772701784315326500,2.090326416015625,0.06296484917402267,0.8446162343025208,-0.6118159890174866
1772701784325375500,2.10037548828125,0.2663504481315613,0.3982488512992859,-0.2594587206840515
1772701784335423500,2.110423583984375,0.37250593304634094,0.14502349495887756,0.017123060300946236
1772701784345472500,2.120472412109375,0.48001453280448914,0.06197948008775711,0.30906569957733154
1772701784355521500,2.130521484375,0.5675255060195923,0.07547877728939056,0.5834378600120544
1772701784365569500,2.140569580078125,0.6224619746208191,0.12018260359764099,0.8152572512626648
1772701784375618600,2.15061865234375,0.6423286199569702,0.14179974794387817,1.0091530084609985
1772701784385667600,2.16066748046875,0.661620020866394,0.14901718497276306,1.1879708766937256
1772701784395715600,2.170715576171875,0.6741040945053101,0.15296770632266998,1.3507331609725952
1772701784405764600,2.1807646484375,0.6848837733268738,0.11625736951828003,1.5030410289764404
1772701784415813400,2.1908134765625,0.6952261924743652,0.042935483157634735,1.634743094444275
1772701784425861600,2.200861572265625,0.7054948210716248,-0.09649164974689484,1.748079776763916
1772701784435910400,2.210910400390625,0.749122679233551,-0.31272247433662415,1.865616798400879
1772701784445959700,2.220959716796875,0.8435802459716797,-0.4865496754646301,1.979568600654602
1772701784456007400,2.23100732421875,0.9276764988899231,-0.5793920159339905,2.05798077583313
1772701784466056700,2.241056640625,0.9314485788345337,-0.38435646891593933,1.942338228225708
1772701784476105500,2.25110546875,0.8479534387588501,0.054497864097356796,1.6801211833953857
1772701784486153700,2.26115380859375,0.7291442155838013,0.3904638886451721,1.293286681175232
1772701784496202500,2.271202392578125,0.5352160334587097,0.49989211559295654,0.7609758973121643
1772701784506251500,2.28125146484375,0.25936952233314514,0.6411331295967102,-0.11135395616292953
1772701784516299500,2.291299560546875,0.14048121869564056,0.6913625001907349,-1.255182147026062
1772701784526348500,2.3013486328125,0.3201526999473572,0.29498663544654846,-1.9867324829101562
1772701784536397600,2.3113974609375,0.7562048435211182,-0.6198132038116455,-1.9496139287948608
1772701784546445600,2.321445556640625,1.2434693574905396,-1.178586483001709,-1.3362696170806885
1772701784556494600,2.33149462890625,1.6160372495651245,0.018745191395282745,-0.8076869249343872
1772701784566543600,2.341543701171875,1.6768500804901123,0.4652688801288605,-1.0336103439331055
1772701784576591600,2.351591552734375,1.8167821168899536,0.7806188464164734,-1.2327780723571777
1772701784586640600,2.361640625,1.8286489248275757,0.8362911939620972,-1.2766534090042114
1772701784596689400,2.371689453125,1.5259486436843872,0.10887375473976135,-1.306347131729126
1772701784606737700,2.381737548828125,1.2277865409851074,-0.27121445536613464,-1.0812042951583862
1772701784616786400,2.391786376953125,0.9581105709075928,-0.22022397816181183,-0.7224671244621277
1772701784626835700,2.401835693359375,0.6737065315246582,0.01980086974799633,-0.4188601076602936
1772701784636883500,2.411883544921875,0.3519631028175354,0.31419333815574646,-0.13205736875534058
1772701784646932500,2.421932373046875,0.030497455969452858,0.45923522114753723,0.16733865439891815
1772701784656981500,2.4319814453125,-0.2613530457019806,0.5316428542137146,0.46230027079582214
1772701784667029500,2.442029541015625,-0.45272940397262573,0.6902202367782593,0.7692021727561951
1772701784677078500,2.45207861328125,-0.5578851103782654,0.8756763935089111,0.9893944263458252
1772701784687127600,2.46212744140625,-0.534532904624939,0.8941534161567688,1.160827398300171
1772701784697175600,2.472175537109375,-0.4820542633533478,0.6115206480026245,1.3060210943222046
1772701784707224600,2.482224609375,-0.4445369839668274,0.08727951347827911,1.3307373523712158
1772701784717272600,2.4922724609375,-0.46368056535720825,-0.5026769638061523,1.261665940284729
1772701784727321300,2.5023212890625,-0.49335777759552,-0.8624972105026245,1.1493101119995117
1772701784737370400,2.512370361328125,-0.5368282794952393,-0.8504599928855896,0.9213687777519226
1772701784747418400,2.52241845703125,-0.5588036179542542,-0.44796764850616455,0.6310426592826843
1772701784757467400,2.53246728515625,-0.5294398665428162,0.04754754528403282,0.3967260420322418
1772701784767516700,2.5425166015625,-0.4567009508609772,0.5552520155906677,0.2606547474861145
1772701784777564400,2.552564453125,-0.3865969777107239,1.0211728811264038,0.19834397733211517
1772701784787613400,2.562613525390625,-0.3027835786342621,1.420139193534851,0.13990411162376404
1772701784797662500,2.572662353515625,-0.23219861090183258,1.697798252105713,0.06972155719995499
1772701784807710500,2.58271044921875,-0.17251558601856232,1.8755338191986084,0.023686420172452927
1772701784817759500,2.592759521484375,-0.09136001020669937,1.9108209609985352,0.00959536898881197
1772701784827808500,2.60280859375,0.05661747232079506,1.7617833614349365,0.024704281240701675
1772701784837856500,2.6128564453125,0.23761415481567383,1.4576835632324219,0.08757778257131577
1772701784847905300,2.6229052734375,0.40680477023124695,1.031169056892395,0.2006731778383255
1772701784857954600,2.63295458984375,0.5376791954040527,0.5341861844062805,0.32009756565093994
1772701784868002300,2.643002197265625,0.600655198097229,0.019030682742595673,0.3595230281352997
1772701784878051600,2.653051513671875,0.61029452085495,-0.29381030797958374,0.3145590126514435
1772701784888100600,2.6631005859375,0.6181218028068542,0.12408759444952011,0.3519172966480255
1772701784898148600,2.673148681640625,0.58608478307724,1.0088064670562744,0.33625391125679016
1772701784908197400,2.683197265625,0.5141562819480896,1.6505178213119507,0.17394089698791504
1772701784918246400,2.693246337890625,0.3884454667568207,1.7052438259124756,-0.042387403547763824
1772701784928294400,2.70329443359375,0.3455584645271301,1.4055908918380737,-0.09498456865549088
1772701784938343400,2.713343505859375,0.3316833972930908,1.188238263130188,0.021444838494062424
1772701784948392400,2.723392333984375,0.32001209259033203,0.6248210072517395,0.0977659747004509
1772701784958440400,2.7334404296875,0.30449971556663513,0.14270761609077454,0.1852332353591919
1772701784968489500,2.743489501953125,0.26562821865081787,-0.15323136746883392,0.21591497957706451
1772701784978538500,2.75353857421875,0.22433988749980927,-0.321917325258255,0.2508721649646759
1772701784988586500,2.76358642578125,0.13462784886360168,-0.3720305562019348,0.24675199389457703
1772701784998635500,2.773635498046875,0.0216581579297781,-0.2891761362552643,0.22511699795722961
1772701785008684300,2.783684326171875,-0.07423348724842072,-0.23500585556030273,0.2743287682533264
1772701785018732500,2.793732666015625,-0.11911014467477798,-0.36770451068878174,0.35910651087760925
1772701785028781300,2.80378125,-0.10959520190954208,-0.8216099739074707,0.3610290288925171
1772701785038830600,2.81383056640625,-0.04998486861586571,-1.5760512351989746,0.2954292595386505
1772701785048878300,2.82387841796875,0.04476134479045868,-2.387594223022461,0.13446326553821564
1772701785058927600,2.833927734375,0.18453416228294373,-3.1045877933502197,-0.05222778394818306
1772701785068976400,2.843976318359375,0.2844218611717224,-3.664381742477417,-0.2217278629541397
1772701785079024600,2.854024658203125,0.29437729716300964,-3.9748611450195312,-0.2728211581707001
1772701785089073400,2.864073486328125,0.13346858322620392,-3.5902719497680664,-0.16913868486881256
1772701785099122400,2.874122314453125,-0.23296880722045898,-2.699115514755249,0.01685461401939392
1772701785109170400,2.88417041015625,-0.5755293369293213,-2.0162036418914795,0.13954724371433258
1772701785119219500,2.894219482421875,-0.7148704528808594,-1.778717279434204,0.2325243204832077
1772701785129268500,2.9042685546875,-0.7585247159004211,-1.8911317586898804,0.28641632199287415
1772701785139316500,2.91431640625,-0.7998820543289185,-2.0640921592712402,0.33712583780288696
1772701785149365500,2.924365478515625,-0.8501158952713013,-2.036726713180542,0.41969022154808044
1772701785159414500,2.93441455078125,-0.8893339037895203,-1.7968664169311523,0.4088340997695923
1772701785169462500,2.944462646484375,-0.9343929886817932,-1.515873670578003,0.2704666554927826
1772701785179511600,2.954511474609375,-0.9813210368156433,-1.2868056297302246,0.05904467776417732
1772701785189560300,2.964560302734375,-1.0312124490737915,-1.0756566524505615,-0.15778616070747375
1772701785199608600,2.974608642578125,-1.0426735877990723,-0.7462387681007385,-0.3364640474319458
1772701785209657300,2.9846572265625,-0.969015896320343,-0.361593097448349,-0.38850700855255127
1772701785219706600,2.99470654296875,-0.8564773797988892,0.010349576361477375,-0.2965371310710907
1772701785229754400,3.00475439453125,-0.7280009388923645,0.4445039629936218,-0.08993708342313766
1772701785239803600,3.0148037109375,-0.5684887766838074,0.8599637150764465,0.13570590317249298
1772701785249852700,3.024852783203125,-0.4306139647960663,1.1469489336013794,0.31663253903388977
1772701785259900700,3.034900634765625,-0.29126060009002686,1.3135921955108643,0.44327569007873535
1772701785269949400,3.044949462890625,-0.17082500457763672,1.3948471546173096,0.49730512499809265
1772701785279998500,3.05499853515625,-0.06462772935628891,1.3410084247589111,0.5029305219650269
1772701785290046500,3.06504638671875,-0.030410369858145714,1.1673617362976074,0.4223262071609497
1772701785300095500,3.075095458984375,-0.06495476514101028,0.921794056892395,0.29982373118400574
1772701785310144800,3.085144775390625,-0.10445450246334076,0.7121137976646423,0.18929801881313324
1772701785320192500,3.095192626953125,-0.16430851817131042,0.5748763680458069,0.08188953995704651
1772701785330241500,3.105241455078125,-0.2369355857372284,0.5541617274284363,-0.010151703841984272
1772701785340290600,3.11529052734375,-0.2873130142688751,0.5791656374931335,-0.050690341740846634
1772701785350338600,3.125338623046875,-0.3278138339519501,0.7732975482940674,-0.03561285510659218
1772701785360387600,3.1353876953125,-0.32858267426490784,1.1354986429214478,0.013677462935447693
1772701785370436400,3.145436279296875,-0.34587377309799194,1.505565881729126,0.03952823579311371
1772701785380484600,3.155484619140625,-0.35187655687332153,1.8464462757110596,0.06290945410728455
1772701785390533400,3.165533447265625,-0.34692731499671936,2.043623685836792,0.064956896007061
1772701785400582700,3.175582763671875,-0.3223136067390442,2.0231449604034424,0.07141585648059845
1772701785410630400,3.18563037109375,-0.247202068567276,1.7336872816085815,0.0863330215215683
1772701785420679700,3.1956796875,-0.18949562311172485,1.2230916023254395,0.09074561297893524
1772701785430728400,3.205728515625,-0.15955637395381927,0.7094789147377014,0.10412027686834335
1772701785440776700,3.215776611328125,-0.11102212220430374,0.39449751377105713,0.15780134499073029
1772701785450825500,3.225825439453125,-0.09852764010429382,0.325655072927475,0.24540071189403534
1772701785460874500,3.23587451171875,-0.11381471902132034,0.32521456480026245,0.3017537295818329
1772701785470922500,3.245922607421875,-0.1273297220468521,0.2135479599237442,0.30391833186149597
1772701785480971500,3.255971435546875,-0.11907472461462021,-0.014253770932555199,0.26999711990356445
1772701785491020500,3.2660205078125,-0.08817966282367706,-0.29748547077178955,0.17728397250175476
1772701785501068500,3.276068603515625,-0.020789701491594315,-0.45624661445617676,0.05221420153975487
1772701785511117600,3.28611767578125,0.06210757791996002,-0.40192002058029175,-0.08631651103496552
1772701785521166600,3.29616650390625,0.11888830363750458,-0.27809739112854004,-0.2137381136417389
1772701785531214600,3.306214599609375,0.11504270136356354,-0.2803829312324524,-0.3410305678844452
1772701785541263600,3.316263671875,0.04969778284430504,-0.40016230940818787,-0.49186986684799194
1772701785551312400,3.3263125,-0.043471843004226685,-0.5832914113998413,-0.7160020470619202
1772701785561360600,3.336360595703125,-0.15296877920627594,-0.9309931993484497,-1.028540015220642
1772701785571409400,3.346409423828125,-0.26133280992507935,-1.553443193435669,-1.4837522506713867
1772701785581458700,3.356458740234375,-0.3197050392627716,-2.120811939239502,-2.0098607540130615
1772701785591506400,3.36650634765625,-0.22209617495536804,-2.1305229663848877,-2.3271543979644775
1772701785601555700,3.3765556640625,0.0623784214258194,-1.240153193473816,-2.2723495960235596
1772701785611604500,3.3866044921875,0.42492786049842834,0.08597083389759064,-1.8270832300186157
1772701785621652500,3.396652587890625,0.6529346704483032,0.8756601214408875,-1.098655104637146
1772701785631701500,3.406701416015625,0.5531612038612366,0.5101602077484131,-0.4127010107040405
1772701785641750500,3.41675048828125,0.25649118423461914,-0.23130619525909424,-0.11861000210046768
1772701785651798500,3.426798583984375,0.07878828793764114,-0.5417625904083252,-0.2672564685344696
1772701785661847600,3.43684765625,0.13893552124500275,0.16446004807949066,-0.5123953819274902
1772701785671896600,3.446896484375,0.3016456067562103,1.3726619482040405,-0.641524076461792
1772701785681944600,3.456944580078125,0.4095875024795532,2.3016464710235596,-0.4851698875427246
1772701785691993600,3.46699365234375,0.3707793951034546,2.4161438941955566,-0.1701778620481491
1772701785702042600,3.477042724609375,0.2459264099597931,1.9645087718963623,0.2910829782485962
1772701785712090400,3.48709033203125,0.1716924011707306,1.4389983415603638,0.8091767430305481
1772701785722139600,3.4971396484375,0.16072949767112732,0.9726082682609558,1.280198574066162
1772701785732188400,3.5071884765625,0.1952264904975891,0.7175917029380798,1.6727186441421509
1772701785742236700,3.517236572265625,0.28855350613594055,0.6241708993911743,1.9880512952804565
1772701785752285400,3.527285400390625,0.41615355014801025,0.6370198726654053,2.2381250858306885
1772701785762334500,3.53733447265625,0.5548925399780273,0.7906193137168884,2.360673189163208
1772701785772382500,3.547382568359375,0.7352340817451477,1.033653736114502,2.250153064727783
1772701785782431500,3.557431396484375,0.9402026534080505,1.311453104019165,1.920913815498352
1772701785792480500,3.56748046875,1.1162391901016235,1.5332947969436646,1.46536123752594
1772701785802528500,3.577528564453125,1.2018787860870361,1.6565256118774414,0.9800333976745605
1772701785812577500,3.58757763671875,1.2196167707443237,1.6481424570083618,0.5399894714355469
1772701785822626600,3.59762646484375,1.1944665908813477,1.486193299293518,0.11605310440063477
1772701785832674600,3.607674560546875,1.112700343132019,1.191652774810791,-0.20862963795661926
1772701785842723600,3.6177236328125,0.9935579895973206,0.7908310294151306,-0.3436899781227112
1772701785852772400,3.6277724609375,0.8546467423439026,0.3377799093723297,-0.3500831723213196
1772701785862820600,3.637820556640625,0.6834885478019714,-0.15017086267471313,-0.27291780710220337
1772701785872869400,3.647869384765625,0.507472813129425,-0.4303268790245056,-0.1862841248512268
1772701785882918700,3.657918701171875,0.35973474383354187,-0.30025729537010193,-0.06235845014452934
1772701785892966400,3.66796630859375,0.2065691500902176,-0.19525738060474396,-0.05654556676745415
1772701785903015700,3.678015625,0.039989762008190155,-0.07545240968465805,-0.1492358297109604
1772701785913064400,3.688064453125,-0.14828987419605255,0.12951138615608215,-0.31618911027908325
1772701785923112700,3.69811279296875,-0.3738960921764374,0.3676946461200714,-0.5326138138771057
1772701785933161500,3.708161376953125,-0.6344009041786194,0.6163646578788757,-0.7623905539512634
1772701785943210500,3.71821044921875,-0.8578433394432068,0.796635627746582,-0.9815798997879028
1772701785953258500,3.728258544921875,-1.0513746738433838,0.7508718967437744,-1.1579512357711792
1772701785963307500,3.7383076171875,-1.1794341802597046,0.45103880763053894,-1.1721099615097046
1772701785973356500,3.7483564453125,-1.1992712020874023,0.07500527054071426,-0.9413003921508789
1772701785983404500,3.758404541015625,-1.152003288269043,-0.10439484566450119,-0.5974099040031433
1772701785993453600,3.76845361328125,-1.0856112241744995,0.11310391873121262,-0.3424582779407501
1772701786003502600,3.778502685546875,-1.0394954681396484,0.6536824703216553,-0.19688430428504944
1772701786013550600,3.788550537109375,-0.9715864062309265,1.421493649482727,-0.1327497959136963
1772701786023599600,3.798599609375,-0.8410851359367371,1.8462520837783813,-0.09819607436656952
1772701786033648400,3.8086484375,-0.6985186338424683,1.547548532485962,-0.16679590940475464
1772701786043696600,3.818696533203125,-0.4808955192565918,0.9760770201683044,-0.33253827691078186
1772701786053745400,3.828745361328125,-0.18281136453151703,0.296927809715271,-0.39294490218162537
1772701786063794700,3.838794677734375,0.05624516308307648,-0.3217817544937134,-0.3359244763851166
1772701786073842400,3.848842529296875,0.24635916948318481,-0.7814164757728577,-0.24728542566299438
1772701786083891700,3.8588916015625,0.3704052269458771,-0.9966555237770081,-0.09601334482431412
1772701786093940500,3.8689404296875,0.48341673612594604,-1.0235228538513184,0.11894236505031586
1772701786103988700,3.87898876953125,0.5840229392051697,-0.9889230728149414,0.3451227843761444
1772701786114037500,3.88903759765625,0.5857364535331726,-0.9012184739112854,0.4245763123035431
1772701786124086500,3.89908642578125,0.4904855489730835,-0.7536439299583435,0.27497589588165283
1772701786134134500,3.909134521484375,0.27153003215789795,-0.7452278137207031,-0.014169614762067795
1772701786144183600,3.91918359375,-0.0663428008556366,-1.2776992321014404,-0.10559406876564026
1772701786154232600,3.929232666015625,-0.3467220067977905,-2.304351568222046,0.012839099392294884
1772701786164280600,3.939280517578125,-0.39272305369377136,-3.1893486976623535,0.15405800938606262
1772701786174329600,3.94932958984375,-0.4107401371002197,-3.439612627029419,0.31432676315307617
1772701786184378600,3.959378662109375,-0.527498722076416,-3.112633228302002,0.4454757273197174
1772701786194426600,3.969426513671875,-0.6236268281936646,-2.3947203159332275,0.5793307423591614
1772701786204475600,3.9794755859375,-0.6555560231208801,-1.5389174222946167,0.6895251870155334
1772701786214524700,3.989524658203125,-0.6796869039535522,-0.8511015176773071,0.7450922727584839
1772701786224572700,3.99957275390625,-0.7661837339401245,-0.4962257444858551,0.6847730278968811
1772701786234621700,4.00962158203125,-0.8671873211860657,-0.4439375102519989,0.5917748808860779
1772701786244671000,4.0196708984375,-0.945548951625824,-0.3614753782749176,0.5532602667808533
1772701786254718700,4.02971875,-1.0225545167922974,-0.0860600471496582,0.603341817855835
1772701786264767700,4.039767822265625,-1.0994775295257568,0.255725234746933,0.7264314889907837
1772701786274816800,4.049816650390625,-1.0903327465057373,0.4818156361579895,0.8881932497024536
1772701786284864800,4.05986474609375,-0.958261251449585,0.5149514675140381,1.0179225206375122
1772701786294913800,4.069913818359375,-0.7525871992111206,0.44144850969314575,1.0819201469421387
1772701786304962800,4.079962890625,-0.4869496822357178,0.37517067790031433,1.032291054725647
1772701786315010800,4.0900107421875,-0.25266608595848083,0.37205639481544495,0.855806827545166
1772701786325059600,4.1000595703125,-0.07031144946813583,0.43283024430274963,0.5824639797210693
1772701786335108900,4.11010888671875,0.08991044759750366,0.5442430377006531,0.2600238621234894
1772701786345156600,4.120156494140625,0.1998414695262909,0.7380697727203369,-0.10119399428367615
1772701786355206000,4.130205810546875,0.26634645462036133,0.8989340662956238,-0.42140501737594604
1772701786365254700,4.140254638671875,0.25294890999794006,1.0165791511535645,-0.7120001316070557
1772701786375303000,4.150302978515625,0.20584477484226227,1.0183943510055542,-0.9441947340965271
1772701786385351700,4.1603515625,0.15303854644298553,0.9151545763015747,-1.1280274391174316
1772701786395400700,4.170400634765625,0.11355399340391159,0.7460257411003113,-1.257803201675415
1772701786405448700,4.18044873046875,0.04808736965060234,0.5616185665130615,-1.334025263786316
1772701786415497700,4.190497802734375,-0.00192200334277004,0.4476779103279114,-1.3694003820419312
1772701786425546800,4.200546630859375,-0.031626902520656586,0.4016454219818115,-1.346712350845337
1772701786435594800,4.2105947265625,-0.018821092322468758,0.3803310990333557,-1.2764549255371094
1772701786445643800,4.220643798828125,0.04998939856886864,0.3521482050418854,-1.1705280542373657
1772701786455692800,4.23069287109375,0.17843446135520935,0.35919758677482605,-1.034325122833252
1772701786465740800,4.24074072265625,0.32315248250961304,0.3536456823348999,-0.8825827836990356
1772701786475789800,4.250789794921875,0.5489715337753296,0.22620943188667297,-0.6767345070838928
1772701786485838600,4.260838623046875,0.7808859348297119,-0.09769966453313828,-0.4347567856311798
1772701786495886800,4.270886962890625,0.9472339153289795,-0.4934097230434418,-0.20452357828617096
1772701786505935600,4.280935546875,1.075791358947754,-0.8371031880378723,0.018505508080124855
1772701786515985000,4.29098486328125,1.1593059301376343,-1.0596870183944702,0.2069004476070404
1772701786526032600,4.30103271484375,1.2014046907424927,-1.171423077583313,0.32498687505722046
1772701786536081700,4.31108154296875,1.2004613876342773,-1.1685258150100708,0.35484009981155396
1772701786546130700,4.321130615234375,1.1425936222076416,-1.0069308280944824,0.3068733811378479
1772701786556178700,4.3311787109375,1.0840506553649902,-0.7022079229354858,0.22433988749980927
1772701786566227700,4.341227783203125,1.0362836122512817,-0.3853735327720642,0.16463369131088257
1772701786576276700,4.35127685546875,0.960647463798523,-0.18226194381713867,0.14613936841487885
1772701786586324700,4.36132470703125,0.8467991948127747,-0.08730321377515793,0.15191522240638733
1772701786596373800,4.371373779296875,0.6103848218917847,0.05205068364739418,0.06255445629358292
1772701786606422800,4.3814228515625,0.18844154477119446,0.29896458983421326,-0.15142308175563812
1772701786616470800,4.391470703125,-0.3355015814304352,0.5078719854354858,-0.4349120557308197
1772701786626519800,4.401519775390625,-0.7953456044197083,0.2827499508857727,-0.7548514604568481
1772701786636568800,4.41156884765625,-1.143479824066162,-0.9954919815063477,-0.9779415130615234
1772701786646616600,4.421616455078125,-0.7307367920875549,-2.598066568374634,-0.8052253723144531
1772701786656665900,4.431665771484375,-0.42096108198165894,-1.7041517496109009,-0.2781463861465454
1772701786666714600,4.441714599609375,-0.5293205976486206,0.9625399112701416,0.20828768610954285
1772701786676763000,4.451762939453125,-0.43910813331604004,1.259594440460205,0.1627846509218216
1772701786686811600,4.461811767578125,-0.23364737629890442,0.8462050557136536,0.014140852726995945
1772701786696860700,4.471860595703125,0.10770702362060547,0.9359335899353027,0.0037856835406273603
1772701786706908700,4.48190869140625,0.5521861910820007,0.5464974045753479,-0.2208160012960434
1772701786716957700,4.491957763671875,0.788124144077301,0.43445929884910583,-0.4353586435317993
1772701786727006700,4.5020068359375,0.7173738479614258,0.45847782492637634,-0.5136857032775879
1772701786737055700,4.5120556640625,0.7227779030799866,0.3580268621444702,-0.4304483234882355
1772701786747103700,4.522103759765625,0.7664574980735779,0.24179504811763763,-0.2527981698513031
1772701786757152800,4.53215283203125,0.8162602186203003,0.1504417061805725,-0.008498946204781532
1772701786767201500,4.542201416015625,0.8202301859855652,0.15720267593860626,0.1894969642162323
1772701786777249800,4.552249755859375,0.789465606212616,0.24089597165584564,0.3411834239959717
1772701786787298600,4.562298583984375,0.7475951313972473,0.3405139148235321,0.44898366928100586
1772701786797347800,4.572347900390625,0.7174984812736511,0.40274107456207275,0.4685080945491791
1772701786807395600,4.5823955078125,0.6877312660217285,0.4649732708930969,0.3695586025714874
1772701786817444900,4.59244482421875,0.5937613248825073,0.5304644107818604,0.13586781919002533
1772701786827493600,4.60249365234375,0.4558223783969879,0.5425889492034912,-0.163592129945755
1772701786837542000,4.6125419921875,0.28946617245674133,0.44292575120925903,-0.45589563250541687
1772701786847590700,4.622590576171875,0.13027918338775635,0.1819237321615219,-0.6849903464317322
1772701786857639700,4.6326396484375,0.048956092447042465,-0.2387113720178604,-0.7971325516700745
1772701786867687700,4.642687744140625,-0.0011592740193009377,-0.6817458271980286,-0.7867105603218079
1772701786877736700,4.65273681640625,-0.00035233621019870043,-0.8176245093345642,-0.6999767422676086
1772701786887785700,4.66278564453125,0.0168524831533432,-0.5643307566642761,-0.6216411590576172
1772701786897833700,4.672833740234375,-0.008420915342867374,-0.024333301931619644,-0.5835198760032654
1772701786907882800,4.6828828125,-0.014785869978368282,0.6499199867248535,-0.5367289781570435
1772701786917931800,4.692931884765625,0.021793711930513382,1.2478028535842896,-0.4911758601665497
1772701786927979800,4.702979736328125,0.06298802047967911,1.6801739931106567,-0.4695456624031067
1772701786938028800,4.71302880859375,0.08953254669904709,1.7600336074829102,-0.46399590373039246
1772701786948077600,4.72307763671875,0.07072583585977554,1.3618029356002808,-0.4604474902153015
1772701786958125800,4.733125732421875,0.0022652847692370415,0.4886802136898041,-0.4781319499015808
1772701786968174600,4.743174560546875,-0.06915217638015747,-0.765548825263977,-0.4953373074531555
1772701786978223900,4.753223876953125,-0.028484638780355453,-1.8880078792572021,-0.4248493015766144
1772701786988271600,4.763271728515625,0.1351005584001541,-2.0876357555389404,-0.2914169430732727
1772701786998321000,4.77332080078125,0.2964889109134674,-1.1437020301818848,-0.26497334241867065
1772701787008369700,4.78336962890625,0.35982581973075867,0.4386543333530426,-0.289641410112381
1772701787018418000,4.79341796875,0.34299197793006897,1.548133373260498,-0.36615028977394104
1772701787028466700,4.803466796875,0.30444273352622986,2.0745038986206055,-0.44145116209983826
1772701787038515700,4.813515625,0.28715160489082336,1.976061463356018,-0.3799974024295807
1772701787048563700,4.823563720703125,0.3089863359928131,1.2781705856323242,-0.21058332920074463
1772701787058612700,4.83361279296875,0.21598076820373535,0.5300905108451843,-0.02563904970884323
1772701787068661800,4.843661865234375,0.1289752870798111,0.07244756817817688,0.06922807544469833
1772701787078709800,4.853709716796875,0.09909862279891968,-0.151468887925148,0.08622650057077408
1772701787088758800,4.8637587890625,0.08172415941953659,-0.25275662541389465,0.06906961649656296
1772701787098807800,4.873807861328125,0.10393838584423065,-0.1910375952720642,0.013036706484854221
1772701787108855800,4.883855712890625,0.17324581742286682,-0.07411790639162064,-0.06487433612346649
1772701787118904800,4.89390478515625,0.23753692209720612,-0.03937457129359245,-0.13674373924732208
1772701787128953600,4.90395361328125,0.2656655013561249,-0.15964585542678833,-0.1739954948425293
1772701787139001900,4.914001953125,0.24863643944263458,-0.4294469654560089,-0.12450091540813446
1772701787149050600,4.924050537109375,0.22607333958148956,-0.6772559881210327,0.007759918924421072
1772701787159100000,4.934099853515625,0.18366330862045288,-0.9206545352935791,0.1371956765651703
1772701787169147600,4.944147705078125,0.15669266879558563,-1.1531175374984741,0.18537838757038116
1772701787179197000,4.954197021484375,0.1607939451932907,-1.3470332622528076,0.1501849740743637
1772701787189245700,4.96424560546875,0.17834843695163727,-1.5034306049346924,0.04283854365348816
1772701787199294000,4.9742939453125,0.16727314889431,-1.6325126886367798,-0.026273682713508606
1772701787209343000,4.984343017578125,0.11936607211828232,-1.8484699726104736,0.16267573833465576
1772701787219391700,4.994391845703125,0.06775667518377304,-2.0086286067962646,0.6484088897705078
1772701787229440000,5.00443994140625,0.010319216176867485,-1.7455841302871704,1.1323928833007812
1772701787239488800,5.01448876953125,-0.10866176337003708,-1.2433441877365112,1.4590522050857544
1772701787249538000,5.0245380859375,-0.29493844509124756,-0.9404170513153076,1.5537784099578857
1772701787259585800,5.034585693359375,-0.5147123336791992,-1.070183515548706,1.4307303428649902
1772701787269635000,5.044635009765625,-0.73723965883255,-1.4882482290267944,1.1745246648788452
1772701787279683800,5.054683837890625,-0.904836118221283,-1.7646901607513428,0.8877727389335632
1772701787289732000,5.064732177734375,-1.0355172157287598,-1.6358402967453003,0.629949688911438
1772701787299780900,5.07478076171875,-1.0928471088409424,-1.2119885683059692,0.4176987111568451
1772701787309830000,5.084829833984375,-1.0025768280029297,-0.6231253743171692,0.3341955542564392
1772701787319878000,5.0948779296875,-0.8323009610176086,-0.13121314346790314,0.30224934220314026
1772701787329927000,5.104927001953125,-0.6744511127471924,0.07401909679174423,0.2365582138299942
1772701787339976000,5.114975830078125,-0.5153884887695312,0.0972096398472786,0.09889435768127441
1772701787350024000,5.12502392578125,-0.3457997441291809,0.08592209964990616,-0.08384004235267639
1772701787360073000,5.135072998046875,-0.17206071317195892,0.09340238571166992,-0.30354443192481995
1772701787370122000,5.1451220703125,-0.03898042067885399,0.11342483013868332,-0.5275514125823975
1772701787380170000,5.155169921875,0.07751316577196121,0.1559528410434723,-0.7096229791641235
1772701787390219000,5.165218994140625,0.18833768367767334,0.2763602137565613,-0.8397021293640137
1772701787400267800,5.175267822265625,0.29998779296875,0.44691410660743713,-0.9037985801696777
1772701787410316000,5.18531591796875,0.42229053378105164,0.6684329509735107,-0.9113832712173462
1772701787420364800,5.19536474609375,0.5624614953994751,0.8465901613235474,-0.8381748199462891
1772701787430414000,5.2054140625,0.7307740449905396,1.0354692935943604,-0.7744917273521423
1772701787440461800,5.2154619140625,0.8398265242576599,1.2564373016357422,-0.7107478976249695
1772701787450511000,5.225510986328125,0.971253514289856,1.519676685333252,-0.6540947556495667
1772701787460560000,5.235559814453125,1.0886547565460205,1.7441766262054443,-0.6096590757369995
1772701787470609000,5.24560888671875,1.1374355554580688,1.86815345287323,-0.5197041630744934
1772701787480657000,5.255656982421875,1.146323561668396,1.8567745685577393,-0.3908524513244629
1772701787490706000,5.265705810546875,1.154894232749939,1.7353967428207397,-0.2269226312637329
1772701787500755000,5.2757548828125,1.1436511278152466,1.4058794975280762,-0.02028157003223896
1772701787510803000,5.285802978515625,1.1112401485443115,0.8575946092605591,0.0922766700387001
1772701787520852000,5.29585205078125,0.9686760902404785,0.2875675857067108,0.14369457960128784
1772701787530901000,5.30590087890625,0.8195401430130005,-0.11697428673505783,0.16525553166866302
1772701787540949000,5.315948974609375,0.7841680645942688,-0.4066210091114044,0.1454882174730301
1772701787550998000,5.325998046875,0.7399595975875854,-0.6337407231330872,0.12330462038516998
1772701787561045800,5.336045654296875,0.665287971496582,-0.7788635492324829,0.09524822235107422
1772701787571095000,5.346094970703125,0.5846895575523376,-0.877409040927887,0.058522697538137436
1772701787581143800,5.356143798828125,0.5128382444381714,-0.9121808409690857,0.031010912731289864
1772701787591191800,5.36619189453125,0.42362743616104126,-0.8281943798065186,0.04403190687298775
1772701787601240800,5.37624072265625,0.32103821635246277,-0.5500937700271606,0.017297230660915375
1772701787611289900,5.386289794921875,0.2161429524421692,0.005085039883852005,0.012743225321173668
1772701787621337900,5.396337890625,0.12211685627698898,0.5594337582588196,0.05260834842920303
1772701787631387000,5.406386962890625,0.04995211213827133,0.8482314348220825,0.050637878477573395
1772701787641436000,5.416435791015625,-0.000022370553779182956,0.8895400166511536,0.020593425258994102
1772701787651483600,5.426483642578125,-0.028658542782068253,0.8387327790260315,-0.02172766625881195
1772701787661533000,5.436532958984375,-0.09540507942438126,0.7042862772941589,-0.05528482794761658
1772701787671582000,5.44658203125,-0.306974321603775,0.45129847526550293,-0.07064434140920639
1772701787681630000,5.4566298828125,-0.5396536588668823,0.015746472403407097,-0.006256830412894487
1772701787691678700,5.4666787109375,-0.41780149936676025,-0.6077035069465637,0.13203713297843933
1772701787701727700,5.476727783203125,0.01769084669649601,-1.2057597637176514,0.3442268967628479
1772701787711775700,5.486775634765625,0.1727890819311142,-1.615535020828247,0.5156883597373962
1772701787721824800,5.49682470703125,-0.13371917605400085,-1.8191959857940674,0.5454646348953247
1772701787731874000,5.5068740234375,-0.44581422209739685,-1.6415940523147583,0.35844284296035767
1772701787741921800,5.516921875,-0.5380480289459229,-0.9750333428382874,-0.12567803263664246
1772701787751970800,5.526970703125,-0.5010990500450134,-0.7800023555755615,-0.782143235206604
1772701787762019800,5.537019775390625,-0.42532145977020264,-2.001163959503174,-1.1400669813156128
1772701787772067800,5.54706787109375,-0.3347731828689575,-1.9676553010940552,-1.039183259010315
1772701787782116900,5.557116943359375,-0.03929520770907402,0.7075614333152771,-0.49494367837905884
1772701787792166000,5.567165771484375,0.10005070269107819,2.257081985473633,-0.2401268482208252
1772701787802215000,5.57721484375,0.1572527438402176,1.8538551330566406,-0.5055680871009827
1772701787812262700,5.5872626953125,0.1830981820821762,1.2716634273529053,-0.6499039530754089
1772701787822312000,5.59731201171875,0.21792860329151154,0.8763080835342407,-0.6048840284347534
1772701787832361000,5.60736083984375,0.237433061003685,0.6011545658111572,-0.5128912925720215
1772701787842409000,5.617408935546875,0.2573108971118927,0.419389009475708,-0.3376486003398895
1772701787852457700,5.627457763671875,0.25769492983818054,0.3379253149032593,-0.11128577589988708
1772701787862506800,5.6375068359375,0.21782127022743225,0.34382927417755127,0.12499333173036575
1772701787872554800,5.6475546875,0.15393124520778656,0.37328916788101196,0.3223349153995514
1772701787882603800,5.657603759765625,0.16053588688373566,0.3439722955226898,0.514352560043335
1772701787892653000,5.667653076171875,0.2365821748971939,0.24814721941947937,0.6822313070297241
1772701787902700800,5.67770068359375,0.2883870601654053,0.07684098184108734,0.7472960352897644
1772701787912749800,5.687749755859375,0.28670448064804077,-0.08049377799034119,0.6663798689842224
1772701787922798800,5.697798828125,0.228225976228714,-0.12344736605882645,0.4619399309158325
1772701787932846800,5.707846923828125,0.1741342544555664,-0.03605147823691368,0.18410645425319672
1772701787942895900,5.717895751953125,0.16309784352779388,0.10603854805231094,-0.1574207842350006
1772701787952945000,5.72794482421875,0.15579278767108917,0.19638283550739288,-0.5113250613212585
1772701787962993000,5.737992919921875,0.11901374161243439,0.1498856395483017,-0.807310938835144
1772701787973041700,5.748041748046875,0.06827972084283829,-0.05457349494099617,-0.9973061680793762
1772701787983091000,5.758091064453125,0.007980961352586746,-0.24972620606422424,-1.0526766777038574
1772701787993138700,5.768138671875,-0.057925619184970856,-0.30312979221343994,-1.011913537979126
1772701788003188000,5.77818798828125,-0.12184281647205353,-0.2541404068470001,-0.9260258674621582
1772701788013237000,5.788237060546875,-0.1683107167482376,-0.14164182543754578,-0.8150711059570312
1772701788023285000,5.798284912109375,-0.19699908792972565,0.005939914379268885,-0.6743078827857971
1772701788033333800,5.808333740234375,-0.21646173298358917,0.15128059685230255,-0.5170641541481018
1772701788043382800,5.8183828125,-0.2550773024559021,0.25133663415908813,-0.35873764753341675
1772701788053430800,5.8284306640625,-0.3204595148563385,0.29532912373542786,-0.19453778862953186
1772701788063479800,5.838479736328125,-0.39984381198883057,0.26511847972869873,-0.03248656913638115
1772701788073528800,5.84852880859375,-0.4880085587501526,0.20829914510250092,0.046418629586696625
1772701788083576800,5.858576904296875,-0.6212936639785767,0.2072083055973053,-0.008593488484621048
1772701788093625900,5.8686259765625,-0.7729012966156006,0.37548521161079407,-0.15885862708091736
1772701788103675000,5.8786748046875,-0.8540589809417725,0.7338196635246277,-0.28806641697883606
1772701788113724000,5.888723876953125,-0.8191848993301392,1.088494062423706,-0.3383921682834625
1772701788123772000,5.89877197265625,-0.7156771421432495,1.29179048538208,-0.1984177529811859
1772701788133820700,5.908820556640625,-0.5571756362915039,1.2563227415084839,0.13542519509792328
1772701788143870000,5.918869873046875,-0.420994371175766,0.8872243762016296,0.4224660396575928
1772701788153917700,5.928917724609375,-0.334514856338501,0.19781693816184998,0.6910263895988464
1772701788163967000,5.938967041015625,-0.4426911473274231,-0.9185549020767212,0.9988499879837036
1772701788174016000,5.94901611328125,-0.7739630937576294,-1.871368408203125,1.2252663373947144
1772701788184064000,5.95906396484375,-1.0504945516586304,-2.0357842445373535,1.071010708808899
1772701788194112800,5.96911279296875,-1.1641196012496948,-1.7349135875701904,0.8032780885696411
1772701788204161800,5.979161865234375,-1.3395652770996094,-1.8407247066497803,0.9307838678359985
1772701788214209800,5.989209716796875,-1.6530951261520386,-2.383397340774536,1.302715539932251
1772701788224258800,5.9992587890625,-1.7520649433135986,-2.4358205795288086,1.4099153280258179
1772701788234307800,6.009307861328125,-1.6191105842590332,-1.9969185590744019,1.4470349550247192
1772701788244355800,6.01935595703125,-1.468294382095337,-1.4177659749984741,1.4770591259002686
1772701788254404900,6.02940478515625,-1.2941622734069824,-0.7649543881416321,1.3314855098724365
1772701788264454000,6.039453857421875,-1.07704496383667,-0.359426885843277,1.0291399955749512
1772701788274502000,6.049501953125,-0.9262655377388,-0.3937150835990906,0.6097254157066345
1772701788284551000,6.059551025390625,-0.8267879486083984,-0.7956699728965759,0.1216055303812027
1772701788294599700,6.069599609375,-0.6980555057525635,-1.2182800769805908,-0.33356624841690063
1772701788304648000,6.07964794921875,-0.5442590713500977,-1.4534311294555664,-0.6470626592636108
1772701788314696700,6.08969677734375,-0.34647566080093384,-1.4494600296020508,-0.6945332288742065
1772701788324746000,6.09974609375,-0.17370495200157166,-1.0521718263626099,-0.5689454674720764
1772701788334793700,6.109793701171875,-0.04333122819662094,-0.5879878997802734,-0.4316382110118866
1772701788344843000,6.119843017578125,0.04248886927962303,-0.2879337966442108,-0.4036358892917633
1772701788354891800,6.129891845703125,0.13374873995780945,-0.1813839077949524,-0.39317843317985535
1772701788364940800,6.13994091796875,0.27691975235939026,-0.17309081554412842,-0.309631884098053
1772701788374988800,6.14998876953125,0.40034952759742737,-0.22127752006053925,-0.18606866896152496
1772701788385037800,6.160037841796875,0.47290098667144775,-0.24762071669101715,-0.10702738165855408
1772701788395086800,6.1700869140625,0.5414654016494751,-0.16726116836071014,-0.05265175923705101
1772701788405134800,6.180134765625,0.6217352151870728,0.08673010021448135,-0.03997617959976196
1772701788415184000,6.190183837890625,0.7100240588188171,0.4726458489894867,-0.05226666480302811
1772701788425233000,6.20023291015625,0.7751950621604919,0.9325822591781616,-0.036263465881347656
1772701788435281000,6.210281005859375,0.8246294260025024,1.410234808921814,0.01986265368759632
1772701788445330000,6.220329833984375,0.8218024969100952,1.9369308948516846,0.09935507923364639
1772701788455378700,6.230378662109375,0.7615585923194885,2.513176441192627,0.1877928078174591
1772701788465427000,6.240427001953125,0.7105113863945007,3.1383438110351562,0.32003605365753174
1772701788475475700,6.250475830078125,0.7198393940925598,3.7599422931671143,0.48233842849731445
1772701788485525000,6.26052490234375,0.7745042443275452,4.286141395568848,0.632176399230957
1772701788495572700,6.27057275390625,0.7487725019454956,4.588910102844238,0.6704217791557312
1772701788505622000,6.2806220703125,0.5997795462608337,4.616418361663818,0.5110757946968079
1772701788515670800,6.2906708984375,0.3769872188568115,4.420042037963867,0.22874635457992554
1772701788525719000,6.300718994140625,0.12039991468191147,3.8607075214385986,-0.08340807259082794
1772701788535767800,6.310767822265625,-0.052923403680324554,2.851971387863159,-0.21352718770503998
1772701788545816800,6.32081689453125,-0.005410477984696627,1.5356165170669556,-0.07149415463209152
1772701788555864800,6.33086474609375,0.0652056336402893,0.29555922746658325,0.09234964102506638
1772701788565913900,6.340913818359375,0.1305612027645111,-0.3621065616607666,0.15561595559120178
1772701788575963000,6.350962890625,0.15140390396118164,-0.5084094405174255,0.09335018694400787
1772701788586011000,6.361010986328125,0.14514601230621338,-0.4882248044013977,0.0408070832490921
1772701788596060000,6.371059814453125,0.11759719997644424,-0.4637274444103241,0.008698150515556335
1772701788606109000,6.38110888671875,0.06577076017856598,-0.42030033469200134,-0.010420682840049267
1772701788616157700,6.39115771484375,0.012447348795831203,-0.3206368684768677,-0.035765454173088074
1772701788626206000,6.4012060546875,-0.018604043871164322,-0.1188824474811554,-0.050382744520902634
1772701788636254700,6.411254638671875,-0.016577910631895065,0.1312379091978073,-0.0452020987868309
1772701788646304000,6.421303955078125,-0.0026871294248849154,0.3220190405845642,-0.021467741578817368
1772701788656351700,6.431351806640625,-0.0032866070978343487,0.3711836636066437,0.036852821707725525
1772701788666401000,6.441401123046875,-0.023095998913049698,0.2501022517681122,0.1639721542596817
1772701788676449800,6.45144970703125,-0.07754086703062057,-0.07436371594667435,0.40666335821151733
1772701788686498000,6.461498046875,-0.21551896631717682,-0.5947557687759399,0.7941983342170715
1772701788696546800,6.471546875,-0.4144917130470276,-1.4243879318237305,1.3240152597427368
1772701788706595800,6.481595947265625,-0.46102645993232727,-2.677569627761841,1.8449410200119019
1772701788716643800,6.491643798828125,-0.5132915377616882,-4.247807502746582,1.9507745504379272
1772701788726692900,6.50169287109375,-1.0377084016799927,-5.381900310516357,0.9478006362915039
1772701788736742000,6.511741943359375,-1.5774712562561035,-4.452746868133545,-0.634939432144165
1772701788746790000,6.521789794921875,-1.5565094947814941,-1.3753509521484375,-2.02533221244812
1772701788756839000,6.5318388671875,-1.134669303894043,1.4873509407043457,-1.9576420783996582
1772701788766888000,6.541887939453125,-0.26524898409843445,2.20267915725708,-0.5305671691894531
1772701788776936000,6.55193603515625,-0.1190776526927948,2.0978832244873047,0.005399026442319155
1772701788786985000,6.56198486328125,-0.31598833203315735,0.9023663401603699,0.07121745496988297
1772701788797033700,6.57203369140625,-0.20175522565841675,0.2435269057750702,-0.10727079957723618
1772701788807082000,6.58208203125,-0.0012876383261755109,-0.07798454910516739,-0.31608420610427856
1772701788817130800,6.592130859375,-0.013525928370654583,-0.45124921202659607,-0.1970701962709427
1772701788827180000,6.602179931640625,-0.2024415135383606,-0.1439177542924881,0.19805289804935455
1772701788837228800,6.612228759765625,-0.33128926157951355,0.3618634045124054,0.4799266457557678
1772701788847276800,6.62227685546875,-0.4052465558052063,0.4438067376613617,0.5412417054176331
1772701788857325800,6.632325927734375,-0.3641505241394043,0.3007875382900238,0.5486838817596436
1772701788867374800,6.642374755859375,-0.20426471531391144,0.1743861883878708,0.5282369256019592
1772701788877422800,6.6524228515625,-0.020724985748529434,0.11422643810510635,0.4269545078277588
1772701788887471900,6.662471923828125,0.10349789261817932,0.12602530419826508,0.2912994921207428
1772701788897521000,6.67252099609375,0.18249498307704926,0.187407448887825,0.15352430939674377
1772701788907569000,6.68256884765625,0.20847997069358826,0.354343980550766,0.00045540055725723505
1772701788917618000,6.692617919921875,0.21215327084064484,0.5483773350715637,-0.19612503051757812
1772701788927667000,6.7026669921875,0.23364923894405365,0.6458498239517212,-0.38875332474708557
1772701788937714700,6.712714599609375,0.25753194093704224,0.5751157402992249,-0.4892149567604065
1772701788947764000,6.722763916015625,0.30729150772094727,0.3652016818523407,-0.48729243874549866
1772701788957812700,6.732812744140625,0.39778438210487366,0.06524664908647537,-0.4424426555633545
1772701788967861000,6.742861083984375,0.4885382652282715,-0.18591740727424622,-0.4092964231967926
1772701788977909800,6.75290966796875,0.553876519203186,-0.33948513865470886,-0.37900617718696594
1772701788987958800,6.762958740234375,0.5899199843406677,-0.3717447817325592,-0.30800309777259827
1772701788998006800,6.7730068359375,0.6194238066673279,-0.31688395142555237,-0.20970875024795532
1772701789008055800,6.783055908203125,0.6331638693809509,-0.19893893599510193,-0.08961191028356552
1772701789018104800,6.793104736328125,0.6026967763900757,-0.057310692965984344,0.047756072133779526
1772701789028153900,6.80315380859375,0.5099037289619446,0.09655609726905823,0.20543278753757477
1772701789038201900,6.813201904296875,0.3566521406173706,0.23641014099121094,0.37059617042541504
1772701789048251000,6.8232509765625,0.182218536734581,0.28538674116134644,0.4683901071548462
1772701789058300000,6.8332998046875,0.0097450390458107,0.26583459973335266,0.47736656665802
1772701789068348000,6.843347900390625,-0.13404248654842377,0.27002960443496704,0.426039457321167
1772701789078396700,6.853396728515625,-0.2780880630016327,0.23378612101078033,0.35441267490386963
1772701789088446000,6.863446044921875,-0.38072869181632996,0.19146397709846497,0.3099496066570282
1772701789098493700,6.87349365234375,-0.4408876597881317,0.1561105102300644,0.27004188299179077
1772701789108543000,6.88354296875,-0.4895918071269989,0.1180933490395546,0.2212730050086975
1772701789118591700,6.893591796875,-0.5270414352416992,0.11965662240982056,0.1709083616733551
1772701789128640000,6.903639892578125,-0.5462143421173096,0.2542860805988312,0.13423237204551697
1772701789138688800,6.913688720703125,-0.5430222749710083,0.3997948169708252,0.10015589743852615
1772701789148737800,6.92373779296875,-0.5472396612167358,0.4581933915615082,0.05828940495848656
1772701789158785800,6.933785888671875,-0.5753112435340881,0.4476211965084076,-0.035165444016456604
1772701789168834800,6.943834716796875,-0.6325388550758362,0.4231507182121277,-0.22563312947750092
1772701789178883800,6.9538837890625,-0.6701754331588745,0.36799347400665283,-0.48935797810554504
1772701789188931800,6.963931884765625,-0.6238880753517151,0.2417239397764206,-0.6772509217262268
1772701789198980900,6.97398095703125,-0.545062243938446,0.03313185274600983,-0.7823435068130493
1772701789209030000,6.98402978515625,-0.4386575222015381,-0.0898185670375824,-0.810680627822876
1772701789219078700,6.99407861328125,-0.3471297323703766,-0.22101999819278717,-0.7180745005607605
1772701789229126700,7.004126708984375,-0.3348405659198761,-0.45661014318466187,-0.4336177408695221
1772701789239175700,7.01417578125,-0.4213573634624481,-0.8262454271316528,-0.026921628043055534
1772701789249224700,7.024224609375,-0.5660191774368286,-1.163585901260376,0.30370235443115234
1772701789259272400,7.0342724609375,-0.6454575657844543,-1.5010385513305664,0.4070814847946167
1772701789269321700,7.04432177734375,-0.6770051121711731,-1.9092848300933838,0.3699412941932678
1772701789279370500,7.05437060546875,-0.6992153525352478,-2.1558501720428467,0.26810309290885925
1772701789289418800,7.064418701171875,-0.6987308859825134,-2.277602195739746,0.18472270667552948
1772701789299467500,7.074467529296875,-0.6451408863067627,-2.433637857437134,0.15273654460906982
1772701789309516500,7.0845166015625,-0.5542315244674683,-2.3460025787353516,0.19884279370307922
1772701789319564500,7.094564453125,-0.4969000518321991,-2.0691542625427246,0.33034756779670715
1772701789329613600,7.104613525390625,-0.4640904366970062,-1.8613224029541016,0.4631178379058838
1772701789339662600,7.11466259765625,-0.43155431747436523,-1.7806522846221924,0.5529257655143738
1772701789349710600,7.124710693359375,-0.3845527470111847,-1.7101701498031616,0.6295017600059509
1772701789359759600,7.134759521484375,-0.3561658263206482,-1.5665011405944824,0.6809473633766174
1772701789369808600,7.14480859375,-0.3729594647884369,-1.353001356124878,0.7328010201454163
1772701789379857700,7.154857666015625,-0.40906500816345215,-1.1210768222808838,0.7894219160079956
1772701789389905700,7.16490576171875,-0.44342538714408875,-0.9300575852394104,0.8494796752929688
1772701789399954400,7.174954345703125,-0.47133663296699524,-0.8271309733390808,0.8906399011611938
1772701789410003700,7.185003662109375,-0.4858740270137787,-0.7981994152069092,0.9122687578201294
1772701789420051500,7.195051513671875,-0.5025174617767334,-0.7917812466621399,0.9527330994606018
1772701789430100700,7.205100830078125,-0.5064101815223694,-0.7587077021598816,1.046923279762268
1772701789440149500,7.2151494140625,-0.49102723598480225,-0.6974395513534546,1.229339599609375
1772701789450197800,7.22519775390625,-0.4066646993160248,-0.41652238368988037,1.3242168426513672
1772701789460246500,7.23524658203125,-0.26999205350875854,-0.030844464898109436,1.2412998676300049
1772701789470295600,7.245295654296875,-0.0480671264231205,0.3259109854698181,1.0387276411056519
1772701789480343600,7.255343505859375,0.29189255833625793,0.6218544840812683,0.7576519846916199
1772701789490392600,7.265392578125,0.6923190951347351,0.6235871315002441,0.5504783391952515
1772701789500441600,7.275441650390625,0.8559916615486145,0.7794846296310425,0.24348029494285583
1772701789510489600,7.285489501953125,0.847074568271637,1.1148560047149658,-0.16471518576145172
1772701789520538600,7.29553857421875,0.7744653224945068,1.4015908241271973,-0.5734978914260864
1772701789530587600,7.305587646484375,0.819726824760437,1.3151594400405884,-0.7818010449409485
1772701789540636400,7.315636474609375,0.8468583226203918,1.0604161024093628,-0.9391781091690063
1772701789550684700,7.3256845703125,0.804333508014679,0.7356111407279968,-1.0924832820892334
1772701789560733400,7.3357333984375,0.8167576789855957,0.526763379573822,-1.2102493047714233
1772701789570782700,7.34578271484375,0.8141592144966125,0.5896691083908081,-1.2826275825500488
1772701789580830500,7.35583056640625,0.7969986200332642,0.7308171987533569,-1.2931824922561646
1772701789590879700,7.365879638671875,0.8148114681243896,0.7766667008399963,-1.2059320211410522
1772701789600928500,7.375928466796875,0.8737788796424866,0.7181288599967957,-1.075047492980957
1772701789610976800,7.385976806640625,0.9358571767807007,0.7132041454315186,-0.9261131882667542
1772701789621025500,7.396025634765625,1.007493495941162,0.6937114000320435,-0.7386974692344666
1772701789631074600,7.406074462890625,1.0705777406692505,0.6920098662376404,-0.5338950753211975
1772701789641122600,7.41612255859375,1.1072273254394531,0.6945404410362244,-0.3043532371520996
1772701789651171600,7.426171630859375,1.1073408126831055,0.7670904994010925,-0.12339703738689423
1772701789661220600,7.436220703125,1.0944452285766602,0.9346976280212402,-0.030586671084165573
1772701789671268600,7.4462685546875,1.069369912147522,1.091931939125061,-0.01714196801185608
1772701789681317600,7.456317626953125,1.0188143253326416,1.1859607696533203,-0.06760834157466888
1772701789691366700,7.46636669921875,0.9546516537666321,1.1793757677078247,-0.15535657107830048
1772701789701415400,7.47641552734375,0.8936865329742432,1.05515456199646,-0.24190478026866913
1772701789711463700,7.486463623046875,0.826901376247406,0.8476729989051819,-0.2919362485408783
1772701789721512400,7.496512451171875,0.7069587707519531,0.5486977100372314,-0.29027310013771057
1772701789731561700,7.506561767578125,0.5621232390403748,0.29248833656311035,-0.30304962396621704
1772701789741609500,7.516609375,0.39879798889160156,0.2430185079574585,-0.41788139939308167
1772701789751658800,7.52665869140625,0.206461563706398,0.3552859127521515,-0.5718336701393127
1772701789761707500,7.53670751953125,-0.024352477863430977,0.4775431156158447,-0.7140805721282959
1772701789771755800,7.546755859375,-0.19872801005840302,0.6327399015426636,-0.8862709999084473
1772701789781804500,7.556804443359375,-0.20376378297805786,0.7573518753051758,-0.9861653447151184
1772701789791853600,7.566853515625,-0.149920254945755,0.839599072933197,-0.966094434261322
1772701789801901600,7.576901611328125,-0.23910099267959595,0.7374444603919983,-0.9277215003967285
1772701789811950600,7.58695068359375,-0.26472726464271545,1.113295078277588,-0.8947978615760803
1772701789821999600,7.59699951171875,-0.34738752245903015,1.3024234771728516,-0.9568609595298767
1772701789832047600,7.607047607421875,-0.43298712372779846,1.2733403444290161,-1.0779186487197876
1772701789842096600,7.6170966796875,-0.410794734954834,0.9120802283287048,-1.106650471687317
1772701789852145700,7.627145751953125,-0.42557287216186523,0.6252630949020386,-0.7746437788009644
1772701789862194400,7.6371943359375,-0.4866713881492615,0.2740238308906555,-0.317883163690567
1772701789872242700,7.64724267578125,-0.5914103388786316,-0.04638054966926575,0.18745777010917664
1772701789882291500,7.65729150390625,-0.7075808644294739,-0.03323438763618469,0.51719731092453
1772701789892340700,7.6673408203125,-0.7313637137413025,0.01733238436281681,0.6472170948982239
1772701789902388500,7.677388427734375,-0.703916609287262,0.14550898969173431,0.699873149394989
1772701789912437800,7.687437744140625,-0.6850183010101318,0.3890872895717621,0.7036345601081848
1772701789922486500,7.697486572265625,-0.6531490683555603,0.6212806105613708,0.6047431826591492
1772701789932534800,7.70753466796875,-0.5353739261627197,0.7087795734405518,0.37740108370780945
1772701789942583600,7.71758349609375,-0.40324732661247253,0.6500696539878845,0.04856540635228157
1772701789952632600,7.727632568359375,-0.2893636226654053,0.33869922161102295,-0.22313454747200012
1772701789962680600,7.7376806640625,-0.24502360820770264,0.00660384027287364,-0.4284459054470062
1772701789972729600,7.7477294921875,-0.2679550051689148,-0.1700742542743683,-0.6186714768409729
1772701789982778600,7.757778564453125,-0.3266476094722748,-0.22218646109104156,-0.8059247136116028
1772701789992827600,7.76782763671875,-0.40199190378189087,-0.1468064934015274,-0.9178235530853271
1772701790002875600,7.777875732421875,-0.4278232455253601,0.08233029395341873,-0.9654155969619751
1772701790012924700,7.787924560546875,-0.40825459361076355,0.3995809555053711,-0.9995946288108826
1772701790022973400,7.797973388671875,-0.396075963973999,0.6762298345565796,-0.9559019804000854
1772701790033021700,7.808021728515625,-0.3859871029853821,0.8431392312049866,-0.8382696509361267
1772701790043070500,7.818070556640625,-0.38957491517066956,0.8250611424446106,-0.6709285974502563
1772701790053119700,7.82811962890625,-0.4025229513645172,0.5885972380638123,-0.47914767265319824
1772701790063167500,7.83816748046875,-0.4124280512332916,0.24360333383083344,-0.2753293216228485
1772701790073216800,7.848216796875,-0.41851097345352173,-0.09234590828418732,-0.07347288727760315
1772701790083265500,7.858265625,-0.43915659189224243,-0.28529486060142517,0.09290490299463272
1772701790093313800,7.868313720703125,-0.4566833972930908,-0.36597371101379395,0.24213247001171112
1772701790103362600,7.878362548828125,-0.47821956872940063,-0.430747926235199,0.3692936301231384
1772701790113411600,7.88841162109375,-0.48432645201683044,-0.5084400773048401,0.48652997612953186
1772701790123460600,7.898460693359375,-0.4629404842853546,-0.4981221854686737,0.5691865086555481
1772701790133508600,7.908508544921875,-0.380569189786911,-0.4404548704624176,0.589375376701355
1772701790143557600,7.9185576171875,-0.29390963912010193,-0.39162182807922363,0.555530309677124
1772701790153606700,7.928606689453125,-0.20204444229602814,-0.25242212414741516,0.517051100730896
1772701790163654700,7.938654541015625,-0.1575203835964203,-0.025678997859358788,0.5093016028404236
1772701790173703700,7.94870361328125,-0.10095244646072388,0.12302818894386292,0.5434340238571167
1772701790183752400,7.95875244140625,-0.017884723842144012,0.12036795914173126,0.5798916220664978
1772701790193800700,7.96880078125,0.03738865256309509,0.06321518868207932,0.5971470475196838
1772701790203849500,7.978849365234375,0.06523812562227249,-0.013747237622737885,0.5432558059692383
1772701790213898200,7.988898193359375,0.06401173770427704,-0.034633345901966095,0.4103955030441284
1772701790223946000,7.998946044921875,0.0408499613404274,-0.035109251737594604,0.28752100467681885
1772701790233995300,8.008995361328125,-0.01248303521424532,0.017349163070321083,0.22541926801204681
1772701790244044000,8.0190439453125,-0.10074791312217712,0.059190619736909866,0.2304595708847046
1772701790254093000,8.029093017578125,-0.1854012906551361,0.051969192922115326,0.285381942987442
1772701790264141000,8.03914111328125,-0.2668338119983673,-0.021500498056411743,0.4328148066997528
1772701790274190000,8.049190185546875,-0.35438525676727295,-0.17848744988441467,0.6368984580039978
1772701790284239000,8.059239013671874,-0.4332984387874603,-0.3449121117591858,0.8186607956886292
1772701790294287000,8.069287109375,-0.47613751888275146,-0.4176928400993347,0.935465395450592
1772701790304336100,8.079336181640626,-0.48700666427612305,-0.43587157130241394,0.9908389449119568
1772701790314385200,8.08938525390625,-0.48318716883659363,-0.43692514300346375,0.9910058975219727
1772701790324433200,8.09943310546875,-0.5081607103347778,-0.44138699769973755,0.9520329236984253
1772701790334482200,8.109482177734375,-0.5409548878669739,-0.424056738615036,0.8676088452339172
1772701790344531000,8.119531005859375,-0.5629006624221802,-0.3260830342769623,0.7594616413116455
1772701790354579200,8.1295791015625,-0.5446885824203491,-0.19710135459899902,0.6657231450080872
1772701790364628000,8.1396279296875,-0.4798414409160614,-0.11467571556568146,0.5927339196205139
1772701790374677200,8.14967724609375,-0.4055541455745697,-0.09355418384075165,0.5225390791893005
1772701790384725000,8.15972509765625,-0.324424147605896,-0.13126534223556519,0.45430439710617065
1772701790394774300,8.169774169921874,-0.253137469291687,-0.11780785769224167,0.3945204019546509
1772701790404823000,8.179822998046875,-0.17970451712608337,-0.08609840273857117,0.3616146743297577
1772701790414872000,8.1898720703125,-0.11276783049106598,-0.0608401820063591,0.35691604018211365
1772701790424920000,8.199920166015625,-0.06300373375415802,-0.010870757512748241,0.3561461269855499
1772701790434969000,8.209968994140626,-0.02339879982173443,0.020077837631106377,0.37665167450904846
1772701790445018000,8.22001806640625,0.016762468963861465,-0.006982542108744383,0.40752384066581726
1772701790455066000,8.230066162109376,0.04031679779291153,-0.08286985009908676,0.42077305912971497
1772701790465115100,8.240115234375,0.050824299454689026,-0.162886381149292,0.41479718685150146
1772701790475164200,8.2501640625,0.06117707118391991,-0.16359452903270721,0.4256274700164795
1772701790485212200,8.260212158203124,0.04670784994959831,-0.14052541553974152,0.4326006770133972
1772701790495261200,8.27026123046875,0.009097358211874962,-0.1491418182849884,0.4105584919452667
1772701790505310000,8.28031005859375,-0.03518541902303696,-0.14754098653793335,0.35354554653167725
1772701790515359200,8.290359130859375,-0.0752050057053566,-0.10056442767381668,0.27868223190307617
1772701790525407000,8.300406982421874,-0.08965478837490082,-0.029994383454322815,0.20926028490066528
1772701790535456300,8.310456298828125,-0.08896289765834808,-0.007568703964352608,0.1665133535861969
1772701790545505000,8.320505126953124,-0.09139249473810196,0.01401541754603386,0.1432168185710907
1772701790555553300,8.33055322265625,-0.08795488625764847,0.03689516708254814,0.13883431255817413
1772701790565602000,8.34060205078125,-0.09434141218662262,0.049424540251493454,0.15268062055110931
1772701790575651000,8.350651123046875,-0.10796748101711273,0.03411296382546425,0.18178577721118927
1772701790585699000,8.360698974609376,-0.12110591679811478,0.008319981396198273,0.21367500722408295
1772701790595748000,8.370748046875,-0.10922129452228546,-0.02226855419576168,0.233230322599411
1772701790605797000,8.380797119140626,-0.08026314526796341,-0.05564302206039429,0.2741692364215851
1772701790615845000,8.39084521484375,-0.05414446070790291,-0.06138692796230316,0.3280750811100006
1772701790625894100,8.40089404296875,-0.01852361671626568,-0.12402607500553131,0.45084014534950256
1772701790635943200,8.410943115234375,-0.0007432882557623088,-0.13442838191986084,0.4396636486053467
1772701790645992000,8.420991943359375,0.011491007171571255,-0.05614342913031578,0.3937574326992035
1772701790656040200,8.431040283203124,-0.013275591656565666,0.05657140165567398,0.29094982147216797
1772701790666089000,8.4410888671875,-0.072840116918087,0.10772459954023361,0.1779220700263977
1772701790676138200,8.45113818359375,-0.1395041048526764,0.06385594606399536,0.07116205990314484
1772701790686186000,8.46118603515625,-0.17907653748989105,0.06418058276176453,-0.022780679166316986
1772701790696235300,8.4712353515625,-0.19585952162742615,0.10378365218639374,-0.06898120045661926
1772701790706284000,8.481283935546875,-0.19810429215431213,0.13405847549438477,-0.0749400183558464
1772701790716332300,8.491332275390626,-0.16562677919864655,0.1329284906387329,-0.04751824960112572
1772701790726381000,8.501381103515625,-0.1350824534893036,0.08308183401823044,-0.04102093726396561
