time,seconds_elapsed,z,y,x
1772701782299315700,0.074315673828125,0.059886634349823,-0.011643183417618275,-0.0497061163187027
1772701782309363700,0.08436376953125,0.06835521757602692,0.01802016980946064,-0.036158353090286255
1772701782319412700,0.094412841796875,0.09096542745828629,0.0415886826813221,-0.030391933396458626
1772701782329461500,0.10446142578125,0.11379563808441162,0.0590054914355278,-0.035017579793930054
1772701782339509800,0.114509765625,0.12854847311973572,0.07083520293235779,-0.04717765375971794
1772701782349558500,0.12455859375,0.1307533085346222,0.04752589017152786,-0.06470578163862228
1772701782359607800,0.13460791015625,0.1231611967086792,0.03042529709637165,-0.07275048643350601
1772701782369655600,0.144655517578125,0.10447219759225845,0.04259248450398445,-0.0728202611207962
1772701782379704800,0.154704833984375,0.08668632805347443,0.03949110954999924,-0.06566470116376877
1772701782389753600,0.164753662109375,0.07647682726383209,0.015254480764269829,-0.04508352652192116
1772701782399801900,0.1748017578125,0.0778932273387909,-0.017965203151106834,-0.029546134173870087
1772701782409850600,0.1848505859375,0.07868791371583939,-0.04839235171675682,-0.01554563082754612
1772701782419899600,0.194899658203125,0.0754811093211174,-0.06953417509794235,0.000029765069484710693
1772701782429947600,0.20494775390625,0.0732259452342987,-0.0659405067563057,0.01200120709836483
1772701782439996700,0.21499658203125,0.07771575450897217,-0.0652507096529007,0.01635061949491501
1772701782450045700,0.225045654296875,0.08080049604177475,-0.07380078732967377,0.013365481980144978
1772701782460093700,0.23509375,0.07716087251901627,-0.07814256101846695,0.0015734962653368711
1772701782470142700,0.245142822265625,0.06928963214159012,-0.06551864743232727,-0.005953662097454071
1772701782480190700,0.255190673828125,0.0624593161046505,-0.038561075925827026,-0.01832287758588791
1772701782490239700,0.26523974609375,0.05237419158220291,-0.0006800061091780663,-0.035748738795518875
1772701782500288800,0.275288818359375,0.043222155421972275,0.028638223186135292,-0.04824730381369591
1772701782510336500,0.28533642578125,0.027628546580672264,0.04263020306825638,-0.057728689163923264
1772701782520385800,0.2953857421875,0.016038110479712486,0.06645906716585159,-0.06331690400838852
1772701782530434600,0.3054345703125,0.0011643558973446488,0.08192670345306396,-0.06108250468969345
1772701782540482800,0.31548291015625,-0.011941253207623959,0.07466720044612885,-0.05145436152815819
1772701782550531600,0.325531494140625,-0.03428623825311661,0.055945709347724915,-0.04664815589785576
1772701782560580600,0.33558056640625,-0.05421575531363487,0.028527164831757545,-0.05248746648430824
1772701782570628600,0.345628662109375,-0.09826629608869553,-0.023509137332439423,-0.06611166149377823
1772701782580677600,0.355677734375,-0.1476098746061325,-0.09268048405647278,-0.08706994354724884
1772701782590726700,0.3657265625,-0.19686424732208252,-0.1314433217048645,-0.10779226571321487
1772701782600774700,0.375774658203125,-0.23733584582805634,-0.14695465564727783,-0.12030994147062302
1772701782610823700,0.38582373046875,-0.26203054189682007,-0.11431920528411865,-0.11757487058639526
1772701782620872700,0.395872802734375,-0.27671554684638977,-0.08964449912309647,-0.1151956245303154
1772701782630920700,0.405920654296875,-0.2919067442417145,-0.11811742186546326,-0.11867132037878036
1772701782640969700,0.4159697265625,-0.30787718296051025,-0.15324878692626953,-0.1268879771232605
1772701782651018500,0.4260185546875,-0.3324459195137024,-0.2095554620027542,-0.1305631399154663
1772701782661066800,0.436066650390625,-0.3556152880191803,-0.2603176534175873,-0.10803573578596115
1772701782671115500,0.446115478515625,-0.36625808477401733,-0.340504914522171,-0.07058024406433105
1772701782681163800,0.456163818359375,-0.37531983852386475,-0.4041003882884979,-0.00453014113008976
1772701782691212500,0.466212646484375,-0.39181384444236755,-0.4396274983882904,0.07636470347642899
1772701782701261800,0.47626171875,-0.4185309410095215,-0.4551231563091278,0.13023145496845245
1772701782711309600,0.4863095703125,-0.4421830177307129,-0.5002032518386841,0.13117875158786774
1772701782721358800,0.49635888671875,-0.4504464566707611,-0.5484634637832642,0.11477050185203552
1772701782731407600,0.50640771484375,-0.4624338746070862,-0.5446497797966003,0.11607065796852112
1772701782741455600,0.51645556640625,-0.4853673279285431,-0.5494818091392517,0.1060362383723259
1772701782751504600,0.526504638671875,-0.5200304985046387,-0.5914670825004578,0.08676693588495255
1772701782761553700,0.5365537109375,-0.5758283734321594,-0.629244863986969,0.07090902328491211
1772701782771601700,0.5466015625,-0.6553048491477966,-0.49672624468803406,0.20861680805683136
1772701782781650700,0.556650634765625,-0.793375551700592,-0.5866013169288635,0.1880606859922409
1772701782791699700,0.56669970703125,-0.9267259240150452,-0.6904275417327881,0.14024442434310913
1772701782801747500,0.57674755859375,-1.0093008279800415,-0.6392149329185486,0.1479398012161255
1772701782811796700,0.586796630859375,-1.0364680290222168,-0.46412885189056396,0.16110913455486298
1772701782821845800,0.596845703125,-1.0079312324523926,-0.2875839173793793,0.18978790938854218
1772701782831893800,0.606893798828125,-0.958291232585907,-0.3354046940803528,0.18940362334251404
1772701782841942800,0.61694287109375,-0.9435237050056458,-0.6504401564598083,0.13303807377815247
1772701782851991600,0.626991455078125,-0.9559623003005981,-1.0613549947738647,0.024193361401557922
1772701782862039600,0.63703955078125,-0.9789947867393494,-1.3501468896865845,-0.12623827159404755
1772701782872088600,0.647088623046875,-1.0000643730163574,-1.3242449760437012,-0.38262876868247986
1772701782882136600,0.657136474609375,-0.9713866114616394,-0.9515054225921631,-0.6611872315406799
1772701782892185600,0.667185546875,-0.9307488799095154,-0.6406589150428772,-0.776690661907196
1772701782902234600,0.677234619140625,-0.900689423084259,-0.6955147385597229,-0.7229342460632324
1772701782912282600,0.68728271484375,-0.8255288600921631,-0.9415002465248108,-0.5288355946540833
1772701782922331600,0.69733154296875,-0.6863725781440735,-1.0606029033660889,-0.21756593883037567
1772701782932380700,0.707380615234375,-0.47218915820121765,-0.9614171981811523,0.10558388382196426
1772701782942428700,0.7174287109375,-0.2175733596086502,-0.7016298770904541,0.31904304027557373
1772701782952477700,0.727477783203125,0.0013280909042805433,-0.4279913902282715,0.40247642993927
1772701782962526500,0.7375263671875,0.16550476849079132,-0.2560685873031616,0.39392679929733276
1772701782972574700,0.74757470703125,0.2874477207660675,-0.1367933303117752,0.31794947385787964
1772701782982623500,0.75762353515625,0.38070815801620483,0.0346154049038887,0.2243032306432724
1772701782992672800,0.7676728515625,0.47042766213417053,0.21675218641757965,0.15793485939502716
1772701783002720500,0.777720458984375,0.5278033018112183,0.32626083493232727,0.1216648519039154
1772701783012769800,0.787769775390625,0.5702466368675232,0.5009974837303162,0.09138817340135574
1772701783022818600,0.797818603515625,0.5575014352798462,0.6800415515899658,0.036947138607501984
1772701783032866800,0.80786669921875,0.5636085867881775,0.7598772644996643,-0.07902180403470993
1772701783042915600,0.81791552734375,0.4663861393928528,0.7156767249107361,-0.24915745854377747
1772701783052964600,0.827964599609375,0.32212111353874207,0.44385188817977905,-0.4914236068725586
1772701783063012600,0.8380126953125,0.18710215389728546,0.22512230277061462,-0.6183736324310303
1772701783073061600,0.8480615234375,0.020486537367105484,0.06617153435945511,-0.6687758564949036
1772701783083110700,0.858110595703125,-0.12171471118927002,-0.044671956449747086,-0.6872170567512512
1772701783093158700,0.86815869140625,-0.16708138585090637,-0.03952513262629509,-0.6665865778923035
1772701783103207700,0.878207763671875,-0.12310301512479782,0.08756358176469803,-0.626124918460846
1772701783113256700,0.888256591796875,-0.05252871289849281,0.315378874540329,-0.6396255493164062
1772701783123304700,0.8983046875,0.048051618039608,0.5460035800933838,-0.6690513491630554
1772701783133353700,0.908353759765625,0.1409248411655426,0.7035481929779053,-0.6800217032432556
1772701783143402500,0.918402587890625,0.19110260903835297,0.8125287294387817,-0.6627201437950134
1772701783153450800,0.92845068359375,0.2610768675804138,0.9096249341964722,-0.620317280292511
1772701783163499500,0.93849951171875,0.3316726088523865,0.9361076951026917,-0.5407296419143677
1772701783173547800,0.9485478515625,0.36296820640563965,1.063029408454895,-0.4486822783946991
1772701783183596500,0.958596435546875,0.3761332631111145,1.3145028352737427,-0.3469521999359131
1772701783193645800,0.968645751953125,0.36824312806129456,1.5303068161010742,-0.2108960747718811
1772701783203693600,0.978693603515625,0.3271948993206024,1.5852552652359009,-0.07335441559553146
1772701783213742800,0.988742919921875,0.3037082254886627,1.474045991897583,0.062085166573524475
1772701783223792000,0.998792236328125,0.32532110810279846,1.108994722366333,0.15488867461681366
1772701783233839900,1.00883984375,0.35166165232658386,0.6069313883781433,0.13585692644119263
1772701783243889200,1.01888916015625,0.33239951729774475,0.23871764540672302,0.09741126000881195
1772701783253938000,1.02893798828125,0.2957831919193268,0.0012020310387015343,0.02785961702466011
1772701783263986200,1.038986083984375,0.2716168165206909,-0.16512355208396912,-0.048560142517089844
1772701783274035000,1.049034912109375,0.23596720397472382,-0.2316133677959442,-0.1127156913280487
1772701783284084000,1.059083984375,0.22157186269760132,-0.1472790688276291,-0.12475182116031647
1772701783294132000,1.069132080078125,0.2648836672306061,0.09094361960887909,-0.0926455482840538
1772701783304181000,1.079180908203125,0.3383904993534088,0.39963462948799133,-0.014631013385951519
1772701783314230000,1.08922998046875,0.38118776679039,0.6807535886764526,0.06236124038696289
1772701783324278000,1.099278076171875,0.4227522015571594,0.8003515005111694,0.11124742031097412
1772701783334327000,1.1093271484375,0.4610244929790497,0.6875165104866028,0.15140683948993683
1772701783344376000,1.1193759765625,0.49861404299736023,0.38773348927497864,0.20104171335697174
1772701783354424000,1.129424072265625,0.5376320481300354,0.057975273579359055,0.25061431527137756
1772701783364473000,1.13947314453125,0.5667300224304199,-0.22926712036132812,0.29887381196022034
1772701783374521000,1.14952099609375,0.5929046273231506,-0.4349089562892914,0.36661475896835327
1772701783384570000,1.159570068359375,0.6017940044403076,-0.46723759174346924,0.4570458233356476
1772701783394619000,1.169618896484375,0.6115656495094299,-0.23312655091285706,0.5302385091781616
1772701783404667000,1.1796669921875,0.5208195447921753,0.4650903344154358,0.5686507225036621
1772701783414716000,1.1897158203125,0.35218068957328796,1.4957376718521118,0.5272420644760132
1772701783424765200,1.19976513671875,0.3829606771469116,2.423891305923462,0.4776553213596344
1772701783434813000,1.20981298828125,0.6892508268356323,2.9469261169433594,0.6219267249107361
1772701783444862000,1.219862060546875,0.8347728848457336,2.4395925998687744,0.8628679513931274
1772701783454911000,1.229910888671875,0.29960691928863525,1.0823050737380981,0.787656307220459
1772701783464959000,1.239958984375,0.38969913125038147,0.3815067410469055,0.8296993970870972
1772701783475008000,1.250008056640625,1.0089945793151855,-0.5303276777267456,1.9236600399017334
1772701783485057000,1.26005712890625,0.8300900459289551,-1.3801110982894897,2.428532123565674
1772701783495105000,1.27010498046875,0.13187792897224426,-2.019087076187134,1.7816280126571655
1772701783505153800,1.28015380859375,-0.027770882472395897,-0.5888531804084778,1.5785411596298218
1772701783515203000,1.290203125,-0.18552881479263306,0.5976473689079285,1.6254684925079346
1772701783525250800,1.300250732421875,-0.5224681496620178,0.6098917722702026,1.4524261951446533
1772701783535300000,1.310300048828125,-0.935803234577179,-0.07264421880245209,1.2533797025680542
1772701783545349000,1.32034912109375,-1.1074092388153076,-0.9019309878349304,1.0744755268096924
1772701783555397000,1.330397216796875,-0.8934606313705444,-1.4484808444976807,0.9625887274742126
1772701783565446000,1.34044580078125,-0.9075024127960205,-1.999714732170105,1.1323660612106323
1772701783575495000,1.350494873046875,-0.9170258641242981,-2.3391435146331787,1.3771851062774658
1772701783585543000,1.36054296875,-0.7117444276809692,-2.260042905807495,1.5461128950119019
1772701783595592000,1.370592041015625,-0.49311381578445435,-1.9214367866516113,1.6296637058258057
1772701783605641000,1.380640869140625,-0.34896332025527954,-1.8824392557144165,1.5854874849319458
1772701783615689000,1.39068896484375,-0.22021201252937317,-2.1442134380340576,1.4684112071990967
1772701783625738000,1.400738037109375,-0.1535046249628067,-2.3537118434906006,1.3846989870071411
1772701783635787000,1.410787109375,-0.10767827183008194,-2.184401750564575,1.3626184463500977
1772701783645835000,1.4208349609375,-0.05578366294503212,-1.532344102859497,1.3192065954208374
1772701783655884000,1.430884033203125,0.023490916937589645,-0.5919179916381836,1.2131110429763794
1772701783665932800,1.440932861328125,0.1298498511314392,0.17218045890331268,0.9601284861564636
1772701783675981000,1.45098095703125,0.16606563329696655,0.36974385380744934,0.5218978524208069
1772701783686029800,1.46102978515625,0.16817593574523926,0.13318964838981628,-0.0029584248550236225
1772701783696079000,1.4710791015625,0.20500798523426056,-0.019702695310115814,-0.472425252199173
1772701783706126800,1.481126953125,0.22614912688732147,-0.15302643179893494,-0.9338797926902771
1772701783716176100,1.491176025390625,0.22478851675987244,-0.052294228225946426,-1.2848436832427979
1772701783726224000,1.501223876953125,0.2696782946586609,0.2709749639034271,-1.4907197952270508
1772701783736273200,1.511273193359375,0.2972838282585144,0.7000973224639893,-1.5024676322937012
1772701783746322000,1.521322021484375,0.29268473386764526,1.0188478231430054,-1.3526954650878906
1772701783756370200,1.5313701171875,0.2738516330718994,1.1561622619628906,-1.0687370300292969
1772701783766419000,1.5414189453125,0.2255220264196396,1.0378361940383911,-0.7492207288742065
1772701783776468000,1.551468017578125,0.20495310425758362,0.7823053598403931,-0.4736573100090027
1772701783786516000,1.561515869140625,0.11402440071105957,0.5369581580162048,-0.322196364402771
1772701783796565000,1.57156494140625,-0.0617293119430542,0.35008174180984497,-0.284872442483902
1772701783806614000,1.581614013671875,-0.25542914867401123,0.27731430530548096,-0.28469112515449524
1772701783816662000,1.591662109375,-0.40823042392730713,0.42042192816734314,-0.25045114755630493
1772701783826711000,1.6017109375,-0.51590496301651,0.7820964455604553,-0.18773041665554047
1772701783836760000,1.611760009765625,-0.5738010406494141,1.1430429220199585,-0.10279581695795059
1772701783846808000,1.62180810546875,-0.5834989547729492,1.1880059242248535,-0.0050591519102454185
1772701783856857000,1.631857177734375,-0.6150305271148682,1.0374760627746582,0.031087933108210564
1772701783866905900,1.64190576171875,-0.6492208242416382,0.8567153811454773,0.11082107573747635
1772701783876954000,1.6519541015625,-0.6403194665908813,0.7260428667068481,0.23172006011009216
1772701783887003000,1.6620029296875,-0.6658951044082642,0.5903012752532959,0.33784937858581543
1772701783897052200,1.67205224609375,-0.7269824147224426,0.2144075483083725,0.31193017959594727
1772701783907100000,1.682099853515625,-0.7709780931472778,-0.07806189358234406,0.25117114186286926
1772701783917149200,1.692149169921875,-0.7705977559089661,-0.16306999325752258,0.18311621248722076
1772701783927198000,1.702197998046875,-0.7657569646835327,-0.15721899271011353,0.1078706607222557
1772701783937246200,1.71224609375,-0.7278796434402466,-0.12733620405197144,0.07622112333774567
1772701783947295000,1.722294921875,-0.686438798904419,-0.12395825982093811,0.09560569375753403
1772701783957343000,1.732343017578125,-0.7243657112121582,-0.2006532996892929,0.14379507303237915
1772701783967392000,1.74239208984375,-0.8607648015022278,-0.41530942916870117,0.17812328040599823
1772701783977441000,1.75244091796875,-1.0297898054122925,-0.8942710161209106,0.18865928053855896
1772701783987489000,1.762489013671875,-1.1698552370071411,-1.6253060102462769,0.19866858422756195
1772701783997538000,1.7725380859375,-1.211044430732727,-2.396707057952881,0.23075541853904724
1772701784007587000,1.782587158203125,-1.0787997245788574,-2.8319272994995117,0.27323272824287415
1772701784017635000,1.792635009765625,-0.799032986164093,-2.5345375537872314,0.39683616161346436
1772701784027684000,1.80268408203125,-0.5165942311286926,-1.6257002353668213,0.6077489852905273
1772701784037733000,1.812733154296875,-0.41044244170188904,-0.6957605481147766,0.7497159838676453
1772701784047780900,1.82278076171875,-0.4750921130180359,-0.44844743609428406,0.784360408782959
1772701784057830100,1.832830078125,-0.6395135521888733,-0.7917606234550476,0.7217556238174438
1772701784067879000,1.84287890625,-0.8789767622947693,-1.2957252264022827,0.5410802960395813
1772701784077927200,1.85292724609375,-1.0338598489761353,-1.5234944820404053,0.3938990533351898
1772701784087976000,1.862975830078125,-1.0132689476013184,-1.3693506717681885,0.3655289113521576
1772701784098025000,1.87302490234375,-0.8559573888778687,-1.1153603792190552,0.4266758859157562
1772701784108073000,1.883072998046875,-0.635488748550415,-0.884314775466919,0.5668619871139526
1772701784118122000,1.8931220703125,-0.4312344193458557,-0.6704427003860474,0.7443485856056213
1772701784128171000,1.9031708984375,-0.2679784297943115,-0.4515164792537689,0.8684042692184448
1772701784138219000,1.913218994140625,-0.13771440088748932,-0.27276191115379333,0.8736522793769836
1772701784148268000,1.92326806640625,-0.02731083147227764,-0.09775333851575851,0.7217127084732056
1772701784158317000,1.933317138671875,0.08957744389772415,0.07652365416288376,0.45357075333595276
1772701784168365000,1.943364990234375,0.20588217675685883,0.2263999581336975,0.1569000482559204
1772701784178414000,1.9534140625,0.340264230966568,0.36418235301971436,-0.12913036346435547
1772701784188462800,1.963462890625,0.4574170410633087,0.587979793548584,-0.42709967494010925
1772701784198511000,1.973510986328125,0.5855653882026672,0.7966160774230957,-0.7406464219093323
1772701784208559600,1.9835595703125,0.6812942624092102,0.8773694634437561,-1.087139368057251
1772701784218608600,1.993608642578125,0.7432519197463989,0.8808717727661133,-1.3931804895401
1772701784228656600,2.00365673828125,0.7400000095367432,0.8475058674812317,-1.6512705087661743
1772701784238705400,2.013705322265625,0.6461696028709412,0.8405835032463074,-1.8886642456054688
1772701784248754400,2.02375439453125,0.45739269256591797,0.9263639450073242,-2.0474376678466797
1772701784258802400,2.033802490234375,0.2511657476425171,1.0877424478530884,-2.107224225997925
1772701784268851500,2.0438515625,0.06692200154066086,1.2248814105987549,-2.0910117626190186
1772701784278900700,2.053900634765625,-0.12293102592229843,1.3206459283828735,-1.938801884651184
1772701784288948500,2.063948486328125,-0.22689566016197205,1.333297610282898,-1.7075062990188599
1772701784298997500,2.07399755859375,-0.2025676965713501,1.2574148178100586,-1.354527473449707
1772701784309045500,2.08404541015625,-0.05634300410747528,1.0622801780700684,-0.8929202556610107
1772701784319094500,2.094094482421875,0.1497022956609726,0.666447103023529,-0.4594785273075104
1772701784329143600,2.1041435546875,0.3103640079498291,0.26268234848976135,-0.16037100553512573
1772701784339191600,2.114191650390625,0.4120727777481079,0.09281713515520096,0.13266991078853607
1772701784349240600,2.124240478515625,0.5182592868804932,0.04988991096615791,0.4158790409564972
1772701784359289300,2.134289306640625,0.5939233899116516,0.08749215304851532,0.6767966747283936
1772701784369337600,2.144337646484375,0.6315237283706665,0.12376760691404343,0.8914108872413635
1772701784379386400,2.154386474609375,0.6505738496780396,0.14094020426273346,1.0805644989013672
1772701784389435600,2.164435546875,0.6650988459587097,0.14780262112617493,1.2499216794967651
1772701784399483400,2.1744833984375,0.677929699420929,0.13539256155490875,1.4100512266159058
1772701784409532700,2.18453271484375,0.6877723336219788,0.09019848704338074,1.5513859987258911
1772701784419581400,2.19458154296875,0.6992273330688477,-0.011166222393512726,1.6824270486831665
1772701784429629400,2.20462939453125,0.7148976922035217,-0.18040397763252258,1.7896692752838135
1772701784439678500,2.214678466796875,0.7792567610740662,-0.3974135220050812,1.9086697101593018
1772701784449727500,2.2247275390625,0.8769702911376953,-0.539578914642334,2.022676944732666
1772701784459775500,2.234775390625,0.945589005947113,-0.5582623481750488,2.038985252380371
1772701784469824500,2.244824462890625,0.9053017497062683,-0.2386217713356018,1.8600796461105347
1772701784479873500,2.25487353515625,0.8076263666152954,0.2024879902601242,1.5504581928253174
1772701784489921500,2.264921630859375,0.6675044298171997,0.44521060585975647,1.1175862550735474
1772701784499970600,2.274970458984375,0.44162148237228394,0.5286644697189331,0.48444104194641113
1772701784510019600,2.28501953125,0.17642773687839508,0.6943213939666748,-0.5359517931938171
1772701784520067300,2.2950673828125,0.18244993686676025,0.5975743532180786,-1.6165450811386108
1772701784530116600,2.30511669921875,0.45739513635635376,-0.019948557019233704,-2.0622775554656982
1772701784540165400,2.315165283203125,0.9389620423316956,-0.9855226278305054,-1.7555863857269287
1772701784550213600,2.325213623046875,1.4085427522659302,-0.9123115539550781,-1.0679455995559692
1772701784560262400,2.335262451171875,1.6561166048049927,0.31899410486221313,-0.8294438123703003
1772701784570311400,2.3453115234375,1.723214030265808,0.5275771021842957,-1.1506267786026
1772701784580359400,2.355359375,1.860108494758606,0.9044676423072815,-1.2355104684829712
1772701784590408400,2.365408447265625,1.733931541442871,0.5895369052886963,-1.3049733638763428
1772701784600457500,2.37545751953125,1.4118679761886597,-0.11443723738193512,-1.254150152206421
1772701784610505500,2.38550537109375,1.1253188848495483,-0.28940850496292114,-0.9475038051605225
1772701784620554500,2.395554443359375,0.8561114072799683,-0.15561451017856598,-0.6002009510993958
1772701784630603500,2.405603515625,0.5540325045585632,0.12778523564338684,-0.3160128891468048
1772701784640651500,2.415651611328125,0.23319083452224731,0.38123324513435364,-0.020605744794011116
1772701784650700500,2.425700439453125,-0.08888645470142365,0.4732300043106079,0.27330347895622253
1772701784660749300,2.435749267578125,-0.34544339776039124,0.5728095769882202,0.5810365080833435
1772701784670797600,2.445797607421875,-0.5090519189834595,0.7619661688804626,0.8636895418167114
1772701784680846300,2.455846435546875,-0.5595467686653137,0.9064874053001404,1.0567694902420044
1772701784690895600,2.4658955078125,-0.5141040086746216,0.8210886716842651,1.2249191999435425
1772701784700943400,2.475943359375,-0.45876064896583557,0.4248901903629303,1.3336189985275269
1772701784710992600,2.48599267578125,-0.4433891773223877,-0.1509382724761963,1.3126977682113647
1772701784721040400,2.496040283203125,-0.4722282886505127,-0.6813768744468689,1.2296366691589355
1772701784731089700,2.506089599609375,-0.5048558712005615,-0.9141786098480225,1.0747815370559692
1772701784741138400,2.516138427734375,-0.548380434513092,-0.7351025938987732,0.8183349967002869
1772701784751186700,2.526186767578125,-0.5541557669639587,-0.2786403000354767,0.532469630241394
1772701784761235500,2.5362353515625,-0.501458466053009,0.24169768393039703,0.33703359961509705
1772701784771284500,2.546284423828125,-0.42885854840278625,0.7166551947593689,0.23383104801177979
1772701784781332500,2.55633251953125,-0.3571217954158783,1.1786730289459229,0.1797718107700348
1772701784791381500,2.566381591796875,-0.2727661430835724,1.531144380569458,0.11473356187343597
1772701784801430500,2.576430419921875,-0.20994722843170166,1.7712379693984985,0.04886559769511223
1772701784811478500,2.586478515625,-0.14359921216964722,1.9018417596817017,0.017832351848483086
1772701784821527600,2.596527587890625,-0.045864395797252655,1.868403673171997,0.008922213688492775
1772701784831576600,2.60657666015625,0.12666219472885132,1.6542620658874512,0.04301769286394119
1772701784841624600,2.61662451171875,0.3054548501968384,1.3053224086761475,0.12536662817001343
1772701784851673600,2.626673583984375,0.4607333540916443,0.8422349095344543,0.24787569046020508
1772701784861722400,2.636722412109375,0.5730029344558716,0.32854554057121277,0.35269930958747864
1772701784871770600,2.6467705078125,0.6044121980667114,-0.1448787897825241,0.33933454751968384
1772701784881819400,2.6568193359375,0.6156675219535828,-0.2758314609527588,0.32881611585617065
1772701784891868700,2.66686865234375,0.6055092811584473,0.4497246742248535,0.3480352759361267
1772701784901916400,2.67691650390625,0.5731455087661743,1.2959094047546387,0.302884042263031
1772701784911965700,2.686965576171875,0.467989981174469,1.7498831748962402,0.08523665368556976
1772701784922014500,2.697014404296875,0.3611500859260559,1.5793359279632568,-0.0932430773973465
1772701784932062500,2.7070625,0.3397991955280304,1.322837233543396,-0.047965891659259796
1772701784942111500,2.717111572265625,0.33089038729667664,1.0194392204284668,0.04966399446129799
1772701784952160500,2.727160400390625,0.3201901912689209,0.39873525500297546,0.13730379939079285
1772701784962208500,2.73720849609375,0.2856556475162506,0.012466900050640106,0.19732798635959625
1772701784972257500,2.747257568359375,0.25546684861183167,-0.2400234192609787,0.23284372687339783
1772701784982306600,2.757306640625,0.19708716869354248,-0.3621352016925812,0.2575621008872986
1772701784992354300,2.767354248046875,0.09354720264673233,-0.35577210783958435,0.23888403177261353
1772701785002403600,2.777403564453125,-0.01688636839389801,-0.2673887312412262,0.23247647285461426
1772701785012452600,2.78745263671875,-0.09668298065662384,-0.2585986852645874,0.3086007833480835
1772701785022500600,2.79750048828125,-0.12338703125715256,-0.5057357549667358,0.36811789870262146
1772701785032549600,2.807549560546875,-0.08761978894472122,-1.088877558708191,0.34657183289527893
1772701785042598400,2.817598388671875,-0.018084648996591568,-1.8904173374176025,0.24295862019062042
1772701785052646400,2.827646484375,0.09535490721464157,-2.6815335750579834,0.0684092789888382
1772701785062695400,2.8376953125,0.232533261179924,-3.343010663986206,-0.116315558552742
1772701785072744700,2.84774462890625,0.29982638359069824,-3.8353824615478516,-0.2651742696762085
1772701785082792400,2.85779248046875,0.25901955366134644,-3.9311981201171875,-0.24876359105110168
1772701785092841500,2.867841552734375,0.015641769394278526,-3.283518075942993,-0.09662260860204697
1772701785102890500,2.877890380859375,-0.38308510184288025,-2.4056203365325928,0.07129023224115372
1772701785112938500,2.8879384765625,-0.6494602560997009,-1.8757193088531494,0.17524351179599762
1772701785122987500,2.897987548828125,-0.7339982986450195,-1.8030052185058594,0.2542586922645569
1772701785133036500,2.90803662109375,-0.771510124206543,-1.9735239744186401,0.3006592392921448
1772701785143084500,2.91808447265625,-0.8221679329872131,-2.0927438735961914,0.3682822287082672
1772701785153133300,2.92813330078125,-0.8601293563842773,-1.9670175313949585,0.4278864860534668
1772701785163182600,2.9381826171875,-0.9026014804840088,-1.6965330839157104,0.3756997287273407
1772701785173230300,2.948230224609375,-0.9508050084114075,-1.4268348217010498,0.19440238177776337
1772701785183279600,2.958279541015625,-1.0013989210128784,-1.219766616821289,-0.02190009318292141
1772701785193328600,2.96832861328125,-1.041193962097168,-0.976213812828064,-0.23481842875480652
1772701785203376600,2.978376708984375,-1.0239646434783936,-0.6081247329711914,-0.37234994769096375
1772701785213425700,2.98842578125,-0.9295570254325867,-0.23018330335617065,-0.3705385625362396
1772701785223474400,2.998474365234375,-0.8099792003631592,0.15769651532173157,-0.22456085681915283
1772701785233522700,3.008522705078125,-0.666580319404602,0.6011576056480408,-0.0023330161347985268
1772701785243571500,3.018571533203125,-0.5172480940818787,0.9833247065544128,0.2146349847316742
1772701785253620700,3.028620849609375,-0.3741820156574249,1.205224871635437,0.37366390228271484
1772701785263668500,3.03866845703125,-0.24792876839637756,1.3495290279388428,0.47170764207839966
1772701785273717800,3.0487177734375,-0.12052256613969803,1.3839913606643677,0.5101110935211182
1772701785283766500,3.0587666015625,-0.040671948343515396,1.2843142747879028,0.47812893986701965
1772701785293814800,3.068814697265625,-0.03916178643703461,1.0704147815704346,0.3811909854412079
1772701785303863600,3.078863525390625,-0.07932678610086441,0.8319447636604309,0.2563116252422333
1772701785313912600,3.08891259765625,-0.12079070508480072,0.6331102252006531,0.14936165511608124
1772701785323960600,3.098960693359375,-0.19843916594982147,0.5523021817207336,0.04058350622653961
1772701785334009600,3.109009521484375,-0.2522597908973694,0.5464354753494263,-0.03399066999554634
1772701785344058600,3.11905859375,-0.3150656521320343,0.6208378076553345,-0.0517752580344677
1772701785354106600,3.129106689453125,-0.32800909876823425,0.893213152885437,-0.01678936369717121
1772701785364155600,3.13915576171875,-0.33105844259262085,1.2677843570709229,0.024038759991526604
1772701785374204700,3.14920458984375,-0.3465568721294403,1.6307698488235474,0.05313601344823837
1772701785384252700,3.159252685546875,-0.34817713499069214,1.934767723083496,0.06526963412761688
1772701785394301700,3.1693017578125,-0.34286531805992126,2.056335687637329,0.06679334491491318
1772701785404350500,3.1793505859375,-0.29792580008506775,1.9429006576538086,0.07732108980417252
1772701785414398500,3.1893984375,-0.21880705654621124,1.551479458808899,0.0915512815117836
1772701785424447500,3.199447509765625,-0.17658182978630066,1.009558081626892,0.09289058297872543
1772701785434496800,3.209496826171875,-0.1381186842918396,0.5502861738204956,0.11500177532434464
1772701785444544500,3.21954443359375,-0.10065360367298126,0.33553364872932434,0.18939292430877686
1772701785454593500,3.229593505859375,-0.10934703052043915,0.32767757773399353,0.27268362045288086
1772701785464642600,3.239642578125,-0.12275151908397675,0.29472389817237854,0.3079603612422943
1772701785474690600,3.249690673828125,-0.12696659564971924,0.1306031346321106,0.29729753732681274
1772701785484739600,3.259739501953125,-0.10771006345748901,-0.1291900873184204,0.24414774775505066
1772701785494788600,3.26978857421875,-0.06533654034137726,-0.3876709043979645,0.13099448382854462
1772701785504836600,3.279836669921875,0.012239478528499603,-0.4633518159389496,-0.00033850071486085653
1772701785514885600,3.2898857421875,0.0879618227481842,-0.3580978214740753,-0.13378186523914337
1772701785524934700,3.2999345703125,0.12705303728580475,-0.2692539691925049,-0.26251986622810364
1772701785534982400,3.309982421875,0.09387024492025375,-0.3232882022857666,-0.38825011253356934
1772701785545031400,3.320031494140625,0.017044169828295708,-0.4653071165084839,-0.5677921772003174
1772701785555080700,3.330080810546875,-0.08194062113761902,-0.6902675032615662,-0.816502034664154
1772701785565128400,3.34012841796875,-0.1933518350124359,-1.1445850133895874,-1.184367299079895
1772701785575177500,3.350177490234375,-0.2923263609409332,-1.8023420572280884,-1.6821154356002808
1772701785585226500,3.3602265625,-0.3051271140575409,-2.222928285598755,-2.1710638999938965
1772701785595274500,3.3702744140625,-0.13283656537532806,-1.9012649059295654,-2.351172685623169
1772701785605323500,3.380323486328125,0.2023366391658783,-0.7556824684143066,-2.1501638889312744
1772701785615372500,3.39037255859375,0.5408399105072021,0.4971902072429657,-1.5638734102249146
1772701785625420500,3.400420654296875,0.6564344167709351,0.8435091972351074,-0.8356239795684814
1772701785635469300,3.41046923828125,0.4545573890209198,0.22153621912002563,-0.2199074923992157
1772701785645518600,3.4205185546875,0.1589164286851883,-0.4509678781032562,-0.15675382316112518
1772701785655566300,3.43056640625,0.07803994417190552,-0.39361482858657837,-0.351744145154953
1772701785665615600,3.44061572265625,0.2015240639448166,0.598160982131958,-0.5973272919654846
1772701785675664600,3.45066455078125,0.35844552516937256,1.787273645401001,-0.6077845692634583
1772701785685712600,3.460712646484375,0.4100107252597809,2.4334402084350586,-0.37983933091163635
1772701785695761400,3.470761474609375,0.3284420669078827,2.2740259170532227,-0.010758009739220142
1772701785705810400,3.480810546875,0.20961502194404602,1.7552275657653809,0.48672980070114136
1772701785715858400,3.4908583984375,0.16028675436973572,1.243107795715332,0.9927346110343933
1772701785725907500,3.500907470703125,0.1697622835636139,0.8395573496818542,1.443766713142395
1772701785735956500,3.51095654296875,0.22350086271762848,0.6624504923820496,1.7963578701019287
1772701785746004500,3.52100439453125,0.33627164363861084,0.6065776348114014,2.093860626220703
1772701785756053500,3.531053466796875,0.46850505471229553,0.6715564131736755,2.303886890411377
1772701785766102500,3.5411025390625,0.6166090369224548,0.8618469834327698,2.349571943283081
1772701785776150500,3.551150634765625,0.811008870601654,1.133978009223938,2.1501729488372803
1772701785786199600,3.561199462890625,1.0182044506072998,1.3973431587219238,1.760502576828003
1772701785796248300,3.571248291015625,1.1601260900497437,1.586657166481018,1.2813230752944946
1772701785806296600,3.581296630859375,1.2191407680511475,1.6620358228683472,0.8082574009895325
1772701785816345300,3.591345458984375,1.2164039611816406,1.5967917442321777,0.38146689534187317
1772701785826394600,3.60139453125,1.170210361480713,1.3787190914154053,-0.022713065147399902
1772701785836442400,3.6114423828125,1.0757006406784058,1.0443192720413208,-0.2775525748729706
1772701785846491600,3.62149169921875,0.9426832795143127,0.6204493045806885,-0.3552343249320984
1772701785856540400,3.63154052734375,0.8002759218215942,0.1422041356563568,-0.326982706785202
1772701785866588700,3.641588623046875,0.6100194454193115,-0.3054519295692444,-0.23724907636642456
1772701785876637400,3.651637451171875,0.4599037170410156,-0.4079250395298004,-0.1328745186328888
1772701785886686500,3.6616865234375,0.29973775148391724,-0.25676271319389343,-0.04185008257627487
1772701785896734500,3.671734375,0.1486014574766159,-0.17032606899738312,-0.08050235360860825
1772701785906783500,3.681783447265625,-0.02419828437268734,-0.012045353651046753,-0.20231905579566956
1772701785916832500,3.69183251953125,-0.2267998903989792,0.2088763564825058,-0.39212334156036377
1772701785926880500,3.701880615234375,-0.4716932475566864,0.45276546478271484,-0.6202039122581482
1772701785936929500,3.711929443359375,-0.7241920232772827,0.6894272565841675,-0.8477731347084045
1772701785946978600,3.721978515625,-0.9358717799186707,0.807978630065918,-1.0568748712539673
1772701785957026600,3.732026611328125,-1.1076064109802246,0.654848039150238,-1.1912933588027954
1772701785967075600,3.74207568359375,-1.1960922479629517,0.2946719527244568,-1.1113317012786865
1772701785977124400,3.752124267578125,-1.184687852859497,-0.03611714765429497,-0.8103936314582825
1772701785987172600,3.762172607421875,-1.1220097541809082,-0.07933865487575531,-0.4839414954185486
1772701785997221400,3.772221435546875,-1.0694524049758911,0.2809886336326599,-0.27508029341697693
1772701786007270700,3.782270751953125,-1.0213186740875244,0.9350103735923767,-0.16696663200855255
1772701786017318400,3.792318359375,-0.9286311268806458,1.6573371887207031,-0.11242856830358505
1772701786027367700,3.80236767578125,-0.7877909541130066,1.7848296165466309,-0.11170632392168045
1772701786037416400,3.81241650390625,-0.6321033835411072,1.3433513641357422,-0.2268214076757431
1772701786047464700,3.822464599609375,-0.3639957904815674,0.7180245518684387,-0.36955857276916504
1772701786057513500,3.832513427734375,-0.08586471527814865,0.04684165120124817,-0.3876822292804718
1772701786067562500,3.8425625,0.13507752120494843,-0.5284669399261475,-0.3007510304450989
1772701786077610500,3.852610595703125,0.29977625608444214,-0.8960183262825012,-0.20055626332759857
1772701786087659500,3.862659423828125,0.41127854585647583,-1.029399037361145,-0.01930445246398449
1772701786097708500,3.87270849609375,0.5288078188896179,-1.0187220573425293,0.2152700275182724
1772701786107756500,3.882756591796875,0.5979570150375366,-0.97463059425354,0.3926490843296051
1772701786117805600,3.8928056640625,0.5618049502372742,-0.8523818850517273,0.39845186471939087
1772701786127854600,3.9028544921875,0.4281406104564667,-0.7225990891456604,0.16358688473701477
1772701786137902600,3.912902587890625,0.15300352871418,-0.8771077394485474,-0.07897418737411499
1772701786147951600,3.92295166015625,-0.1900707483291626,-1.6352297067642212,-0.07661250233650208
1772701786158000400,3.93300048828125,-0.3947179913520813,-2.6985440254211426,0.062108274549245834
1772701786168048600,3.943048583984375,-0.37875261902809143,-3.373427152633667,0.22101324796676636
1772701786178097400,3.953097412109375,-0.44979825615882874,-3.3818116188049316,0.3608675003051758
1772701786188146700,3.963146728515625,-0.5706719160079956,-2.8847367763519287,0.5004112720489502
1772701786198194400,3.9731943359375,-0.6375792622566223,-2.0798799991607666,0.624381422996521
1772701786208244000,3.983243896484375,-0.6626659631729126,-1.2557799816131592,0.7280833125114441
1772701786218292700,3.993292724609375,-0.7009158730506897,-0.6840450763702393,0.7319318056106567
1772701786228341000,4.003341064453125,-0.8053602576255798,-0.4627470374107361,0.649948000907898
1772701786238389800,4.0133896484375,-0.8930525779724121,-0.4415876865386963,0.5706800222396851
1772701786248438800,4.023438720703125,-0.9745796918869019,-0.28349897265434265,0.5605655908584595
1772701786258486800,4.03348681640625,-1.0557843446731567,0.037305139005184174,0.6421689987182617
1772701786268535800,4.043535888671875,-1.107179880142212,0.3522971570491791,0.7834848761558533
1772701786278584800,4.053584716796875,-1.053040623664856,0.5096575617790222,0.9449958205223083
1772701786288632800,4.0636328125,-0.8882057070732117,0.4818357229232788,1.054927945137024
1772701786298681900,4.073681884765625,-0.6535245776176453,0.4061037003993988,1.0742040872573853
1772701786308731000,4.08373095703125,-0.3942258358001709,0.3593180775642395,0.9836429953575134
1772701786318779000,4.09377880859375,-0.17685474455356598,0.38058313727378845,0.7642069458961487
1772701786328828000,4.103827880859375,-0.008096872828900814,0.4588627517223358,0.4672759175300598
1772701786338876700,4.113876708984375,0.14083360135555267,0.6013323068618774,0.12655524909496307
1772701786348924700,4.123924560546875,0.23364421725273132,0.7976826429367065,-0.22662225365638733
1772701786358973700,4.1339736328125,0.26751908659935,0.9447498917579651,-0.5344098806381226
1772701786369022700,4.144022705078125,0.24253012239933014,1.026220679283142,-0.8073058724403381
1772701786379070700,4.15407080078125,0.18717169761657715,0.98026043176651,-1.0155906677246094
1772701786389119700,4.16411962890625,0.14135147631168365,0.8560900092124939,-1.1799663305282593
1772701786399168800,4.174168701171875,0.09294532239437103,0.6597591042518616,-1.289508581161499
1772701786409216800,4.184216796875,0.020433038473129272,0.5121302604675293,-1.3513352870941162
1772701786419265800,4.194265869140625,-0.013438676483929157,0.4205111265182495,-1.3673081398010254
1772701786429314800,4.204314697265625,-0.02520878240466118,0.38197386264801025,-1.3243694305419922
1772701786439362800,4.21436279296875,-0.006170075386762619,0.36527714133262634,-1.2426881790161133
1772701786449411800,4.224411865234375,0.0955435037612915,0.3473135828971863,-1.118034839630127
1772701786459460600,4.234460693359375,0.2299855500459671,0.36048078536987305,-0.980408251285553
1772701786469508600,4.244508544921875,0.3979734778404236,0.31563690304756165,-0.8158568739891052
1772701786479557600,4.2545576171875,0.6468565464019775,0.11900931596755981,-0.5852458477020264
1772701786489607000,4.26460693359375,0.8503372073173523,-0.256386399269104,-0.3441131114959717
1772701786499654700,4.274654541015625,1.005403995513916,-0.6395257711410522,-0.11859811097383499
1772701786509704000,4.284703857421875,1.1104681491851807,-0.9433684945106506,0.0949019193649292
1772701786519752700,4.294752685546875,1.1792749166488647,-1.1162153482437134,0.25737541913986206
1772701786529800700,4.30480078125,1.20927095413208,-1.1956590414047241,0.34992825984954834
1772701786539849700,4.314849609375,1.187144160270691,-1.1347475051879883,0.34855762124061584
1772701786549898800,4.324898681640625,1.1189196109771729,-0.9104059934616089,0.2787036895751953
1772701786559946800,4.33494677734375,1.066501498222351,-0.5834974050521851,0.19805040955543518
1772701786569995500,4.34499560546875,1.0132001638412476,-0.30020150542259216,0.15098462998867035
1772701786580044800,4.355044921875,0.9247093200683594,-0.14654165506362915,0.14903482794761658
1772701786590092500,4.365092529296875,0.7800195217132568,-0.056506041437387466,0.14115959405899048
1772701786600141800,4.375141845703125,0.47588589787483215,0.12624859809875488,-0.007865597493946552
1772701786610190800,4.38519091796875,-0.007511127274483442,0.3950771391391754,-0.2505336403846741
1772701786620238800,4.39523876953125,-0.5137779116630554,0.49115970730781555,-0.5578069686889648
1772701786630287600,4.40528759765625,-0.9560882449150085,-0.04373298957943916,-0.8507634401321411
1772701786640336600,4.415336669921875,-1.085495114326477,-1.713616132736206,-0.9658052921295166
1772701786650384600,4.425384521484375,-0.5103608965873718,-2.7343478202819824,-0.640906035900116
1772701786660433700,4.43543359375,-0.4823972284793854,-0.5028704404830933,-0.024518422782421112
1772701786670483000,4.44548291015625,-0.5216202139854431,1.2945208549499512,0.22202424705028534
1772701786680530700,4.45553076171875,-0.3849000930786133,0.9944173097610474,0.09835667908191681
1772701786690579700,4.465579833984375,-0.10327322781085968,0.9354072213172913,0.020600367337465286
1772701786700628700,4.475628662109375,0.26112794876098633,0.7659828066825867,-0.06120585650205612
1772701786710676700,4.4856767578125,0.7005612254142761,0.4595043361186981,-0.3125813603401184
1772701786720725800,4.495725830078125,0.7668880820274353,0.43836572766304016,-0.48835521936416626
1772701786730774500,4.5057744140625,0.7132874131202698,0.42614635825157166,-0.49269670248031616
1772701786740823800,4.51582373046875,0.7380856871604919,0.3018300235271454,-0.374371200799942
1772701786750871600,4.52587158203125,0.7897552847862244,0.2015630602836609,-0.16169194877147675
1772701786760920800,4.5359208984375,0.8279610276222229,0.12294042110443115,0.07429356127977371
1772701786770969900,4.545969970703125,0.8108166456222534,0.17878317832946777,0.25156769156455994
1772701786781017900,4.556017822265625,0.7754930257797241,0.2701178789138794,0.39050427079200745
1772701786791066600,4.566066650390625,0.7353242635726929,0.3646704852581024,0.471643328666687
1772701786801115600,4.57611572265625,0.7142011523246765,0.4133589267730713,0.4483538269996643
1772701786811163600,4.58616357421875,0.6590606570243835,0.486075758934021,0.29979926347732544
1772701786821212700,4.596212646484375,0.5461535453796387,0.5339944958686829,0.032244302332401276
1772701786831262000,4.606261962890625,0.3957033157348633,0.5186824202537537,-0.2801594138145447
1772701786841309700,4.616309814453125,0.2237967699766159,0.35737743973731995,-0.552646815776825
1772701786851358700,4.626358642578125,0.09315594285726547,0.03125925362110138,-0.7387205362319946
1772701786861407700,4.63640771484375,0.028076428920030594,-0.42511284351348877,-0.803331732749939
1772701786871455700,4.646455810546875,-0.0061188251711428165,-0.7867719531059265,-0.7605794668197632
1772701786881504800,4.6565048828125,0.011677518486976624,-0.7687250375747681,-0.6628674864768982
1772701786891553500,4.666553466796875,0.011643962934613228,-0.3991507589817047,-0.6078932285308838
1772701786901601800,4.676601806640625,-0.01710493490099907,0.2238505333662033,-0.5631229877471924
1772701786911650600,4.686650634765625,-0.003677276661619544,0.8802592754364014,-0.5162729620933533
1772701786921699800,4.696699951171875,0.03602124750614166,1.432672381401062,-0.47741588950157166
1772701786931747600,4.70674755859375,0.07646161317825317,1.751779556274414,-0.4684056043624878
1772701786941796900,4.716796875,0.08889321237802505,1.662977933883667,-0.46176600456237793
1772701786951845600,4.726845703125,0.04866403341293335,1.0807297229766846,-0.4627351462841034
1772701786961894000,4.736893798828125,-0.02706070803105831,0.04287438094615936,-0.48444119095802307
1772701786971942700,4.746942626953125,-0.06741426140069962,-1.2534816265106201,-0.48102834820747375
1772701786981991700,4.75699169921875,0.023140588775277138,-2.0952553749084473,-0.3640502095222473
1772701786992039700,4.767039794921875,0.20970061421394348,-1.8687653541564941,-0.2704632580280304
1772701787002088700,4.777088623046875,0.3296089172363281,-0.5825426578521729,-0.27235308289527893
1772701787012137700,4.7871376953125,0.3637937903404236,0.9334937334060669,-0.30816566944122314
1772701787022185700,4.797185791015625,0.32456958293914795,1.8030611276626587,-0.39661890268325806
1772701787032234800,4.80723486328125,0.2929706275463104,2.1141068935394287,-0.4410153925418854
1772701787042283800,4.81728369140625,0.29938921332359314,1.7492841482162476,-0.32750222086906433
1772701787052331800,4.827331787109375,0.2862752676010132,0.9717119932174683,-0.13471654057502747
1772701787062380800,4.837380859375,0.17604568600654602,0.3124682903289795,0.026796549558639526
1772701787072429600,4.8474296875,0.11498367041349411,-0.03455490618944168,0.08392668515443802
1772701787082477800,4.857477783203125,0.09381203353404999,-0.21596679091453552,0.08394456654787064
1772701787092526600,4.867526611328125,0.08543585985898972,-0.25693073868751526,0.05485006049275398
1772701787102575900,4.877575927734375,0.12754970788955688,-0.15498119592666626,-0.012524590827524662
1772701787112623600,4.88762353515625,0.20066973567008972,-0.04824996367096901,-0.0909312441945076
1772701787122673000,4.8976728515625,0.25597256422042847,-0.07183250784873962,-0.15984469652175903
1772701787132721700,4.9077216796875,0.2608647644519806,-0.2590426206588745,-0.17021024227142334
1772701787142770000,4.91777001953125,0.24614524841308594,-0.5361746549606323,-0.07874879986047745
1772701787152818700,4.927818603515625,0.20820187032222748,-0.7697418332099915,0.06544619798660278
1772701787162867700,4.93786767578125,0.16997501254081726,-1.0190140008926392,0.1671435385942459
1772701787172915700,4.947915771484375,0.15652018785476685,-1.2335253953933716,0.1817837357521057
1772701787182964700,4.95796484375,0.17074386775493622,-1.4223688840866089,0.11530661582946777
1772701787193013800,4.968013671875,0.1809491068124771,-1.5583152770996094,0.0006186565733514726
1772701787203061800,4.978061767578125,0.15271715819835663,-1.7046148777008057,0.002515037776902318
1772701787213111000,4.988111083984375,0.10061987489461899,-1.9496030807495117,0.32505661249160767
1772701787223159800,4.998159912109375,0.04988151788711548,-1.9660847187042236,0.8403183221817017
1772701787233208000,5.0082080078125,-0.02490457519888878,-1.5666166543960571,1.2798738479614258
1772701787243256800,5.0182568359375,-0.17290930449962616,-1.0976686477661133,1.521597981452942
1772701787253305900,5.028305908203125,-0.3714229166507721,-0.9446545243263245,1.5320013761520386
1772701787263353900,5.038353759765625,-0.6076425313949585,-1.2184791564941406,1.3438736200332642
1772701787273403000,5.04840283203125,-0.8035665154457092,-1.639015555381775,1.0628634691238403
1772701787283452000,5.058451904296875,-0.9577955603599548,-1.7739408016204834,0.7837682962417603
1772701787293500000,5.0685,-1.0645869970321655,-1.507534146308899,0.541787326335907
1772701787303549000,5.078548828125,-1.0785313844680786,-1.0125963687896729,0.371498703956604
1772701787313598000,5.088597900390625,-0.9393446445465088,-0.41359516978263855,0.32497328519821167
1772701787323646000,5.09864599609375,-0.7658306956291199,-0.03153836727142334,0.28219443559646606
1772701787333695000,5.108695068359375,-0.6132959723472595,0.09181978553533554,0.19526325166225433
1772701787343743700,5.11874365234375,-0.45123833417892456,0.0845847874879837,0.03338615968823433
1772701787353792000,5.1287919921875,-0.2773192822933197,0.0803450345993042,-0.16240224242210388
1772701787363840800,5.1388408203125,-0.11706611514091492,0.09244483709335327,-0.38659897446632385
1772701787373890000,5.14889013671875,0.0035993163473904133,0.11648066341876984,-0.6009043455123901
1772701787383937800,5.158937744140625,0.12355528026819229,0.18656016886234283,-0.7639584541320801
1772701787393986800,5.16898681640625,0.2246190458536148,0.32701021432876587,-0.8741219639778137
1772701787404035800,5.179035888671875,0.3520158529281616,0.516405463218689,-0.9122106432914734
1772701787414083800,5.189083740234375,0.47030067443847656,0.7350413799285889,-0.8942260146141052
1772701787424132900,5.1991328125,0.6222259402275085,0.9084964990615845,-0.8105592131614685
1772701787434182000,5.209181884765625,0.7855879664421082,1.1104618310928345,-0.7496263384819031
1772701787444230000,5.21922998046875,0.8857343196868896,1.3487868309020996,-0.6838176250457764
1772701787454279000,5.22927880859375,1.027091383934021,1.599050760269165,-0.6375561356544495
1772701787464328000,5.239327880859375,1.1131030321121216,1.8004746437072754,-0.5828289985656738
1772701787474377000,5.249376953125,1.1415210962295532,1.8687067031860352,-0.47510015964508057
1772701787484424700,5.2594248046875,1.1553802490234375,1.8205732107162476,-0.33223432302474976
1772701787494474000,5.269473876953125,1.1517335176467896,1.6303601264953613,-0.1464279741048813
1772701787504522800,5.279522705078125,1.144191861152649,1.2126086950302124,0.03160223737359047
1772701787514571000,5.289571044921875,1.0692723989486694,0.6193475127220154,0.11473973095417023
1772701787524619800,5.299619873046875,0.8889139890670776,0.10914604365825653,0.15725505352020264
1772701787534668800,5.309668701171875,0.8025916218757629,-0.24113766849040985,0.16108042001724243
1772701787544716800,5.319716796875,0.7736483216285706,-0.5068854093551636,0.13733631372451782
1772701787554765800,5.329765869140625,0.7141218781471252,-0.700291633605957,0.11405056715011597
1772701787564814800,5.33981494140625,0.6325172781944275,-0.8280496001243591,0.08288492262363434
1772701787574862800,5.34986279296875,0.5552082657814026,-0.9094179272651672,0.04269944876432419
1772701787584912000,5.359911865234375,0.48019474744796753,-0.9029302000999451,0.03540797904133797
1772701787594961000,5.3699609375,0.38425275683403015,-0.7610188722610474,0.04637709632515907
1772701787605009000,5.3800087890625,0.2843586504459381,-0.37128254771232605,0.008684580214321613
1772701787615058000,5.390057861328125,0.18215303122997284,0.22433842718601227,0.02903829887509346
1772701787625106700,5.400106689453125,0.09360773116350174,0.6975430250167847,0.05978023633360863
1772701787635155000,5.410155029296875,0.030052075162529945,0.8736966848373413,0.04514094814658165
1772701787645203700,5.42020361328125,-0.011879927478730679,0.8697648048400879,0.0031530186533927917
1772701787655253000,5.4302529296875,-0.04401126876473427,0.7872231006622314,-0.034480251371860504
1772701787665300700,5.44030078125,-0.15696898102760315,0.619139552116394,-0.06859321147203445
1772701787675350000,5.45035009765625,-0.40933334827423096,0.30551877617836,-0.05735241621732712
1772701787685398800,5.460398681640625,-0.545165479183197,-0.20577272772789001,0.03624784201383591
1772701787695447000,5.470447021484375,-0.2628362476825714,-0.852179229259491,0.20627418160438538
1772701787705495800,5.480495849609375,0.1426854133605957,-1.3899638652801514,0.4237436354160309
1772701787715544800,5.490544921875,0.08877070248126984,-1.7317885160446167,0.5397326350212097
1772701787725592800,5.5005927734375,-0.27625972032546997,-1.8411715030670166,0.5099360942840576
1772701787735641900,5.510641845703125,-0.5033387541770935,-1.4248756170272827,0.20929884910583496
1772701787745691000,5.52069091796875,-0.5314603447914124,-0.7592266201972961,-0.36717459559440613
1772701787755739000,5.53073876953125,-0.4692981243133545,-1.1736050844192505,-0.982429027557373
1772701787765788000,5.540787841796875,-0.4070129096508026,-2.273589849472046,-1.1305919885635376
1772701787775837000,5.5508369140625,-0.22784098982810974,-1.2404329776763916,-0.8744781017303467
1772701787785885000,5.560885009765625,0.036909718066453934,1.6448596715927124,-0.3012159466743469
1772701787795934000,5.570933837890625,0.12577605247497559,2.185593366622925,-0.3251941502094269
1772701787805982700,5.580982666015625,0.1688217967748642,1.6105073690414429,-0.589046061038971
1772701787816031000,5.591031005859375,0.2005036175251007,1.0952904224395752,-0.6426077485084534
1772701787826079700,5.601079833984375,0.22852833569049835,0.7545560002326965,-0.5739586353302002
1772701787836129000,5.61112890625,0.24430334568023682,0.5116308927536011,-0.4572712779045105
1772701787846176800,5.6211767578125,0.25777068734169006,0.37177392840385437,-0.2517082691192627
1772701787856226000,5.63122607421875,0.24880407750606537,0.3236024081707001,-0.0190768763422966
1772701787866274800,5.64127490234375,0.19491368532180786,0.34765955805778503,0.20848411321640015
1772701787876323000,5.651322998046875,0.14148052036762238,0.36133167147636414,0.39368170499801636
1772701787886371800,5.661371826171875,0.1890014261007309,0.3103228211402893,0.5863683223724365
1772701787896420900,5.6714208984375,0.2631390392780304,0.18471971154212952,0.7253127098083496
1772701787906470000,5.681469970703125,0.2909805178642273,0.002233259379863739,0.7342172861099243
1772701787916518000,5.691517822265625,0.2697876989841461,-0.12116490304470062,0.599641740322113
1772701787926567000,5.70156689453125,0.20643562078475952,-0.1083894595503807,0.36901649832725525
1772701787936616000,5.711615966796875,0.16781526803970337,0.007244464475661516,0.06252206861972809
1772701787946664000,5.721663818359375,0.1650581806898117,0.1429641991853714,-0.29257717728614807
1772701787956713000,5.731712890625,0.14657104015350342,0.1929304301738739,-0.6303924918174744
1772701787966761700,5.74176171875,0.10488058626651764,0.08285245299339294,-0.8890380263328552
1772701787976810000,5.75181005859375,0.049610935151576996,-0.1496865153312683,-1.0315206050872803
1772701787986858800,5.761858642578125,-0.014606396667659283,-0.29183515906333923,-1.0475273132324219
1772701787996908000,5.771907958984375,-0.0824645385146141,-0.30083024501800537,-0.9837360382080078
1772701788006955800,5.781955810546875,-0.13766129314899445,-0.2240060716867447,-0.8870319724082947
1772701788017005000,5.792005126953125,-0.17642919719219208,-0.0970984548330307,-0.7671476602554321
1772701788027053800,5.8020537109375,-0.20225714147090912,0.056525714695453644,-0.6193317174911499
1772701788037102000,5.81210205078125,-0.2253347635269165,0.18744538724422455,-0.456526517868042
1772701788047150800,5.82215087890625,-0.27395591139793396,0.2639884054660797,-0.29828569293022156
1772701788057199900,5.832199951171875,-0.35047250986099243,0.2838771343231201,-0.1323252022266388
1772701788067247900,5.842247802734375,-0.43003302812576294,0.23910434544086456,0.010022096335887909
1772701788077297000,5.852296875,-0.5312310457229614,0.1901293396949768,0.04572310298681259
1772701788087346000,5.862345947265625,-0.6809965968132019,0.23881778120994568,-0.05741846188902855
1772701788097395000,5.87239501953125,-0.8158454895019531,0.4917230010032654,-0.21696045994758606
1772701788107443000,5.88244287109375,-0.8504246473312378,0.8689477443695068,-0.318138986825943
1772701788117492000,5.892491943359375,-0.7861180901527405,1.1853941679000854,-0.315591424703598
1772701788127540700,5.902540771484375,-0.6544240713119507,1.2978930473327637,-0.08182837069034576
1772701788137589000,5.912589111328125,-0.49491778016090393,1.1606019735336304,0.2559451460838318
1772701788147637800,5.9226376953125,-0.3811071813106537,0.6545785069465637,0.5229686498641968
1772701788157687000,5.93268701171875,-0.33934563398361206,-0.18579795956611633,0.797753632068634
1772701788167734800,5.94273486328125,-0.5506399869918823,-1.3558870553970337,1.1205158233642578
1772701788177784000,5.9527841796875,-0.8967292308807373,-2.031400442123413,1.2106175422668457
1772701788187832800,5.962832763671875,-1.1092392206192017,-1.940225601196289,0.9487432241439819
1772701788197881000,5.972881103515625,-1.2035375833511353,-1.6943506002426147,0.7918417453765869
1772701788207929900,5.982929931640625,-1.459792971611023,-2.050774574279785,1.0840293169021606
1772701788217979000,5.992978759765625,-1.7227106094360352,-2.4923548698425293,1.3744148015975952
1772701788228027000,6.00302685546875,-1.714514970779419,-2.311612606048584,1.4224475622177124
1772701788238076000,6.013075927734375,-1.5577553510665894,-1.7992559671401978,1.4689862728118896
1772701788248125000,6.023125,-1.4119068384170532,-1.1760720014572144,1.4429936408996582
1772701788258173000,6.0331728515625,-1.2057478427886963,-0.5730623006820679,1.233701467514038
1772701788268222000,6.043221923828125,-1.0070641040802002,-0.32486850023269653,0.8875172734260559
1772701788278271000,6.05327099609375,-0.8888099193572998,-0.519317626953125,0.43048128485679626
1772701788288319000,6.063319091796875,-0.7827461361885071,-0.9887891411781311,-0.05594383180141449
1772701788298368000,6.073367919921875,-0.6450175642967224,-1.3225090503692627,-0.4798751175403595
1772701788308416800,6.083416748046875,-0.47494953870773315,-1.5019664764404297,-0.6946137547492981
1772701788318465000,6.093465087890625,-0.2759517431259155,-1.3426222801208496,-0.6595788598060608
1772701788328513800,6.103513671875,-0.12041865289211273,-0.8735121488571167,-0.5098050236701965
1772701788338563000,6.11356298828125,-0.006578108295798302,-0.45245787501335144,-0.4065670371055603
1772701788348611800,6.12361181640625,0.07302217930555344,-0.2382420003414154,-0.40404030680656433
1772701788358660000,6.13366015625,0.1855844110250473,-0.17715120315551758,-0.36868125200271606
1772701788368708900,6.143708984375,0.33241432905197144,-0.19485989212989807,-0.2600272297859192
1772701788378758000,6.1537578125,0.4305957555770874,-0.2477039396762848,-0.15134547650814056
1772701788388806000,6.163805908203125,0.5009344220161438,-0.245042085647583,-0.08109106123447418
1772701788398855000,6.17385498046875,0.5697771310806274,-0.10119090974330902,-0.037437327206134796
1772701788408904000,6.183904052734375,0.6554322838783264,0.21469168365001678,-0.04516011103987694
1772701788418952000,6.193951904296875,0.7395833730697632,0.6297845244407654,-0.04840517416596413
1772701788429001000,6.2040009765625,0.7970823049545288,1.1041916608810425,-0.018853407353162766
1772701788439050000,6.214050048828125,0.8339266180992126,1.5935949087142944,0.04862070828676224
1772701788449098000,6.224097900390625,0.8098422884941101,2.140976667404175,0.13031651079654694
1772701788459147000,6.23414697265625,0.7335903644561768,2.727558135986328,0.23129932582378387
1772701788469195800,6.24419580078125,0.704773485660553,3.372593402862549,0.38547077775001526
1772701788479244000,6.254244140625,0.7440564036369324,3.971684694290161,0.5444516539573669
1772701788489292800,6.264292724609375,0.772662878036499,4.4238433837890625,0.6618883609771729
1772701788499342000,6.274342041015625,0.7081983685493469,4.623593807220459,0.6304393410682678
1772701788509389800,6.284389892578125,0.5245199203491211,4.561413288116455,0.41096174716949463
1772701788519439000,6.294439208984375,0.2825627028942108,4.2600531578063965,0.11248502135276794
1772701788529488000,6.30448779296875,0.035773344337940216,3.5260112285614014,-0.17073801159858704
1772701788539536000,6.314535888671875,-0.0566474013030529,2.375436305999756,-0.17666061222553253
1772701788549585000,6.3245849609375,0.03166096657514572,1.0238654613494873,-0.0025138226337730885
1772701788559634000,6.334634033203125,0.08895381540060043,-0.037989843636751175,0.13881933689117432
1772701788569682000,6.344681884765625,0.1452496498823166,-0.46213310956954956,0.13743112981319427
1772701788579731000,6.35473095703125,0.15460187196731567,-0.5197274684906006,0.0691617950797081
1772701788589780000,6.364780029296875,0.13613460958003998,-0.48448824882507324,0.026706773787736893
1772701788599827700,6.37482763671875,0.09897977858781815,-0.46237999200820923,-0.0007141978712752461
1772701788609877000,6.384876953125,0.0486091673374176,-0.3999972939491272,-0.018684562295675278
1772701788619926000,6.394926025390625,-0.002662539714947343,-0.26388314366340637,-0.04453640058636665
1772701788629974800,6.404974853515625,-0.02045808732509613,-0.03339507058262825,-0.04804045706987381
1772701788640023000,6.41502294921875,-0.006610714364796877,0.20674829185009003,-0.037539079785346985
1772701788650071800,6.42507177734375,0.0005787551053799689,0.353474885225296,-0.002922250423580408
1772701788660121000,6.43512109375,-0.006658118683844805,0.3408171534538269,0.07215066254138947
1772701788670168800,6.4451689453125,-0.0384761318564415,0.14497019350528717,0.23954930901527405
1772701788680217900,6.4552177734375,-0.11507903039455414,-0.25179287791252136,0.5330008864402771
1772701788690267000,6.465266845703125,-0.2900199890136719,-0.8629004955291748,0.9805924892425537
1772701788700315000,6.47531494140625,-0.45842525362968445,-1.8583059310913086,1.5400153398513794
1772701788710364000,6.485364013671875,-0.447061151266098,-3.2456789016723633,1.9626564979553223
1772701788720413000,6.495412841796875,-0.6440165638923645,-4.796135902404785,1.698627233505249
1772701788730461000,6.5054609375,-1.2966041564941406,-5.371238708496094,0.3838658034801483
1772701788740510000,6.515510009765625,-1.6296018362045288,-3.485257863998413,-1.2217628955841064
1772701788750559000,6.52555908203125,-1.4391852617263794,-0.06804495304822922,-2.24562406539917
1772701788760606700,6.535606689453125,-0.8424747586250305,1.8587032556533813,-1.4045408964157104
1772701788770655700,6.54565576171875,-0.1215648502111435,2.224691867828369,-0.26348623633384705
1772701788780705000,6.555705078125,-0.19206565618515015,1.715396523475647,0.09155093133449554
1772701788790752800,6.565752685546875,-0.3204064667224884,0.5301109552383423,0.011587275192141533
1772701788800802000,6.575802001953125,-0.10649124532938004,0.15487366914749146,-0.1929866373538971
1772701788810850800,6.585850830078125,0.02486560121178627,-0.2663196623325348,-0.3215339481830597
1772701788820898800,6.59589892578125,-0.08105283975601196,-0.4250437915325165,-0.055005043745040894
1772701788830947800,6.60594775390625,-0.2569192945957184,0.0791781023144722,0.3319237530231476
1772701788840996900,6.615996826171875,-0.36736804246902466,0.43656447529792786,0.5219842195510864
1772701788851046000,6.6260458984375,-0.4030645787715912,0.38833802938461304,0.5501775741577148
1772701788861094000,6.636093994140625,-0.31371286511421204,0.24241837859153748,0.5494835376739502
1772701788871143000,6.646142822265625,-0.13083739578723907,0.1346074938774109,0.4987647533416748
1772701788881192000,6.65619189453125,0.03283808380365372,0.10665841400623322,0.377261221408844
1772701788891240000,6.666239990234375,0.13928242027759552,0.1358080804347992,0.23691456019878387
1772701788901289000,6.6762890625,0.19970394670963287,0.23004083335399628,0.10149867087602615
1772701788911337700,6.686337646484375,0.2100987285375595,0.4276535212993622,-0.06773510575294495
1772701788921385700,6.6963857421875,0.21569056808948517,0.5908911824226379,-0.27644437551498413
1772701788931434800,6.706434814453125,0.24553070962429047,0.62943035364151,-0.4432433247566223
1772701788941484000,6.716484130859375,0.2686786353588104,0.5079590678215027,-0.4960743188858032
1772701788951531800,6.72653173828125,0.3429684042930603,0.24973785877227783,-0.4713367521762848
1772701788961581000,6.7365810546875,0.43373000621795654,-0.047677844762802124,-0.42775943875312805
1772701788971629800,6.7466298828125,0.5152462720870972,-0.2650889754295349,-0.40073931217193604
1772701788981677800,6.756677734375,0.5681241154670715,-0.36962124705314636,-0.35371482372283936
1772701788991726800,6.766726806640625,0.6050721406936646,-0.3683544099330902,-0.2752012014389038
1772701789001775900,6.77677587890625,0.6272472143173218,-0.2843734920024872,-0.16748593747615814
1772701789011825000,6.786824951171875,0.6287999749183655,-0.1555674970149994,-0.04341677203774452
1772701789021873000,6.796872802734375,0.580030083656311,-0.007428095676004887,0.1044645681977272
1772701789031922000,6.806921875,0.4588332176208496,0.14869587123394012,0.2713872492313385
1772701789041971000,6.816970947265625,0.29808562994003296,0.26201948523521423,0.42277756333351135
1772701789052019000,6.82701904296875,0.1154772937297821,0.2682167589664459,0.47830116748809814
1772701789062068000,6.83706787109375,-0.04381808638572693,0.26185232400894165,0.4641574025154114
1772701789072116700,6.84711669921875,-0.18960654735565186,0.2584109604358673,0.3995738923549652
1772701789082164700,6.857164794921875,-0.3235185444355011,0.2054164707660675,0.33632171154022217
1772701789092213800,6.8672138671875,-0.4089679419994354,0.17062735557556152,0.29937681555747986
1772701789102263000,6.877262939453125,-0.4581400156021118,0.13606539368629456,0.25428950786590576
1772701789112310800,6.887310791015625,-0.5030783414840698,0.09788763523101807,0.202603280544281
1772701789122360000,6.897360107421875,-0.5374919772148132,0.14958970248699188,0.15395931899547577
1772701789132408800,6.907408935546875,-0.5461055040359497,0.3119184374809265,0.12814103066921234
1772701789142456800,6.917456787109375,-0.5427539348602295,0.42507266998291016,0.08763701468706131
1772701789152505900,6.927505859375,-0.5515668392181396,0.45610857009887695,0.033377014100551605
1772701789162555000,6.937554931640625,-0.5936834216117859,0.4305661916732788,-0.09117583185434341
1772701789172603000,6.947602783203125,-0.654624879360199,0.39858537912368774,-0.3240809440612793
1772701789182652000,6.95765185546875,-0.6611674427986145,0.3270920217037201,-0.5691490769386292
1772701789192701000,6.967700927734375,-0.5960116982460022,0.14928720891475677,-0.7226338982582092
1772701789202748700,6.977748779296875,-0.5077667832374573,-0.024684859439730644,-0.8017311096191406
1772701789212797700,6.987797607421875,-0.4013141691684723,-0.13723087310791016,-0.789115846157074
1772701789222846700,6.9978466796875,-0.334457665681839,-0.30512505769729614,-0.6323307156562805
1772701789232895500,7.0078955078125,-0.3529123365879059,-0.5815566182136536,-0.2851882576942444
1772701789242943500,7.017943603515625,-0.4761509299278259,-0.9782299399375916,0.11567607522010803
1772701789252992500,7.027992431640625,-0.6005759835243225,-1.286997675895691,0.3739362955093384
1772701789263041800,7.038041748046875,-0.6589487791061401,-1.6608597040176392,0.40571340918540955
1772701789273089500,7.048089599609375,-0.6848337650299072,-2.032449722290039,0.3385773301124573
1772701789283138600,7.058138671875,-0.7015419006347656,-2.2092537879943848,0.23074406385421753
1772701789293187600,7.0681875,-0.6859761476516724,-2.345947265625,0.16533134877681732
1772701789303235600,7.078235595703125,-0.6119804978370667,-2.450981378555298,0.16086602210998535
1772701789313284600,7.08828466796875,-0.5278066396713257,-2.2499163150787354,0.2355262190103531
1772701789323333600,7.098333740234375,-0.4828743040561676,-1.9835463762283325,0.3858174681663513
1772701789333381600,7.108381591796875,-0.45127856731414795,-1.8288545608520508,0.5066102147102356
1772701789343430400,7.118430419921875,-0.4143432080745697,-1.7653685808181763,0.5842986106872559
1772701789353479700,7.128479736328125,-0.37147286534309387,-1.6727687120437622,0.6498391628265381
1772701789363527400,7.13852734375,-0.3578824996948242,-1.500016689300537,0.7003284692764282
1772701789373576700,7.14857666015625,-0.3862929344177246,-1.2713364362716675,0.7532565593719482
1772701789383625700,7.158625732421875,-0.4191187918186188,-1.0491787195205688,0.8130192160606384
1772701789393674500,7.168674560546875,-0.4557725787162781,-0.8847410082817078,0.8639348745346069
1772701789403722500,7.178722412109375,-0.47632765769958496,-0.8147467374801636,0.8967812061309814
1772701789413771500,7.188771484375,-0.487393319606781,-0.8053532838821411,0.9226539134979248
1772701789423820800,7.19882080078125,-0.502426028251648,-0.7912952303886414,0.9791080951690674
1772701789433868500,7.20886865234375,-0.5069559216499329,-0.7547707557678223,1.1116193532943726
1772701789443917600,7.21891748046875,-0.46515071392059326,-0.6271566152572632,1.2887496948242188
1772701789453966600,7.228966552734375,-0.3651208281517029,-0.280486524105072,1.3100619316101074
1772701789464014600,7.2390146484375,-0.19545616209506989,0.091843381524086,1.1793899536132812
1772701789474063600,7.249063720703125,0.062438804656267166,0.444548636674881,0.9352331757545471
1772701789484112600,7.259112548828125,0.4687727391719818,0.6463867425918579,0.6699061989784241
1772701789494160600,7.26916064453125,0.7816847562789917,0.6306464076042175,0.45930200815200806
1772701789504209400,7.27920947265625,0.8761225938796997,0.8848448991775513,0.09641116112470627
1772701789514258700,7.2892587890625,0.8172123432159424,1.2370328903198242,-0.32740169763565063
1772701789524306400,7.299306396484375,0.7718624472618103,1.402971863746643,-0.6802138090133667
1772701789534355700,7.309355712890625,0.8534882068634033,1.2195701599121094,-0.8280070424079895
1772701789544404700,7.31940478515625,0.8282861709594727,0.9365125894546509,-0.9996682405471802
1772701789554453500,7.32945361328125,0.805875837802887,0.6242704391479492,-1.143733263015747
1772701789564501500,7.33950146484375,0.8162432909011841,0.5133883953094482,-1.243640422821045
1772701789574550500,7.349550537109375,0.8071075677871704,0.6435229182243347,-1.3002818822860718
1772701789584599800,7.359599853515625,0.7983486652374268,0.7560633420944214,-1.2683624029159546
1772701789594647600,7.3696474609375,0.8316130638122559,0.7538695335388184,-1.156418800354004
1772701789604696600,7.379696533203125,0.8955230712890625,0.7029562592506409,-1.027915596961975
1772701789614745600,7.38974560546875,0.9638388156890869,0.7073608636856079,-0.8580610752105713
1772701789624793600,7.399793701171875,1.030030608177185,0.681945264339447,-0.6664748787879944
1772701789634842600,7.409842529296875,1.0920342206954956,0.6806051135063171,-0.44746649265289307
1772701789644891600,7.4198916015625,1.109541654586792,0.7008390426635742,-0.22483742237091064
1772701789654939600,7.429939697265625,1.1045773029327393,0.814275324344635,-0.07285185903310776
1772701789664988400,7.439988525390625,1.0863189697265625,0.9944693446159363,-0.01527511514723301
1772701789675037700,7.45003759765625,1.057484745979309,1.1295520067214966,-0.03009244240820408
1772701789685085400,7.46008544921875,0.9934868812561035,1.1927802562713623,-0.09559208899736404
1772701789695134700,7.470134765625,0.9306538701057434,1.137298345565796,-0.18810978531837463
1772701789705183700,7.480183837890625,0.8757834434509277,0.982478141784668,-0.26194724440574646
1772701789715232500,7.490232421875,0.7885246276855469,0.7360900044441223,-0.2957969605922699
1772701789725280500,7.500280517578125,0.6539479494094849,0.42823657393455505,-0.2880255877971649
1772701789735329500,7.51032958984375,0.5029230713844299,0.24120062589645386,-0.3345798850059509
1772701789745378800,7.52037890625,0.32844048738479614,0.2674172818660736,-0.4779152274131775
1772701789755426600,7.530426513671875,0.1192396804690361,0.3936692774295807,-0.6244962811470032
1772701789765475600,7.5404755859375,-0.10548530519008636,0.5268962979316711,-0.7766919732093811
1772701789775524600,7.550524658203125,-0.21806654334068298,0.6759577393531799,-0.942758321762085
1772701789785572600,7.560572509765625,-0.17166148126125336,0.7939879894256592,-0.9824921488761902
1772701789795621600,7.57062158203125,-0.1734524667263031,0.8012376427650452,-0.9515208005905151
1772701789805670700,7.580670654296875,-0.2459261268377304,0.8410188555717468,-0.8991662263870239
1772701789815718700,7.59071875,-0.31052184104919434,1.194638967514038,-0.9357086420059204
1772701789825767400,7.600767333984375,-0.37661805748939514,1.355492115020752,-0.9596635103225708
1772701789835816700,7.610816650390625,-0.43753233551979065,1.124882459640503,-1.1365470886230469
1772701789845865700,7.62086572265625,-0.40870919823646545,0.7865792512893677,-1.0181336402893066
1772701789855913700,7.630913818359375,-0.442005455493927,0.5150393843650818,-0.6036368012428284
1772701789865962800,7.640962646484375,-0.5257117748260498,0.10888733714818954,-0.1240297332406044
1772701789876011500,7.651011474609375,-0.6413731575012207,-0.0687587782740593,0.3376576900482178
1772701789886059500,7.6610595703125,-0.7255985736846924,-0.023321520537137985,0.5830981135368347
1772701789896108500,7.671108642578125,-0.725389301776886,0.04506407678127289,0.665506899356842
1772701789906157800,7.68115771484375,-0.6925733089447021,0.2213008850812912,0.7098719477653503
1772701789916205600,7.69120556640625,-0.6790077686309814,0.4713475704193115,0.6844180822372437
1772701789926254800,7.7012548828125,-0.617392897605896,0.6675730347633362,0.5322354435920715
1772701789936303600,7.7113037109375,-0.4849233627319336,0.7048377990722656,0.26254141330718994
1772701789946351600,7.7213515625,-0.3551155626773834,0.5518053770065308,-0.06656990200281143
1772701789956400600,7.731400634765625,-0.26199793815612793,0.19201606512069702,-0.3006353974342346
1772701789966449700,7.74144970703125,-0.24727386236190796,-0.08623047918081284,-0.5000145435333252
1772701789976498700,7.751498779296875,-0.2823275923728943,-0.20865441858768463,-0.6943827867507935
1772701789986546400,7.76154638671875,-0.35543695092201233,-0.21429844200611115,-0.862218976020813
1772701789996595700,7.771595703125,-0.4220326840877533,-0.08874262124300003,-0.9290703535079956
1772701790006644700,7.781644775390625,-0.4206848740577698,0.19319719076156616,-0.9847725033760071
1772701790016692700,7.791692626953125,-0.4057638347148895,0.5032770037651062,-0.9922409653663635
1772701790026741800,7.80174169921875,-0.3879909813404083,0.7498905062675476,-0.9131224751472473
1772701790036790500,7.81179052734375,-0.38469210267066956,0.8541799783706665,-0.7789784669876099
1772701790046838500,7.821838623046875,-0.39542409777641296,0.7498272061347961,-0.5987586379051208
1772701790056887600,7.831887451171875,-0.4071446359157562,0.4618004262447357,-0.4024379551410675
1772701790066936800,7.841936767578125,-0.41386112570762634,0.09951598197221756,-0.1906665861606598
1772701790076984600,7.851984619140625,-0.4234199523925781,-0.1918431669473648,-0.005734797101467848
1772701790087033900,7.862033935546875,-0.44151052832603455,-0.3320724666118622,0.1542878895998001
1772701790097082600,7.87208251953125,-0.4649222493171692,-0.39203184843063354,0.2926848530769348
1772701790107130600,7.882130615234375,-0.4855385720729828,-0.468885600566864,0.4149356782436371
1772701790117179600,7.8921796875,-0.47998368740081787,-0.5245670676231384,0.5209473967552185
1772701790127228700,7.902228759765625,-0.4366346299648285,-0.48738744854927063,0.581058919429779
1772701790137277700,7.912277587890625,-0.34797725081443787,-0.4312627613544464,0.5822685360908508
1772701790147325400,7.922325439453125,-0.25455328822135925,-0.3617849051952362,0.5411245822906494
1772701790157374700,7.932374755859375,-0.18500463664531708,-0.16635167598724365,0.5089954137802124
1772701790167423700,7.942423828125,-0.13313265144824982,0.030564049258828163,0.5167595744132996
1772701790177471700,7.9524716796875,-0.07631980627775192,0.13921859860420227,0.5611124038696289
1772701790187520800,7.962520751953125,0.0068776109255850315,0.09561705589294434,0.5950120687484741
1772701790197569500,7.972569580078125,0.049148064106702805,0.01936826854944229,0.5902953743934631
1772701790207617500,7.982617431640625,0.07182115316390991,-0.031579334288835526,0.5017503499984741
1772701790217666000,7.992666015625,0.05633394047617912,-0.0495712086558342,0.3574509620666504
1772701790227715000,8.002715087890625,0.023619670420885086,-0.029226789250969887,0.2550066113471985
1772701790237763000,8.01276318359375,-0.04040605202317238,0.031907860189676285,0.2204793244600296
1772701790247812000,8.02281201171875,-0.13436397910118103,0.05442328751087189,0.24489517509937286
1772701790257861000,8.032861083984375,-0.21154527366161346,0.027976229786872864,0.33219480514526367
1772701790267910100,8.04291015625,-0.2996104061603546,-0.07853636890649796,0.5078859329223633
1772701790277958100,8.052958251953125,-0.3816585838794708,-0.25293704867362976,0.7149394750595093
1772701790288007000,8.0630068359375,-0.44951513409614563,-0.389358788728714,0.8735126256942749
1772701790298056200,8.07305615234375,-0.4821452796459198,-0.43435510993003845,0.963255763053894
1772701790308104000,8.08310400390625,-0.4810699224472046,-0.44136908650398254,0.9943820238113403
1772701790318153200,8.0931533203125,-0.4910900294780731,-0.4423859715461731,0.9819502234458923
1772701790328202200,8.1032021484375,-0.5169714689254761,-0.4478222727775574,0.926758348941803
1772701790338250200,8.113250244140625,-0.5465810298919678,-0.4065738320350647,0.8287426233291626
1772701790348299000,8.123299072265626,-0.5624412298202515,-0.2823706567287445,0.7169495224952698
1772701790358348000,8.13334814453125,-0.5230903029441833,-0.16579847037792206,0.6391741037368774
1772701790368396000,8.14339599609375,-0.450631320476532,-0.10813864320516586,0.5677100419998169
1772701790378445000,8.153445068359375,-0.3792198896408081,-0.1169351264834404,0.4949837028980255
1772701790388494000,8.163494140625,-0.2915472984313965,-0.13433408737182617,0.4281415641307831
1772701790398543000,8.173543212890625,-0.2245752364397049,-0.115943044424057,0.3804231286048889
1772701790408591000,8.183591064453125,-0.15116626024246216,-0.08480110764503479,0.3594549894332886
1772701790418640100,8.19364013671875,-0.0928695797920227,-0.05283573269844055,0.3542512059211731
1772701790428689200,8.203689208984375,-0.04615214094519615,0.0029673478566110134,0.36383751034736633
1772701790438737200,8.213737060546874,-0.005274057388305664,0.00932987593114376,0.39120256900787354
1772701790448786000,8.223785888671875,0.028819464147090912,-0.036554526537656784,0.4186885356903076
1772701790458835200,8.233835205078124,0.042130980640649796,-0.12339971959590912,0.41946807503700256
1772701790468883000,8.243883056640625,0.05922714248299599,-0.1768919676542282,0.42008671164512634
1772701790478932200,8.25393212890625,0.05874352902173996,-0.15605317056179047,0.43352457880973816
1772701790488981200,8.263981201171875,0.035502657294273376,-0.15163125097751617,0.426964670419693
1772701790499029200,8.274029296875,-0.006285437848418951,-0.15839314460754395,0.3938387632369995
1772701790509078000,8.284078125,-0.05238928273320198,-0.14255692064762115,0.3310515284538269
1772701790519127000,8.294126953125,-0.08079728484153748,-0.07681881636381149,0.2532617151737213
1772701790529176300,8.30417626953125,-0.09219534695148468,-0.022776614874601364,0.18770268559455872
1772701790539224000,8.31422412109375,-0.08796944469213486,-0.00924402754753828,0.15681640803813934
1772701790549273000,8.324273193359375,-0.0889635980129242,0.012118253856897354,0.13296274840831757
1772701790559322000,8.334322021484375,-0.08787225931882858,0.04159540310502052,0.13787417113780975
1772701790569370000,8.3443701171875,-0.09701409190893173,0.04200393334031105,0.1605597734451294
1772701790579419100,8.354419189453125,-0.11531001329421997,0.0154652651399374,0.19399815797805786
1772701790589468200,8.36446826171875,-0.11676888912916183,-0.009310655295848846,0.22211101651191711
1772701790599516200,8.37451611328125,-0.0990036129951477,-0.04666566848754883,0.24334701895713806
1772701790609565000,8.38456494140625,-0.06496495753526688,-0.059621412307024,0.2955854535102844
1772701790619614200,8.3946142578125,-0.034130048006772995,-0.08775702118873596,0.37588223814964294
1772701790629663200,8.404663330078124,-0.01514890044927597,-0.14455239474773407,0.46322140097618103
1772701790639711200,8.414711181640625,0.006319548934698105,-0.12361295521259308,0.426437109708786
1772701790649760300,8.42476025390625,0.002854510210454464,-0.016955751925706863,0.3618413209915161
1772701790659809000,8.43480908203125,-0.029322227463126183,0.07868452370166779,0.2492748200893402
1772701790669857000,8.44485693359375,-0.09963873773813248,0.08965754508972168,0.1432972550392151
1772701790679906000,8.454906005859375,-0.16060757637023926,0.046672478318214417,0.02954089269042015
1772701790689955300,8.464955322265626,-0.18690389394760132,0.0693167969584465,-0.045717641711235046
1772701790700003000,8.475003173828124,-0.19904284179210663,0.1114642545580864,-0.07807212322950363
1772701790710052000,8.485052001953125,-0.18920379877090454,0.13267366588115692,-0.06568735837936401
1772701790720101000,8.49510107421875,-0.1558709591627121,0.11110341548919678,-0.04499993100762367
1772701790730149000,8.505149169921875,-0.12678684294223785,0.06065009534358978,-0.04644842445850372
