time,seconds_elapsed,z,y,x
1772701675164978200,0.055978271484375,-0.5409088134765625,0.260467529296875,0.79541015625
1772701675175026400,0.0660263671875,-0.5397796630859375,0.2578125,0.7948150634765625
1772701675185074400,0.076074462890625,-0.5404205322265625,0.2555694580078125,0.7963714599609375
1772701675195122200,0.0861220703125,-0.5413665771484375,0.25347900390625,0.80023193359375
1772701675205170400,0.09617041015625,-0.5389862060546875,0.25531005859375,0.8071136474609375
1772701675215218400,0.106218505859375,-0.5368804931640625,0.256866455078125,0.810821533203125
1772701675225266200,0.11626611328125,-0.53326416015625,0.254547119140625,0.8146514892578125
1772701675235315200,0.126315185546875,-0.530792236328125,0.2533416748046875,0.81640625
1772701675245363200,0.13636328125,-0.528533935546875,0.2552490234375,0.814239501953125
1772701675255411500,0.146411376953125,-0.52593994140625,0.2559051513671875,0.816497802734375
1772701675265459200,0.156459228515625,-0.5240631103515625,0.257659912109375,0.81982421875
1772701675275507200,0.166507080078125,-0.5213623046875,0.2559661865234375,0.8183135986328125
1772701675285555500,0.176555419921875,-0.5181732177734375,0.2500457763671875,0.814666748046875
1772701675295603200,0.186603271484375,-0.5183563232421875,0.2464447021484375,0.8116455078125
1772701675305651500,0.1966513671875,-0.5223541259765625,0.24102783203125,0.810333251953125
1772701675315699500,0.206699462890625,-0.5275421142578125,0.2382659912109375,0.8069000244140625
1772701675325747200,0.216747314453125,-0.5329742431640625,0.23736572265625,0.8019866943359375
1772701675335795500,0.22679541015625,-0.53533935546875,0.2371978759765625,0.8002166748046875
1772701675345843200,0.23684326171875,-0.535675048828125,0.237884521484375,0.8007354736328125
1772701675355891200,0.24689111328125,-0.5349273681640625,0.2413482666015625,0.8052825927734375
1772701675365940200,0.256940185546875,-0.530853271484375,0.24273681640625,0.812652587890625
1772701675375988200,0.26698828125,-0.523468017578125,0.2439727783203125,0.8223114013671875
1772701675386036500,0.277036376953125,-0.5174102783203125,0.2481536865234375,0.8294219970703125
1772701675396084200,0.287084228515625,-0.51312255859375,0.2469329833984375,0.834259033203125
1772701675406132200,0.29713232421875,-0.5096893310546875,0.247344970703125,0.833099365234375
1772701675416180500,0.307180419921875,-0.5133819580078125,0.2495269775390625,0.831298828125
1772701675426228200,0.317228271484375,-0.516204833984375,0.2469940185546875,0.8292388916015625
1772701675436276500,0.3272763671875,-0.519744873046875,0.2460479736328125,0.8291015625
1772701675446324200,0.33732421875,-0.526519775390625,0.2429351806640625,0.8258819580078125
1772701675456372200,0.347372314453125,-0.521728515625,0.2381439208984375,0.82537841796875
1772701675466420500,0.35742041015625,-0.5163116455078125,0.2377777099609375,0.82080078125
1772701675476468200,0.36746826171875,-0.5149993896484375,0.2368011474609375,0.8183746337890625
1772701675486517500,0.377517578125,-0.516326904296875,0.2354583740234375,0.813751220703125
1772701675496565200,0.387565185546875,-0.5167694091796875,0.2458953857421875,0.8050384521484375
1772701675506613200,0.39761328125,-0.516326904296875,0.255218505859375,0.7957611083984375
1772701675516661500,0.40766162109375,-0.5166778564453125,0.2552490234375,0.79266357421875
1772701675526709200,0.417709228515625,-0.51690673828125,0.2515411376953125,0.780975341796875
1772701675536757200,0.42775732421875,-0.5229644775390625,0.24884033203125,0.7714080810546875
1772701675546805500,0.437805419921875,-0.5330047607421875,0.247833251953125,0.7702789306640625
1772701675556853200,0.447853271484375,-0.5453643798828125,0.2479248046875,0.77740478515625
1772701675566901200,0.4579013671875,-0.5667266845703125,0.2498626708984375,0.78033447265625
1772701675576949200,0.46794921875,-0.58447265625,0.2549591064453125,0.7829437255859375
1772701675586997200,0.477997314453125,-0.5995941162109375,0.2550506591796875,0.7824859619140625
1772701675597045500,0.48804541015625,-0.61700439453125,0.2496185302734375,0.78021240234375
1772701675607094300,0.49809423828125,-0.6237030029296875,0.241729736328125,0.7802581787109375
1772701675617142300,0.508142333984375,-0.62677001953125,0.240020751953125,0.7885589599609375
1772701675627190300,0.518190185546875,-0.6240081787109375,0.2436065673828125,0.79998779296875
1772701675637238300,0.52823828125,-0.6179046630859375,0.2502593994140625,0.811279296875
1772701675647286500,0.53828662109375,-0.605224609375,0.253326416015625,0.825775146484375
1772701675657334300,0.548334228515625,-0.59429931640625,0.2505340576171875,0.8306121826171875
1772701675667382300,0.55838232421875,-0.58477783203125,0.2468719482421875,0.8280029296875
1772701675677430300,0.56843017578125,-0.5708770751953125,0.2424774169921875,0.8192138671875
1772701675687478300,0.578478271484375,-0.5574188232421875,0.2357940673828125,0.80792236328125
1772701675697526300,0.5885263671875,-0.5501708984375,0.228607177734375,0.7969512939453125
1772701675707574300,0.59857421875,-0.5435943603515625,0.2201385498046875,0.7883758544921875
1772701675717622300,0.608622314453125,-0.53924560546875,0.2102508544921875,0.78076171875
1772701675727671300,0.61867138671875,-0.53515625,0.20672607421875,0.77398681640625
1772701675737719300,0.62871923828125,-0.5303497314453125,0.2042388916015625,0.76519775390625
1772701675747767300,0.638767333984375,-0.52557373046875,0.2004852294921875,0.7636566162109375
1772701675757815300,0.648815185546875,-0.5235595703125,0.200408935546875,0.7712554931640625
1772701675767863300,0.65886328125,-0.5259552001953125,0.2042999267578125,0.776031494140625
1772701675777911600,0.66891162109375,-0.529022216796875,0.2060394287109375,0.775604248046875
1772701675787959300,0.678959228515625,-0.5369873046875,0.209014892578125,0.7775421142578125
1772701675798007300,0.68900732421875,-0.54449462890625,0.2099151611328125,0.774261474609375
1772701675808055300,0.69905517578125,-0.5518798828125,0.2117156982421875,0.77325439453125
1772701675818103300,0.709103271484375,-0.5671539306640625,0.211700439453125,0.7718963623046875
1772701675828151300,0.7191513671875,-0.585174560546875,0.216033935546875,0.7694854736328125
1772701675838199300,0.72919921875,-0.6007080078125,0.215972900390625,0.76654052734375
1772701675848248300,0.739248291015625,-0.6053009033203125,0.222900390625,0.772796630859375
1772701675858296300,0.74929638671875,-0.60858154296875,0.2255096435546875,0.7671051025390625
1772701675868344300,0.75934423828125,-0.617156982421875,0.2250213623046875,0.752716064453125
1772701675878392300,0.769392333984375,-0.6223907470703125,0.2263641357421875,0.74896240234375
1772701675888440300,0.7794404296875,-0.6226654052734375,0.229736328125,0.750274658203125
1772701675898488300,0.78948828125,-0.62054443359375,0.23651123046875,0.753753662109375
1772701675908536300,0.799536376953125,-0.618133544921875,0.236480712890625,0.7518463134765625
1772701675918584300,0.809584228515625,-0.6220245361328125,0.2300872802734375,0.7456512451171875
1772701675928632300,0.81963232421875,-0.6211395263671875,0.2223358154296875,0.746124267578125
1772701675938680300,0.829680419921875,-0.6086883544921875,0.21380615234375,0.7555084228515625
1772701675948728300,0.839728271484375,-0.6103973388671875,0.21343994140625,0.763885498046875
1772701675958777300,0.84977734375,-0.610321044921875,0.2095947265625,0.7705078125
1772701675968825300,0.859825439453125,-0.6054534912109375,0.20452880859375,0.78302001953125
1772701675978873300,0.869873291015625,-0.603302001953125,0.2065582275390625,0.7888641357421875
1772701675988921300,0.87992138671875,-0.607696533203125,0.20758056640625,0.7838134765625
1772701675998969300,0.88996923828125,-0.607757568359375,0.208953857421875,0.7751007080078125
1772701676009017300,0.900017333984375,-0.60162353515625,0.2061614990234375,0.7712249755859375
1772701676019065300,0.9100654296875,-0.591827392578125,0.1952056884765625,0.7693023681640625
1772701676029113300,0.92011328125,-0.5923614501953125,0.1952362060546875,0.7675323486328125
1772701676039161000,0.9301611328125,-0.591949462890625,0.199005126953125,0.7607269287109375
1772701676049209300,0.940209228515625,-0.60089111328125,0.203857421875,0.7581939697265625
1772701676059257300,0.95025732421875,-0.61749267578125,0.2121124267578125,0.758453369140625
1772701676069305300,0.960305419921875,-0.62091064453125,0.2285308837890625,0.7833709716796875
1772701676079354400,0.970354248046875,-0.6054229736328125,0.2569122314453125,0.855316162109375
1772701676089402000,0.980402099609375,-0.5796356201171875,0.2863311767578125,0.9070892333984375
1772701676099450400,0.990450439453125,-0.5687103271484375,0.2921600341796875,0.908355712890625
1772701676109498400,1.000498291015625,-0.5621185302734375,0.2971649169921875,0.9365692138671875
1772701676119546400,1.01054638671875,-0.5511322021484375,0.3115997314453125,0.9886627197265625
1772701676129594400,1.020594482421875,-0.54168701171875,0.3463897705078125,1.052581787109375
1772701676139642000,1.03064208984375,-0.5375823974609375,0.3867950439453125,1.108062744140625
1772701676149691000,1.04069091796875,-0.5518798828125,0.3850860595703125,1.079742431640625
1772701676159739000,1.05073876953125,-0.5741119384765625,0.3472747802734375,1.0107574462890625
1772701676169786600,1.06078662109375,-0.5659332275390625,0.287506103515625,0.9560699462890625
1772701676179835000,1.0708349609375,-0.5321044921875,0.238739013671875,0.9227294921875
1772701676189883600,1.080883544921875,-0.492828369140625,0.203857421875,0.887359619140625
1772701676199932000,1.090931884765625,-0.478240966796875,0.1707763671875,0.82366943359375
1772701676209979600,1.100979736328125,-0.5059661865234375,0.159576416015625,0.764984130859375
1772701676220027600,1.111027587890625,-0.53106689453125,0.163421630859375,0.7187042236328125
1772701676230076000,1.121075927734375,-0.5294952392578125,0.1664886474609375,0.6842498779296875
1772701676240123600,1.13112353515625,-0.513671875,0.1668243408203125,0.665252685546875
1772701676250171600,1.141171630859375,-0.5117034912109375,0.170318603515625,0.6719512939453125
1772701676260220000,1.151219970703125,-0.5235595703125,0.1819000244140625,0.6915740966796875
1772701676270267600,1.161267578125,-0.5291290283203125,0.1932220458984375,0.712127685546875
1772701676280316000,1.17131591796875,-0.526519775390625,0.21514892578125,0.7415313720703125
1772701676290364000,1.181364013671875,-0.5309295654296875,0.24249267578125,0.7637176513671875
1772701676300411600,1.19141162109375,-0.541046142578125,0.265777587890625,0.7795867919921875
1772701676310461000,1.2014609375,-0.5491485595703125,0.28582763671875,0.7960052490234375
1772701676320508700,1.2115087890625,-0.5496063232421875,0.2925872802734375,0.8079681396484375
1772701676330557000,1.221556884765625,-0.549896240234375,0.2862548828125,0.8090972900390625
1772701676340604700,1.231604736328125,-0.548919677734375,0.281097412109375,0.803955078125
1772701676350652700,1.241652587890625,-0.5494537353515625,0.2779083251953125,0.797210693359375
1772701676360701000,1.251700927734375,-0.5518035888671875,0.279083251953125,0.80145263671875
1772701676370748700,1.261748779296875,-0.5446929931640625,0.284515380859375,0.7980194091796875
1772701676380796700,1.271796630859375,-0.5313568115234375,0.2934417724609375,0.781036376953125
1772701676390845000,1.281844970703125,-0.5218048095703125,0.2982330322265625,0.77020263671875
1772701676400892700,1.291892578125,-0.5162353515625,0.3025054931640625,0.7628173828125
1772701676410941000,1.30194091796875,-0.5172119140625,0.30718994140625,0.7451324462890625
1772701676420989700,1.31198974609375,-0.5216522216796875,0.307769775390625,0.7269744873046875
1772701676431037700,1.32203759765625,-0.5253753662109375,0.3031768798828125,0.71502685546875
1772701676441085700,1.332085693359375,-0.535858154296875,0.2936248779296875,0.7165069580078125
1772701676451133700,1.3421337890625,-0.546844482421875,0.28326416015625,0.729583740234375
1772701676461182000,1.352181884765625,-0.561614990234375,0.285919189453125,0.744140625
1772701676471229700,1.362229736328125,-0.58184814453125,0.29071044921875,0.762786865234375
1772701676481277700,1.372277587890625,-0.60638427734375,0.28631591796875,0.7819671630859375
1772701676491326000,1.382325927734375,-0.621002197265625,0.2801361083984375,0.8018798828125
1772701676501373700,1.392373779296875,-0.627471923828125,0.277008056640625,0.81939697265625
1772701676511421700,1.402421630859375,-0.6295166015625,0.2771148681640625,0.8351898193359375
1772701676521470000,1.412469970703125,-0.6383819580078125,0.2808380126953125,0.8455963134765625
1772701676531518700,1.422518798828125,-0.6340484619140625,0.2875213623046875,0.8546142578125
1772701676541567000,1.43256689453125,-0.6148681640625,0.2928619384765625,0.8506317138671875
1772701676551614700,1.44261474609375,-0.5866241455078125,0.2990875244140625,0.83984375
1772701676561662700,1.452662841796875,-0.56170654296875,0.2999267578125,0.8118743896484375
1772701676571710700,1.462710693359375,-0.5431060791015625,0.3036651611328125,0.779998779296875
1772701676581758700,1.4727587890625,-0.5253143310546875,0.3043365478515625,0.76300048828125
1772701676591807000,1.482806884765625,-0.504730224609375,0.30877685546875,0.7473602294921875
1772701676601854700,1.492854736328125,-0.4863128662109375,0.31304931640625,0.733856201171875
1772701676611902700,1.50290283203125,-0.4704437255859375,0.318634033203125,0.722625732421875
1772701676621951000,1.512950927734375,-0.460052490234375,0.32867431640625,0.7244720458984375
1772701676631998700,1.522998779296875,-0.4554443359375,0.3307342529296875,0.731353759765625
1772701676642048000,1.533048095703125,-0.4561767578125,0.341400146484375,0.7350616455078125
1772701676652095700,1.543095703125,-0.4573822021484375,0.3500518798828125,0.7408447265625
1772701676662143700,1.553143798828125,-0.468536376953125,0.3719024658203125,0.7557373046875
1772701676672191700,1.563191650390625,-0.481201171875,0.382659912109375,0.7585906982421875
1772701676682239700,1.57323974609375,-0.507415771484375,0.387237548828125,0.773529052734375
1772701676692287700,1.583287841796875,-0.5361328125,0.3892669677734375,0.7626495361328125
1772701676702335700,1.593335693359375,-0.55322265625,0.392181396484375,0.7671356201171875
1772701676712383700,1.6033837890625,-0.5695953369140625,0.3939971923828125,0.7839202880859375
1772701676722431700,1.613431640625,-0.58331298828125,0.374359130859375,0.788116455078125
1772701676732479700,1.623479736328125,-0.5984039306640625,0.346099853515625,0.78564453125
1772701676742527700,1.63352783203125,-0.6090240478515625,0.3270263671875,0.7869873046875
1772701676752576800,1.64357666015625,-0.6144561767578125,0.30877685546875,0.7883148193359375
1772701676762624800,1.653624755859375,-0.616302490234375,0.2979583740234375,0.7818450927734375
1772701676772672800,1.6636728515625,-0.6180419921875,0.293365478515625,0.7774810791015625
1772701676782720800,1.673720703125,-0.6160430908203125,0.288909912109375,0.77203369140625
1772701676792768800,1.683768798828125,-0.616546630859375,0.282745361328125,0.7793426513671875
1772701676802816800,1.693816650390625,-0.6130218505859375,0.274688720703125,0.7767333984375
1772701676812864800,1.70386474609375,-0.607391357421875,0.2720489501953125,0.773284912109375
1772701676822912800,1.713912841796875,-0.5955810546875,0.2728424072265625,0.773193359375
1772701676832960800,1.723960693359375,-0.5894622802734375,0.2708892822265625,0.77117919921875
1772701676843008800,1.7340087890625,-0.585357666015625,0.2723541259765625,0.7700958251953125
1772701676853056800,1.744056884765625,-0.578033447265625,0.2776947021484375,0.7694091796875
1772701676863105800,1.754105712890625,-0.5700531005859375,0.2840118408203125,0.7610931396484375
1772701676873153800,1.76415380859375,-0.5672607421875,0.2873992919921875,0.7526702880859375
1772701676883201800,1.774201904296875,-0.5691986083984375,0.2850799560546875,0.740875244140625
1772701676893249800,1.784249755859375,-0.57391357421875,0.285675048828125,0.7340087890625
1772701676903297500,1.794297607421875,-0.5729827880859375,0.28790283203125,0.7288665771484375
1772701676913345800,1.804345703125,-0.5706634521484375,0.2898406982421875,0.71868896484375
1772701676923393800,1.814393798828125,-0.56561279296875,0.294677734375,0.72039794921875
1772701676933441800,1.82444189453125,-0.554840087890625,0.30621337890625,0.7216339111328125
1772701676943489800,1.83448974609375,-0.5536651611328125,0.308349609375,0.7223358154296875
1772701676953537800,1.844537841796875,-0.5440673828125,0.29632568359375,0.723846435546875
1772701676963585800,1.854585693359375,-0.5289154052734375,0.2892913818359375,0.7272186279296875
1772701676973634800,1.864634765625,-0.5218505859375,0.29327392578125,0.7277374267578125
1772701676983682800,1.874682861328125,-0.5223541259765625,0.3017120361328125,0.7239532470703125
1772701676993730800,1.884730712890625,-0.5335693359375,0.3118896484375,0.7282562255859375
1772701677003778800,1.89477880859375,-0.5490264892578125,0.315673828125,0.73626708984375
1772701677013826800,1.904826904296875,-0.5604400634765625,0.316864013671875,0.736236572265625
1772701677023874800,1.914874755859375,-0.5697479248046875,0.3180999755859375,0.739105224609375
1772701677033922600,1.924922607421875,-0.5782318115234375,0.319580078125,0.749298095703125
1772701677043970800,1.934970703125,-0.5891265869140625,0.3203582763671875,0.7590179443359375
1772701677054018800,1.945018798828125,-0.599609375,0.3200531005859375,0.7696990966796875
1772701677064066800,1.95506689453125,-0.6116180419921875,0.32061767578125,0.7768402099609375
1772701677074114800,1.96511474609375,-0.626495361328125,0.31353759765625,0.7816925048828125
1772701677084163600,1.97516357421875,-0.64324951171875,0.3136749267578125,0.7822113037109375
1772701677094211800,1.9852119140625,-0.659820556640625,0.3153533935546875,0.775604248046875
1772701677104259800,1.995259765625,-0.673797607421875,0.3103179931640625,0.7623748779296875
1772701677114307800,2.005307861328125,-0.687408447265625,0.2978515625,0.74688720703125
1772701677124355800,2.01535595703125,-0.7066497802734375,0.291595458984375,0.750030517578125
1772701677134403600,2.025403564453125,-0.6531524658203125,0.287078857421875,0.8270263671875
1772701677144451800,2.035451904296875,-0.53265380859375,0.3256072998046875,0.972198486328125
1772701677154499000,2.0454990234375,-0.6076507568359375,0.3751373291015625,0.960296630859375
1772701677164547300,2.05554736328125,-0.6270599365234375,0.391845703125,0.8990631103515625
1772701677174595000,2.065594970703125,-0.561126708984375,0.3889312744140625,0.90484619140625
1772701677184643300,2.075643310546875,-0.549530029296875,0.379791259765625,0.91558837890625
1772701677194692000,2.085692138671875,-0.555694580078125,0.3791961669921875,0.9102020263671875
1772701677204740000,2.095739990234375,-0.5233154296875,0.3935394287109375,0.9228973388671875
1772701677214788000,2.1057880859375,-0.499053955078125,0.396392822265625,0.9299774169921875
1772701677224836000,2.115836181640625,-0.5184783935546875,0.3666839599609375,0.894927978515625
1772701677234884400,2.12588427734375,-0.5480499267578125,0.33843994140625,0.8489837646484375
1772701677244932000,2.13593212890625,-0.55767822265625,0.3396453857421875,0.8220062255859375
1772701677254980000,2.14597998046875,-0.537811279296875,0.3360443115234375,0.775665283203125
1772701677265028400,2.1560283203125,-0.5105743408203125,0.30706787109375,0.7288818359375
1772701677275076000,2.166076171875,-0.48931884765625,0.24432373046875,0.6873016357421875
1772701677285124000,2.1761240234375,-0.4760284423828125,0.2001495361328125,0.6761627197265625
1772701677295172000,2.186172119140625,-0.4716949462890625,0.194122314453125,0.6876220703125
1772701677305221000,2.19622119140625,-0.4858856201171875,0.2098236083984375,0.7129669189453125
1772701677315269000,2.20626904296875,-0.490203857421875,0.2332611083984375,0.7401885986328125
1772701677325317000,2.216317138671875,-0.4728240966796875,0.244140625,0.7722320556640625
1772701677335365000,2.226365234375,-0.466888427734375,0.2485198974609375,0.7989501953125
1772701677345413000,2.2364130859375,-0.4646759033203125,0.2464447021484375,0.8199462890625
1772701677355461000,2.246461181640625,-0.4495086669921875,0.246002197265625,0.84442138671875
1772701677365509000,2.256509033203125,-0.439727783203125,0.2475128173828125,0.8620758056640625
1772701677375557000,2.26655712890625,-0.4383544921875,0.2503814697265625,0.878936767578125
1772701677385605000,2.276605224609375,-0.4343109130859375,0.2625885009765625,0.8904571533203125
1772701677395653000,2.286653076171875,-0.4240570068359375,0.2653045654296875,0.8900604248046875
1772701677405701000,2.296701171875,-0.420013427734375,0.270538330078125,0.89508056640625
1772701677415750100,2.306750244140625,-0.4163970947265625,0.2692413330078125,0.900177001953125
1772701677425798100,2.316798095703125,-0.4115142822265625,0.2581634521484375,0.90826416015625
1772701677435846100,2.32684619140625,-0.4071044921875,0.2448272705078125,0.9062652587890625
1772701677445894100,2.33689404296875,-0.4022216796875,0.2288818359375,0.8960723876953125
1772701677455942100,2.346942138671875,-0.3905181884765625,0.2198638916015625,0.885040283203125
1772701677465990100,2.356990234375,-0.39373779296875,0.206451416015625,0.873382568359375
1772701677476038100,2.3670380859375,-0.4024505615234375,0.1938934326171875,0.8658447265625
1772701677486086100,2.377086181640625,-0.4147491455078125,0.186065673828125,0.8593597412109375
1772701677496134100,2.387134033203125,-0.4289398193359375,0.17413330078125,0.8619842529296875
1772701677506182100,2.39718212890625,-0.43597412109375,0.1721343994140625,0.869140625
1772701677516231200,2.407231201171875,-0.4453125,0.1767730712890625,0.8787078857421875
1772701677526279200,2.417279052734375,-0.4610443115234375,0.1808624267578125,0.8945159912109375
1772701677536327200,2.4273271484375,-0.4766387939453125,0.18975830078125,0.915924072265625
1772701677546375000,2.437375,-0.4845733642578125,0.202484130859375,0.92822265625
1772701677556423200,2.447423095703125,-0.4905548095703125,0.207244873046875,0.919189453125
1772701677566471200,2.45747119140625,-0.4946441650390625,0.2102508544921875,0.8980560302734375
1772701677576519200,2.467519287109375,-0.5018157958984375,0.2136383056640625,0.8815155029296875
1772701677586567200,2.477567138671875,-0.5086669921875,0.22113037109375,0.8706512451171875
1772701677596615200,2.487615234375,-0.5111083984375,0.225799560546875,0.858856201171875
1772701677606663200,2.4976630859375,-0.5162353515625,0.2230682373046875,0.8480072021484375
1772701677616711200,2.507711181640625,-0.519287109375,0.2147216796875,0.8360443115234375
1772701677626760200,2.51776025390625,-0.520751953125,0.2084808349609375,0.827911376953125
1772701677636808200,2.52780810546875,-0.5221710205078125,0.2053680419921875,0.8204193115234375
1772701677646856200,2.537856201171875,-0.5174407958984375,0.1990814208984375,0.81524658203125
1772701677656904200,2.547904296875,-0.5084686279296875,0.1951446533203125,0.8084716796875
1772701677666952200,2.5579521484375,-0.4997406005859375,0.1942138671875,0.8087615966796875
1772701677677000000,2.568,-0.4938201904296875,0.1877288818359375,0.808746337890625
1772701677687048200,2.578048095703125,-0.4847412109375,0.1883087158203125,0.8126678466796875
1772701677697096200,2.58809619140625,-0.4647369384765625,0.190704345703125,0.8128662109375
1772701677707144200,2.598144287109375,-0.4434967041015625,0.189208984375,0.8091583251953125
1772701677717192200,2.608192138671875,-0.4292449951171875,0.1806488037109375,0.8047027587890625
1772701677727241000,2.618240966796875,-0.4258880615234375,0.169219970703125,0.8011932373046875
1772701677737289200,2.628289306640625,-0.4297943115234375,0.1644287109375,0.8011474609375
1772701677747337200,2.638337158203125,-0.4441375732421875,0.1592559814453125,0.8094482421875
1772701677757385200,2.64838525390625,-0.4580841064453125,0.157196044921875,0.8193511962890625
1772701677767433200,2.65843310546875,-0.47454833984375,0.1543731689453125,0.8289031982421875
1772701677777481000,2.66848095703125,-0.4920806884765625,0.1530609130859375,0.838104248046875
1772701677787529200,2.678529296875,-0.507476806640625,0.1546783447265625,0.844329833984375
1772701677797577200,2.6885771484375,-0.5233612060546875,0.152587890625,0.849395751953125
1772701677807625000,2.698625,-0.541595458984375,0.1526641845703125,0.84759521484375
1772701677817673200,2.708673095703125,-0.557525634765625,0.1568603515625,0.8444671630859375
1772701677827721200,2.71872119140625,-0.567779541015625,0.1563568115234375,0.83843994140625
1772701677837770200,2.728770263671875,-0.5740966796875,0.157196044921875,0.8285369873046875
1772701677847818200,2.738818359375,-0.581634521484375,0.1651153564453125,0.8172454833984375
1772701677857866000,2.748865966796875,-0.5901641845703125,0.173431396484375,0.804229736328125
1772701677867914200,2.758914306640625,-0.5943145751953125,0.1780548095703125,0.798065185546875
1772701677877962200,2.768962158203125,-0.5971527099609375,0.18170166015625,0.794921875
1772701677888010200,2.77901025390625,-0.602294921875,0.1851806640625,0.790069580078125
1772701677898058200,2.789058349609375,-0.602386474609375,0.189666748046875,0.788360595703125
1772701677908106000,2.79910595703125,-0.5960693359375,0.1881561279296875,0.7837677001953125
1772701677918154200,2.809154296875,-0.5873260498046875,0.1860504150390625,0.778228759765625
1772701677928202200,2.8192021484375,-0.5848541259765625,0.1817474365234375,0.773101806640625
1772701677938251300,2.829251220703125,-0.577545166015625,0.1802520751953125,0.765594482421875
1772701677948299300,2.83929931640625,-0.5719451904296875,0.1786956787109375,0.7600250244140625
1772701677958347000,2.849346923828125,-0.5722198486328125,0.1781768798828125,0.7530975341796875
1772701677968395300,2.859395263671875,-0.570159912109375,0.1781463623046875,0.75048828125
1772701677978443300,2.869443359375,-0.561920166015625,0.1751861572265625,0.74603271484375
1772701677988491000,2.879490966796875,-0.559783935546875,0.1723785400390625,0.74761962890625
1772701677998539300,2.889539306640625,-0.5632171630859375,0.18072509765625,0.74957275390625
1772701678008587000,2.8995869140625,-0.5648956298828125,0.1882171630859375,0.748382568359375
1772701678018635000,2.909635009765625,-0.5740509033203125,0.18994140625,0.740325927734375
1772701678028683300,2.919683349609375,-0.586578369140625,0.1916961669921875,0.7377777099609375
1772701678038732000,2.92973193359375,-0.5882415771484375,0.17596435546875,0.741485595703125
1772701678048780300,2.9397802734375,-0.5828857421875,0.170318603515625,0.76171875
1772701678058828000,2.949828125,-0.5914306640625,0.1902313232421875,0.7698822021484375
1772701678068876300,2.959876220703125,-0.610626220703125,0.2037353515625,0.76959228515625
1772701678078924300,2.96992431640625,-0.6285552978515625,0.2089691162109375,0.768096923828125
1772701678088972000,2.979971923828125,-0.631256103515625,0.213623046875,0.765380859375
1772701678099020300,2.990020263671875,-0.5985870361328125,0.2150726318359375,0.7711639404296875
1772701678109068000,3.000068115234375,-0.5969085693359375,0.2120819091796875,0.7706146240234375
1772701678119116000,3.010115966796875,-0.6486663818359375,0.1992034912109375,0.7451019287109375
1772701678129164300,3.020164306640625,-0.6942138671875,0.1926727294921875,0.7212066650390625
1772701678139212000,3.0302119140625,-0.706878662109375,0.1887664794921875,0.7139892578125
1772701678149261300,3.04026123046875,-0.689666748046875,0.183929443359375,0.7121734619140625
1772701678159309300,3.050309326171875,-0.6715087890625,0.1787109375,0.7297821044921875
1772701678169357600,3.060357666015625,-0.6328887939453125,0.189605712890625,0.813751220703125
1772701678179405600,3.070405517578125,-0.5988922119140625,0.2262725830078125,0.9385528564453125
1772701678189453300,3.080453369140625,-0.6049957275390625,0.2513427734375,0.9809722900390625
1772701678199501600,3.09050146484375,-0.58258056640625,0.2444305419921875,0.984039306640625
1772701678209549300,3.10054931640625,-0.5535888671875,0.23809814453125,0.99176025390625
1772701678219597300,3.110597412109375,-0.5540008544921875,0.244232177734375,1.001800537109375
1772701678229645600,3.1206455078125,-0.587921142578125,0.258880615234375,1.009185791015625
1772701678239693300,3.130693359375,-0.643280029296875,0.2704925537109375,1.016571044921875
1772701678249742600,3.14074267578125,-0.69384765625,0.2869415283203125,0.9803466796875
1772701678259790300,3.150790283203125,-0.7133331298828125,0.302947998046875,0.8874664306640625
1772701678269838300,3.16083837890625,-0.71044921875,0.300079345703125,0.84796142578125
1772701678279886600,3.170886474609375,-0.7128448486328125,0.2733917236328125,0.8603668212890625
1772701678289934300,3.180934326171875,-0.71197509765625,0.208526611328125,0.833465576171875
1772701678299982600,3.190982666015625,-0.6774749755859375,0.1651458740234375,0.8163604736328125
1772701678310030300,3.2010302734375,-0.6372833251953125,0.1608123779296875,0.82806396484375
1772701678320078300,3.211078369140625,-0.6080474853515625,0.18206787109375,0.8371429443359375
1772701678330126600,3.221126708984375,-0.57916259765625,0.1998443603515625,0.8139495849609375
1772701678340174300,3.23117431640625,-0.544921875,0.2271270751953125,0.7841339111328125
1772701678350223600,3.2412236328125,-0.50445556640625,0.25970458984375,0.766876220703125
1772701678360271400,3.251271240234375,-0.4655609130859375,0.28387451171875,0.739227294921875
1772701678370319400,3.2613193359375,-0.439239501953125,0.28790283203125,0.723419189453125
1772701678380367600,3.27136767578125,-0.42767333984375,0.2824554443359375,0.7191619873046875
1772701678390415400,3.281415283203125,-0.425689697265625,0.2774658203125,0.721221923828125
1772701678400463400,3.29146337890625,-0.424591064453125,0.2722930908203125,0.7333526611328125
1772701678410511600,3.30151171875,-0.428558349609375,0.2687530517578125,0.741546630859375
1772701678420559400,3.311559326171875,-0.42828369140625,0.2718963623046875,0.7349700927734375
1772701678430607600,3.321607666015625,-0.4267425537109375,0.2755126953125,0.735595703125
1772701678440655400,3.3316552734375,-0.427001953125,0.27093505859375,0.7347259521484375
1772701678450704400,3.341704345703125,-0.4363250732421875,0.2637176513671875,0.7339019775390625
1772701678460752400,3.35175244140625,-0.45013427734375,0.26678466796875,0.7308349609375
1772701678470800400,3.36180029296875,-0.4576568603515625,0.275970458984375,0.7256317138671875
1772701678480848600,3.3718486328125,-0.4793853759765625,0.2790069580078125,0.7263031005859375
1772701678490896400,3.381896484375,-0.496063232421875,0.2957305908203125,0.7210693359375
1772701678500944400,3.3919443359375,-0.5318756103515625,0.3029632568359375,0.7109222412109375
1772701678510992600,3.40199267578125,-0.5687103271484375,0.3169708251953125,0.691619873046875
1772701678521040400,3.412040283203125,-0.58721923828125,0.3304901123046875,0.6787567138671875
1772701678531088400,3.42208837890625,-0.5858612060546875,0.3546142578125,0.711273193359375
1772701678541136400,3.432136474609375,-0.5821685791015625,0.376800537109375,0.7427520751953125
1772701678551185400,3.442185302734375,-0.601837158203125,0.3876800537109375,0.761871337890625
1772701678561233400,3.4522333984375,-0.6192626953125,0.388153076171875,0.780609130859375
1772701678571281400,3.462281494140625,-0.6288299560546875,0.37872314453125,0.8018341064453125
1772701678581329400,3.472329345703125,-0.6518096923828125,0.3701324462890625,0.8312835693359375
1772701678591377400,3.48237744140625,-0.6566925048828125,0.3551177978515625,0.8394775390625
1772701678601425400,3.49242529296875,-0.644561767578125,0.354248046875,0.8374176025390625
1772701678611473700,3.5024736328125,-0.630584716796875,0.3573455810546875,0.81781005859375
1772701678621521400,3.512521484375,-0.6048583984375,0.3473663330078125,0.7799224853515625
1772701678631569400,3.5225693359375,-0.5750579833984375,0.34234619140625,0.754241943359375
1772701678641617700,3.53261767578125,-0.547210693359375,0.3426361083984375,0.7305755615234375
1772701678651666400,3.54266650390625,-0.5253753662109375,0.345916748046875,0.7099151611328125
1772701678661714400,3.55271435546875,-0.5090484619140625,0.33624267578125,0.693023681640625
1772701678671762400,3.562762451171875,-0.4884033203125,0.3313446044921875,0.690948486328125
1772701678681810400,3.572810546875,-0.4773712158203125,0.33355712890625,0.6860504150390625
1772701678691858400,3.5828583984375,-0.467041015625,0.3521728515625,0.68475341796875
1772701678701906400,3.592906494140625,-0.4643402099609375,0.36651611328125,0.6885833740234375
1772701678711954400,3.602954345703125,-0.4734954833984375,0.3835296630859375,0.69378662109375
1772701678722002400,3.61300244140625,-0.48260498046875,0.389251708984375,0.7000885009765625
1772701678732050400,3.623050537109375,-0.4976348876953125,0.39031982421875,0.711639404296875
1772701678742098400,3.633098388671875,-0.5088348388671875,0.386993408203125,0.7215118408203125
1772701678752147500,3.6431474609375,-0.5212554931640625,0.3875274658203125,0.7296295166015625
1772701678762195500,3.653195556640625,-0.541290283203125,0.3829345703125,0.7314910888671875
1772701678772243500,3.663243408203125,-0.556121826171875,0.365966796875,0.7304840087890625
1772701678782291500,3.67329150390625,-0.567840576171875,0.342559814453125,0.7294769287109375
1772701678792339200,3.683339111328125,-0.5824432373046875,0.319183349609375,0.7284088134765625
1772701678802387500,3.693387451171875,-0.5898895263671875,0.3083953857421875,0.727325439453125
1772701678812435500,3.703435546875,-0.5923004150390625,0.3061065673828125,0.7241058349609375
1772701678822483500,3.7134833984375,-0.5953369140625,0.2999114990234375,0.72247314453125
1772701678832531500,3.723531494140625,-0.6042327880859375,0.29107666015625,0.7232513427734375
1772701678842579500,3.733579345703125,-0.605377197265625,0.282867431640625,0.72650146484375
1772701678852628500,3.74362841796875,-0.5949249267578125,0.2723846435546875,0.739288330078125
1772701678862676500,3.753676513671875,-0.5772247314453125,0.2599945068359375,0.7591400146484375
1772701678872724500,3.763724365234375,-0.5716705322265625,0.2557220458984375,0.7763671875
1772701678882772500,3.7737724609375,-0.578643798828125,0.245758056640625,0.792266845703125
1772701678892820500,3.783820556640625,-0.588653564453125,0.23583984375,0.797882080078125
1772701678902868500,3.793868408203125,-0.6022491455078125,0.2314910888671875,0.802978515625
1772701678912916500,3.80391650390625,-0.612457275390625,0.2354736328125,0.8158416748046875
1772701678922964200,3.813964111328125,-0.62042236328125,0.246337890625,0.816986083984375
1772701678933012500,3.824012451171875,-0.6349029541015625,0.268524169921875,0.8170623779296875
1772701678943060500,3.834060546875,-0.6451873779296875,0.3000946044921875,0.809906005859375
1772701678953109500,3.844109619140625,-0.6572418212890625,0.3212432861328125,0.80572509765625
1772701678963157500,3.854157470703125,-0.6590728759765625,0.3249053955078125,0.8150634765625
1772701678973205200,3.864205322265625,-0.6431884765625,0.33270263671875,0.82421875
1772701678983253500,3.87425341796875,-0.6260833740234375,0.3448028564453125,0.817626953125
1772701678993301500,3.884301513671875,-0.6131591796875,0.35833740234375,0.8073577880859375
1772701679003349500,3.894349609375,-0.601531982421875,0.363250732421875,0.8015289306640625
1772701679013397500,3.9043974609375,-0.5977020263671875,0.3586578369140625,0.7951812744140625
1772701679023445200,3.9144453125,-0.59478759765625,0.3503265380859375,0.7797698974609375
1772701679033493500,3.924493408203125,-0.597686767578125,0.34405517578125,0.762603759765625
1772701679043542300,3.934542236328125,-0.6020050048828125,0.33709716796875,0.74298095703125
1772701679053590500,3.944590576171875,-0.6146087646484375,0.3255462646484375,0.72894287109375
1772701679063638500,3.954638427734375,-0.61981201171875,0.313323974609375,0.71368408203125
1772701679073686300,3.964686279296875,-0.62677001953125,0.2982025146484375,0.699371337890625
1772701679083734500,3.974734619140625,-0.6344451904296875,0.28662109375,0.69720458984375
1772701679093782500,3.984782470703125,-0.6335906982421875,0.2888946533203125,0.7169036865234375
1772701679103830300,3.994830322265625,-0.595367431640625,0.320465087890625,0.8040771484375
1772701679113878500,4.00487841796875,-0.5116119384765625,0.3515167236328125,0.9698333740234375
1772701679123926500,4.014926513671875,-0.5155029296875,0.3879241943359375,1.0333251953125
1772701679133974500,4.024974609375,-0.5395355224609375,0.4124908447265625,1.005218505859375
1772701679144023300,4.035023193359375,-0.5371551513671875,0.411651611328125,0.98101806640625
1772701679154071000,4.045071044921875,-0.552642822265625,0.3950347900390625,0.9554443359375
1772701679164119300,4.055119384765625,-0.569305419921875,0.3828125,0.93548583984375
1772701679174167000,4.0651669921875,-0.566680908203125,0.3585052490234375,0.942291259765625
1772701679184215300,4.07521533203125,-0.604461669921875,0.3150482177734375,0.939483642578125
1772701679194263300,4.08526318359375,-0.6441192626953125,0.26116943359375,0.9139862060546875
1772701679204311000,4.09531103515625,-0.6240692138671875,0.2318878173828125,0.9043121337890625
1772701679214359300,4.105359375,-0.5598297119140625,0.22918701171875,0.9097137451171875
1772701679224407300,4.1154072265625,-0.4897918701171875,0.253082275390625,0.905548095703125
1772701679234456300,4.125456298828125,-0.43365478515625,0.265380859375,0.8670806884765625
1772701679244504300,4.13550439453125,-0.3779449462890625,0.277069091796875,0.8348541259765625
1772701679254552000,4.145552001953125,-0.3337554931640625,0.2912139892578125,0.8134613037109375
1772701679264600300,4.155600341796875,-0.30560302734375,0.290863037109375,0.7747650146484375
1772701679274648000,4.16564794921875,-0.302032470703125,0.29364013671875,0.7492523193359375
1772701679284696000,4.175696044921875,-0.296966552734375,0.2902069091796875,0.7360992431640625
1772701679294744300,4.185744384765625,-0.2965850830078125,0.2887725830078125,0.7351837158203125
1772701679304792000,4.1957919921875,-0.3077850341796875,0.281494140625,0.7398834228515625
1772701679314840000,4.205840087890625,-0.334259033203125,0.266204833984375,0.7382049560546875
1772701679324888300,4.215888427734375,-0.3703765869140625,0.250823974609375,0.7346649169921875
1772701679334937000,4.22593701171875,-0.39794921875,0.2433624267578125,0.7319793701171875
1772701679344985300,4.2359853515625,-0.426239013671875,0.241424560546875,0.745849609375
1772701679355033000,4.246033203125,-0.4484405517578125,0.2490081787109375,0.77056884765625
1772701679365081300,4.256081298828125,-0.470947265625,0.2664947509765625,0.7912139892578125
1772701679375129300,4.26612939453125,-0.4922637939453125,0.27301025390625,0.793304443359375
1772701679385177000,4.276177001953125,-0.5166168212890625,0.2624969482421875,0.80279541015625
1772701679395225300,4.286225341796875,-0.5482177734375,0.249237060546875,0.83209228515625
1772701679405273000,4.296273193359375,-0.5696563720703125,0.2342529296875,0.863494873046875
1772701679415321000,4.306321044921875,-0.5938873291015625,0.234405517578125,0.8956756591796875
1772701679425370000,4.3163701171875,-0.610076904296875,0.233001708984375,0.9266357421875
1772701679435418000,4.326418212890625,-0.623199462890625,0.2179107666015625,0.945037841796875
1772701679445466400,4.33646630859375,-0.6388397216796875,0.1926727294921875,0.9572906494140625
1772701679455514000,4.34651416015625,-0.6038818359375,0.1432342529296875,0.9220733642578125
1772701679465562000,4.35656201171875,-0.5630645751953125,0.1177520751953125,0.8574371337890625
1772701679475610400,4.3666103515625,-0.56658935546875,0.1443939208984375,0.8266754150390625
1772701679485658000,4.376658203125,-0.5850372314453125,0.1475830078125,0.7647552490234375
1772701679495706000,4.3867060546875,-0.578125,0.1419677734375,0.7081146240234375
1772701679505754000,4.396754150390625,-0.555816650390625,0.1544189453125,0.680877685546875
1772701679515802000,4.406802001953125,-0.5251312255859375,0.1806182861328125,0.665496826171875
1772701679525851100,4.41685107421875,-0.4946441650390625,0.1942901611328125,0.6666107177734375
1772701679535899100,4.426899169921875,-0.4730377197265625,0.20404052734375,0.6797943115234375
1772701679545947100,4.436947021484375,-0.4545135498046875,0.204681396484375,0.712493896484375
1772701679555995100,4.4469951171875,-0.4330902099609375,0.2156829833984375,0.7342071533203125
1772701679566043100,4.457043212890625,-0.4266357421875,0.2310791015625,0.7433624267578125
1772701679576091400,4.46709130859375,-0.4572601318359375,0.2133331298828125,0.766632080078125
1772701679586139100,4.47713916015625,-0.481231689453125,0.1962127685546875,0.7774505615234375
1772701679596187100,4.487187255859375,-0.4928131103515625,0.186981201171875,0.7768707275390625
1772701679606235400,4.4972353515625,-0.5076904296875,0.185821533203125,0.7765045166015625
1772701679616284200,4.5072841796875,-0.5260467529296875,0.1918792724609375,0.7831268310546875
1772701679626332200,4.517332275390625,-0.550811767578125,0.1973724365234375,0.7906494140625
1772701679636380200,4.527380126953125,-0.5796356201171875,0.199188232421875,0.7924652099609375
1772701679646428200,4.53742822265625,-0.5987548828125,0.2017059326171875,0.79962158203125
1772701679656476200,4.54747607421875,-0.6077423095703125,0.205718994140625,0.799346923828125
1772701679666524200,4.557524169921875,-0.59674072265625,0.206512451171875,0.801361083984375
1772701679676572200,4.567572265625,-0.5898284912109375,0.2026519775390625,0.7972259521484375
1772701679686620200,4.5776201171875,-0.591094970703125,0.1865234375,0.784637451171875
1772701679696668200,4.587668212890625,-0.606109619140625,0.1723175048828125,0.781524658203125
1772701679706716400,4.59771630859375,-0.619384765625,0.1654052734375,0.7628631591796875
1772701679716765200,4.60776513671875,-0.6261749267578125,0.16717529296875,0.7450103759765625
1772701679726813200,4.617813232421875,-0.625091552734375,0.1711578369140625,0.730499267578125
1772701679736861200,4.627861083984375,-0.6298980712890625,0.1646728515625,0.7292938232421875
1772701679746909200,4.6379091796875,-0.6302337646484375,0.158843994140625,0.73004150390625
1772701679756957200,4.647957275390625,-0.6378936767578125,0.151153564453125,0.7423553466796875
1772701679767005200,4.658005126953125,-0.6168212890625,0.1610260009765625,0.773590087890625
1772701679777053200,4.66805322265625,-0.5768280029296875,0.1515960693359375,0.7905120849609375
1772701679787101200,4.67810107421875,-0.55633544921875,0.190032958984375,0.75872802734375
1772701679797149200,4.688149169921875,-0.5717926025390625,0.21392822265625,0.781982421875
1772701679807198200,4.6981982421875,-0.573455810546875,0.221588134765625,0.7831573486328125
1772701679817246200,4.70824609375,-0.5699920654296875,0.2227935791015625,0.78607177734375
1772701679827294200,4.718294189453125,-0.5771026611328125,0.2249908447265625,0.8018646240234375
1772701679837342200,4.72834228515625,-0.600860595703125,0.22412109375,0.83929443359375
1772701679847390200,4.73839013671875,-0.631378173828125,0.218048095703125,0.869598388671875
1772701679857438200,4.748438232421875,-0.6677703857421875,0.2042236328125,0.8741912841796875
1772701679867486200,4.758486328125,-0.6880340576171875,0.1775360107421875,0.8698883056640625
1772701679877534200,4.7685341796875,-0.698333740234375,0.1416778564453125,0.8607025146484375
1772701679887582200,4.778582275390625,-0.7061309814453125,0.064056396484375,0.844390869140625
1772701679897631200,4.78863134765625,-0.701416015625,0.005950927734375,0.8141937255859375
1772701679907679000,4.798678955078125,-0.692169189453125,0.0054779052734375,0.825714111328125
1772701679917727200,4.808727294921875,-0.673004150390625,0.03118896484375,0.86749267578125
1772701679927775200,4.818775146484375,-0.6260223388671875,0.0726165771484375,0.97802734375
1772701679937823200,4.8288232421875,-0.623931884765625,0.1510467529296875,1.05224609375
1772701679947871200,4.838871337890625,-0.6659088134765625,0.2339324951171875,1.0145263671875
1772701679957919200,4.848919189453125,-0.656280517578125,0.278411865234375,1.0034332275390625
1772701679967967200,4.85896728515625,-0.604736328125,0.24896240234375,1.0414581298828125
1772701679978015200,4.86901513671875,-0.5677490234375,0.2141876220703125,1.0877532958984375
1772701679988063000,4.87906298828125,-0.5490570068359375,0.170867919921875,1.0804290771484375
1772701679998112300,4.8891123046875,-0.539031982421875,0.1143798828125,1.0329132080078125
1772701680008160000,4.899159912109375,-0.5345916748046875,0.07305908203125,0.9625396728515625
1772701680018208300,4.909208251953125,-0.5110931396484375,0.053955078125,0.8489837646484375
1772701680028256300,4.91925634765625,-0.4939727783203125,0.0518646240234375,0.8193206787109375
1772701680038304000,4.929303955078125,-0.459747314453125,0.06103515625,0.82281494140625
1772701680048352300,4.939352294921875,-0.427734375,0.0744476318359375,0.7789306640625
1772701680058400300,4.949400146484375,-0.41046142578125,0.094207763671875,0.711212158203125
1772701680068448300,4.9594482421875,-0.388702392578125,0.1031036376953125,0.6881866455078125
1772701680078496300,4.969496337890625,-0.35919189453125,0.10296630859375,0.7218475341796875
1772701680088545000,4.979544921875,-0.326629638671875,0.089141845703125,0.7644195556640625
1772701680098593300,4.98959326171875,-0.302825927734375,0.0770416259765625,0.7820587158203125
1772701680108641000,4.99964111328125,-0.3030548095703125,0.076629638671875,0.76373291015625
1772701680118689300,5.009689208984375,-0.3480224609375,0.107666015625,0.7129364013671875
1772701680128737300,5.0197373046875,-0.3830718994140625,0.127655029296875,0.679656982421875
1772701680138785000,5.029784912109375,-0.392913818359375,0.1321258544921875,0.69525146484375
1772701680148833300,5.039833251953125,-0.3982086181640625,0.1479644775390625,0.7439422607421875
1772701680158881300,5.04988134765625,-0.431793212890625,0.1561126708984375,0.786407470703125
1772701680168930300,5.059930419921875,-0.481658935546875,0.1747894287109375,0.821441650390625
1772701680178978300,5.069978271484375,-0.5436248779296875,0.19403076171875,0.85821533203125
1772701680189026300,5.0800263671875,-0.61865234375,0.203857421875,0.9190216064453125
1772701680199074300,5.09007421875,-0.6743621826171875,0.2077484130859375,1.0086212158203125
1772701680209122300,5.100122314453125,-0.728118896484375,0.1973419189453125,1.0660400390625
1772701680219170300,5.11017041015625,-0.76617431640625,0.1553955078125,1.1271514892578125
1772701680229218300,5.12021826171875,-0.8073272705078125,0.1038360595703125,1.1470184326171875
1772701680239266000,5.13026611328125,-0.811981201171875,0.05340576171875,1.0801849365234375
1772701680249314300,5.140314208984375,-0.7510833740234375,0.0145416259765625,0.94805908203125
1772701680259362300,5.1503623046875,-0.675048828125,-0.0118865966796875,0.8089447021484375
1772701680269411300,5.160411376953125,-0.609130859375,-0.0207672119140625,0.7281951904296875
1772701680279459300,5.170459228515625,-0.561370849609375,0.0185546875,0.7119293212890625
1772701680289507300,5.18050732421875,-0.53131103515625,0.0834808349609375,0.7466888427734375
1772701680299555300,5.190555419921875,-0.4893035888671875,0.141357421875,0.7556915283203125
1772701680309603300,5.200603271484375,-0.43463134765625,0.170196533203125,0.7251434326171875
1772701680319651300,5.2106513671875,-0.4141082763671875,0.1819000244140625,0.725128173828125
1772701680329699300,5.22069921875,-0.4370269775390625,0.18902587890625,0.744720458984375
1772701680339747000,5.2307470703125,-0.4786376953125,0.1954498291015625,0.7542877197265625
1772701680349795300,5.24079541015625,-0.5172119140625,0.19903564453125,0.742156982421875
1772701680359844000,5.250843994140625,-0.55023193359375,0.215545654296875,0.7056732177734375
1772701680369892400,5.260892333984375,-0.5742645263671875,0.2319183349609375,0.689727783203125
1772701680379940400,5.2709404296875,-0.5830078125,0.220733642578125,0.6988372802734375
1772701680389988000,5.280988037109375,-0.5767364501953125,0.1892547607421875,0.7024078369140625
1772701680400036400,5.291036376953125,-0.5659027099609375,0.1590576171875,0.713104248046875
1772701680410084400,5.30108447265625,-0.55999755859375,0.138397216796875,0.727630615234375
1772701680420132000,5.311132080078125,-0.5586700439453125,0.1266326904296875,0.7357330322265625
1772701680430180400,5.321180419921875,-0.55462646484375,0.1148834228515625,0.7366943359375
1772701680440228000,5.33122802734375,-0.5576934814453125,0.106201171875,0.7236328125
1772701680450277400,5.34127734375,-0.577392578125,0.1031036376953125,0.723724365234375
1772701680460325000,5.3513251953125,-0.608856201171875,0.100738525390625,0.7314300537109375
1772701680470373400,5.361373291015625,-0.6392059326171875,0.0960235595703125,0.74346923828125
1772701680480421400,5.37142138671875,-0.6572113037109375,0.0977020263671875,0.7512359619140625
1772701680490469000,5.38146923828125,-0.6785430908203125,0.10662841796875,0.7516326904296875
1772701680500517400,5.391517333984375,-0.700836181640625,0.128570556640625,0.7549896240234375
1772701680510565400,5.4015654296875,-0.712860107421875,0.147186279296875,0.7512969970703125
1772701680520613000,5.411613037109375,-0.708282470703125,0.1527099609375,0.7365570068359375
1772701680530661400,5.421661376953125,-0.69793701171875,0.1471099853515625,0.74072265625
1772701680540710100,5.431710205078125,-0.6785888671875,0.155120849609375,0.747283935546875
1772701680550758400,5.44175830078125,-0.6676025390625,0.1674652099609375,0.7611846923828125
1772701680560806400,5.451806396484375,-0.6585845947265625,0.17681884765625,0.7900390625
1772701680570854100,5.461854248046875,-0.6573333740234375,0.196929931640625,0.8034515380859375
1772701680580902400,5.47190234375,-0.663116455078125,0.208038330078125,0.807037353515625
1772701680590950100,5.4819501953125,-0.67218017578125,0.214324951171875,0.8231201171875
1772701680600998100,5.491998046875,-0.6717681884765625,0.21649169921875,0.822998046875
1772701680611046400,5.50204638671875,-0.67535400390625,0.2230224609375,0.83123779296875
1772701680621094100,5.51209423828125,-0.6799163818359375,0.2167510986328125,0.826324462890625
1772701680631143400,5.522143310546875,-0.680999755859375,0.2139129638671875,0.8012237548828125
1772701680641191200,5.532191162109375,-0.6634521484375,0.207000732421875,0.7735137939453125
1772701680651239200,5.5422392578125,-0.6079254150390625,0.221405029296875,0.78826904296875
1772701680661287400,5.552287353515625,-0.5266876220703125,0.2660064697265625,0.89056396484375
1772701680671335200,5.562335205078125,-0.48553466796875,0.3265228271484375,1.0433349609375
1772701680681383400,5.572383544921875,-0.5005950927734375,0.3642425537109375,1.0293426513671875
1772701680691431200,5.58243115234375,-0.5337982177734375,0.3501434326171875,0.9381103515625
1772701680701479200,5.592479248046875,-0.54827880859375,0.290863037109375,0.8933868408203125
1772701680711527400,5.60252734375,-0.569000244140625,0.2728118896484375,0.8933258056640625
1772701680721576200,5.612576171875,-0.5870361328125,0.2642364501953125,0.89373779296875
1772701680731624400,5.62262451171875,-0.623382568359375,0.208740234375,0.863800048828125
1772701680741672200,5.632672119140625,-0.650726318359375,0.1278228759765625,0.8542938232421875
1772701680751720200,5.64272021484375,-0.6099395751953125,0.0753021240234375,0.8810577392578125
1772701680761768400,5.6527685546875,-0.511322021484375,0.085052490234375,0.915252685546875
1772701680771816200,5.662816162109375,-0.3996429443359375,0.148223876953125,0.9326171875
1772701680781864200,5.6728642578125,-0.318267822265625,0.2401123046875,0.9738006591796875
1772701680791912200,5.682912109375,-0.2935028076171875,0.308135986328125,1.0313873291015625
1772701680801961200,5.692961181640625,-0.3052520751953125,0.328582763671875,1.0550689697265625
1772701680812009200,5.70300927734375,-0.312225341796875,0.298614501953125,1.044158935546875
1772701680822057200,5.71305712890625,-0.3001708984375,0.2436370849609375,0.99554443359375
1772701680832105200,5.723105224609375,-0.2667388916015625,0.1792144775390625,0.910247802734375
1772701680842153200,5.7331533203125,-0.227386474609375,0.1270599365234375,0.8324127197265625
1772701680852201200,5.743201171875,-0.197174072265625,0.097076416015625,0.7855987548828125
1772701680862249500,5.75324951171875,-0.1927947998046875,0.09954833984375,0.7591552734375
1772701680872297200,5.763297119140625,-0.2308349609375,0.10064697265625,0.75018310546875
1772701680882345200,5.77334521484375,-0.2960205078125,0.1031341552734375,0.7698974609375
1772701680892394200,5.783394287109375,-0.3565826416015625,0.107635498046875,0.785430908203125
1772701680902442200,5.793442138671875,-0.3916168212890625,0.1064910888671875,0.785491943359375
1772701680912490200,5.803490234375,-0.4230804443359375,0.1126708984375,0.79144287109375
1772701680922538200,5.813538330078125,-0.4708251953125,0.128143310546875,0.8064117431640625
1772701680932586200,5.823586181640625,-0.5210723876953125,0.1502685546875,0.8300323486328125
1772701680942634200,5.83363427734375,-0.5482940673828125,0.1787872314453125,0.856689453125
1772701680952682200,5.84368212890625,-0.5483856201171875,0.2003326416015625,0.893096923828125
1772701680962730200,5.853730224609375,-0.520599365234375,0.2050323486328125,0.931854248046875
1772701680972778200,5.8637783203125,-0.4940338134765625,0.1977081298828125,0.9711151123046875
1772701680982827300,5.8738271484375,-0.4802398681640625,0.1870880126953125,1.0063934326171875
1772701680992875300,5.883875244140625,-0.482696533203125,0.1745758056640625,1.030517578125
1772701681002923300,5.89392333984375,-0.49200439453125,0.152374267578125,1.022308349609375
1772701681012971300,5.90397119140625,-0.506988525390625,0.1107635498046875,0.98883056640625
1772701681023019300,5.914019287109375,-0.509765625,0.056732177734375,0.9237823486328125
1772701681033067300,5.9240673828125,-0.5078582763671875,0.0123138427734375,0.8592529296875
1772701681043115300,5.934115234375,-0.499725341796875,0.0039215087890625,0.834625244140625
1772701681053163300,5.944163330078125,-0.48602294921875,0.02117919921875,0.8323974609375
1772701681063211300,5.954211181640625,-0.460296630859375,0.0518035888671875,0.81976318359375
1772701681073260300,5.96426025390625,-0.4369049072265625,0.0826568603515625,0.806365966796875
1772701681083308300,5.974308349609375,-0.4307708740234375,0.1031951904296875,0.809722900390625
1772701681093356300,5.984356201171875,-0.44281005859375,0.1165924072265625,0.814178466796875
1772701681103404300,5.994404296875,-0.4619293212890625,0.1209259033203125,0.811981201171875
1772701681113452300,6.004452392578125,-0.4727783203125,0.1178436279296875,0.823333740234375
1772701681123500300,6.014500244140625,-0.48089599609375,0.1059112548828125,0.8378753662109375
1772701681133548300,6.02454833984375,-0.485198974609375,0.0902557373046875,0.844879150390625
1772701681143596300,6.03459619140625,-0.4839019775390625,0.09088134765625,0.8520965576171875
1772701681153646000,6.04464599609375,-0.4831695556640625,0.09393310546875,0.865203857421875
1772701681163694000,6.054694091796875,-0.47882080078125,0.0919342041015625,0.878326416015625
1772701681173742000,6.0647421875,-0.4838409423828125,0.0852508544921875,0.890625
1772701681183790000,6.0747900390625,-0.490203857421875,0.08551025390625,0.9059295654296875
1772701681193838000,6.084838134765625,-0.4893951416015625,0.0860137939453125,0.9096221923828125
1772701681203886000,6.094885986328125,-0.4791717529296875,0.0873260498046875,0.911865234375
1772701681213933800,6.104933837890625,-0.47509765625,0.10760498046875,0.9236297607421875
1772701681223982000,6.114982177734375,-0.478668212890625,0.149871826171875,0.936767578125
1772701681234030000,6.125030029296875,-0.48260498046875,0.1670074462890625,0.947265625
1772701681244079000,6.1350791015625,-0.4865570068359375,0.152435302734375,0.9487762451171875
1772701681254127000,6.145127197265625,-0.5036163330078125,0.132476806640625,0.9291229248046875
1772701681264174800,6.1551748046875,-0.514923095703125,0.1246337890625,0.914825439453125
1772701681274223000,6.16522314453125,-0.521759033203125,0.1282501220703125,0.90118408203125
1772701681284271000,6.17527099609375,-0.530914306640625,0.1312408447265625,0.885498046875
1772701681294318800,6.18531884765625,-0.5472412109375,0.126129150390625,0.8639373779296875
1772701681304367000,6.1953671875,-0.558929443359375,0.12994384765625,0.8372344970703125
1772701681314415000,6.2054150390625,-0.5711822509765625,0.1367950439453125,0.8148956298828125
1772701681324464000,6.215464111328125,-0.5698394775390625,0.145538330078125,0.808013916015625
1772701681334511900,6.225511962890625,-0.5684356689453125,0.144866943359375,0.7947540283203125
1772701681344559900,6.235559814453125,-0.5695953369140625,0.1416778564453125,0.7852935791015625
1772701681354608000,6.245608154296875,-0.5644378662109375,0.1353912353515625,0.78948974609375
1772701681364655900,6.25565576171875,-0.5625457763671875,0.1282196044921875,0.7967529296875
1772701681374704000,6.2657041015625,-0.5723114013671875,0.121246337890625,0.8056640625
1772701681384752000,6.275752197265625,-0.584259033203125,0.11871337890625,0.8127288818359375
1772701681394799900,6.2857998046875,-0.59527587890625,0.12847900390625,0.814666748046875
1772701681404848000,6.29584814453125,-0.6049346923828125,0.141387939453125,0.820465087890625
1772701681414897000,6.30589697265625,-0.608489990234375,0.15020751953125,0.829345703125
1772701681424945200,6.315945068359375,-0.6079254150390625,0.16082763671875,0.8314666748046875
1772701681434993200,6.3259931640625,-0.6127471923828125,0.179107666015625,0.8519134521484375
1772701681445041000,6.336041015625,-0.6107177734375,0.2003631591796875,0.886383056640625
1772701681455089200,6.346089111328125,-0.59173583984375,0.2189178466796875,0.9226837158203125
1772701681465137000,6.356136962890625,-0.57000732421875,0.2241973876953125,0.95428466796875
1772701681475185000,6.366184814453125,-0.55352783203125,0.21356201171875,0.97406005859375
1772701681485233200,6.376233154296875,-0.534454345703125,0.1982574462890625,0.98291015625
1772701681495282000,6.386281982421875,-0.52691650390625,0.1925201416015625,0.9850311279296875
1772701681505330200,6.396330078125,-0.5322113037109375,0.209075927734375,0.9691619873046875
1772701681515378000,6.4063779296875,-0.55743408203125,0.2381591796875,0.9288787841796875
1772701681525426000,6.416426025390625,-0.5891571044921875,0.25872802734375,0.87738037109375
1772701681535474200,6.42647412109375,-0.58099365234375,0.2497406005859375,0.8507537841796875
1772701681545522000,6.43652197265625,-0.5617218017578125,0.229705810546875,0.8498077392578125
1772701681555570200,6.446570068359375,-0.554351806640625,0.217864990234375,0.8520660400390625
1772701681565618000,6.456617919921875,-0.5395965576171875,0.2041473388671875,0.8386993408203125
1772701681575667200,6.466667236328125,-0.5157318115234375,0.200836181640625,0.83026123046875
1772701681585715000,6.47671484375,-0.48333740234375,0.201568603515625,0.821197509765625
1772701681595763000,6.486762939453125,-0.4687347412109375,0.2017059326171875,0.8067779541015625
1772701681605811200,6.496811279296875,-0.4462890625,0.2208251953125,0.77447509765625
1772701681615859000,6.50685888671875,-0.44866943359375,0.240814208984375,0.729400634765625
1772701681625907000,6.516906982421875,-0.4555206298828125,0.2639617919921875,0.690948486328125
1772701681635955200,6.526955078125,-0.464630126953125,0.287689208984375,0.652862548828125
1772701681646003000,6.5370029296875,-0.474273681640625,0.3012847900390625,0.6154022216796875
1772701681656051000,6.547051025390625,-0.4725189208984375,0.3208465576171875,0.571746826171875
1772701681666100000,6.557099853515625,-0.489105224609375,0.348480224609375,0.543121337890625
1772701681676148000,6.56714794921875,-0.5111236572265625,0.3708953857421875,0.527099609375
1772701681686196000,6.577196044921875,-0.529205322265625,0.3990020751953125,0.532684326171875
1772701681696244000,6.587243896484375,-0.5634613037109375,0.434051513671875,0.5278472900390625
1772701681706292000,6.5972919921875,-0.5958251953125,0.467437744140625,0.5583953857421875
1772701681716340000,6.607340087890625,-0.65716552734375,0.4897613525390625,0.602203369140625
1772701681726388000,6.617387939453125,-0.732696533203125,0.5016937255859375,0.6005401611328125
1772701681736436200,6.627436279296875,-0.778839111328125,0.508636474609375,0.5852813720703125
1772701681746485000,6.637485107421875,-0.7978057861328125,0.5272369384765625,0.572662353515625
1772701681756533000,6.647532958984375,-0.8162841796875,0.503631591796875,0.52044677734375
1772701681766581000,6.6575810546875,-0.794097900390625,0.41522216796875,0.4731903076171875
1772701681776629000,6.66762890625,-0.764068603515625,0.3740234375,0.461883544921875
1772701681786677200,6.67767724609375,-0.753326416015625,0.3543548583984375,0.4737548828125
1772701681796725000,6.68772509765625,-0.74786376953125,0.357513427734375,0.5001373291015625
1772701681806773000,6.69777294921875,-0.7576141357421875,0.3717193603515625,0.5240020751953125
1772701681816821000,6.707821044921875,-0.76605224609375,0.3938751220703125,0.545135498046875
1772701681826869000,6.717868896484375,-0.7599945068359375,0.4313812255859375,0.5609588623046875
1772701681836918000,6.72791796875,-0.76483154296875,0.46185302734375,0.565338134765625
1772701681846966000,6.737966064453125,-0.796478271484375,0.4785614013671875,0.5749664306640625
1772701681857014000,6.748013916015625,-0.8042755126953125,0.4898834228515625,0.5749969482421875
1772701681867062000,6.75806201171875,-0.7901458740234375,0.49365234375,0.569427490234375
1772701681877110000,6.768110107421875,-0.773681640625,0.4823150634765625,0.5701751708984375
1772701681887158000,6.778157958984375,-0.7583465576171875,0.4677276611328125,0.57086181640625
1772701681897206000,6.7882060546875,-0.7502288818359375,0.4546356201171875,0.5691375732421875
1772701681907254000,6.79825390625,-0.7452545166015625,0.4420623779296875,0.5635833740234375
1772701681917303000,6.808302978515625,-0.7341156005859375,0.4357757568359375,0.5620574951171875
1772701681927351000,6.81835107421875,-0.7188568115234375,0.439971923828125,0.5684356689453125
1772701681937398800,6.828398681640625,-0.705810546875,0.4486236572265625,0.573822021484375
1772701681947447000,6.838447021484375,-0.6925201416015625,0.45928955078125,0.58355712890625
1772701681957495000,6.8484951171875,-0.6845245361328125,0.4535369873046875,0.5888671875
1772701681967543000,6.85854296875,-0.6823577880859375,0.441162109375,0.586761474609375
1772701681977591000,6.868591064453125,-0.6796722412109375,0.4282684326171875,0.573944091796875
1772701681987639000,6.87863916015625,-0.6778106689453125,0.421722412109375,0.5629425048828125
1772701681997687000,6.88868701171875,-0.668731689453125,0.419403076171875,0.552947998046875
1772701682007736000,6.898736083984375,-0.65350341796875,0.4267425537109375,0.5471343994140625
1772701682017784000,6.9087841796875,-0.640777587890625,0.43536376953125,0.5534820556640625
1772701682027832000,6.91883203125,-0.6368408203125,0.434051513671875,0.569915771484375
1772701682037880000,6.928880126953125,-0.6339263916015625,0.4345855712890625,0.5776214599609375
1772701682047928000,6.938927978515625,-0.6347808837890625,0.4495849609375,0.583526611328125
1772701682057976000,6.94897607421875,-0.6405487060546875,0.4662628173828125,0.582977294921875
1772701682068023800,6.95902392578125,-0.6480560302734375,0.478179931640625,0.57440185546875
1772701682078073000,6.969072998046875,-0.650482177734375,0.48773193359375,0.573883056640625
1772701682088120800,6.979120849609375,-0.655975341796875,0.49798583984375,0.5792694091796875
1772701682098169000,6.989169189453125,-0.6551513671875,0.502471923828125,0.5846405029296875
1772701682108217000,6.999217041015625,-0.6382598876953125,0.5024566650390625,0.5913848876953125
1772701682118264800,7.009264892578125,-0.6179046630859375,0.4881134033203125,0.601226806640625
1772701682128313000,7.01931298828125,-0.610321044921875,0.470794677734375,0.608123779296875
1772701682138361000,7.029361083984375,-0.6268768310546875,0.45684814453125,0.6151885986328125
1772701682148409000,7.0394091796875,-0.653289794921875,0.4462432861328125,0.6217193603515625
1772701682158456000,7.0494560546875,-0.6832275390625,0.4373321533203125,0.6190185546875
1772701682168505000,7.059505126953125,-0.7099761962890625,0.4311981201171875,0.6088714599609375
1772701682178553000,7.069552978515625,-0.7293853759765625,0.4326934814453125,0.6098785400390625
1772701682188601300,7.079601318359375,-0.7469024658203125,0.4415283203125,0.6179962158203125
1772701682198649000,7.089649169921875,-0.751617431640625,0.444580078125,0.629119873046875
1772701682208697000,7.099697021484375,-0.7384185791015625,0.4286651611328125,0.641693115234375
1772701682218745300,7.109745361328125,-0.7234954833984375,0.4019927978515625,0.6447906494140625
1772701682228793000,7.11979296875,-0.7111968994140625,0.3812713623046875,0.6302337646484375
1772701682238841300,7.12984130859375,-0.7130126953125,0.3748931884765625,0.6147918701171875
1772701682248890000,7.13989013671875,-0.7246551513671875,0.370147705078125,0.60076904296875
1772701682258938000,7.149938232421875,-0.74298095703125,0.3579559326171875,0.5837860107421875
1772701682268986000,7.159986083984375,-0.763702392578125,0.3365020751953125,0.5704345703125
1772701682279034000,7.1700341796875,-0.7867431640625,0.3147125244140625,0.572845458984375
1772701682289082400,7.180082275390625,-0.79248046875,0.2975921630859375,0.58624267578125
1772701682299130000,7.190130126953125,-0.7821044921875,0.284912109375,0.592498779296875
1772701682309178000,7.20017822265625,-0.7518310546875,0.2735748291015625,0.5902862548828125
1772701682319226400,7.210226318359375,-0.718963623046875,0.2650146484375,0.5825347900390625
1772701682329275100,7.220275146484375,-0.703704833984375,0.2654571533203125,0.585174560546875
1772701682339323400,7.230323486328125,-0.708740234375,0.2746429443359375,0.5914306640625
1772701682349371100,7.24037109375,-0.7279815673828125,0.2728729248046875,0.585662841796875
1772701682359419100,7.250419189453125,-0.7438201904296875,0.266815185546875,0.579132080078125
1772701682369467100,7.260467041015625,-0.758697509765625,0.25811767578125,0.5763397216796875
1772701682379515100,7.27051513671875,-0.806976318359375,0.2382354736328125,0.5785064697265625
1772701682389563100,7.280563232421875,-0.8554229736328125,0.225860595703125,0.6071014404296875
1772701682399611100,7.290611083984375,-0.85137939453125,0.2360076904296875,0.6835784912109375
1772701682409660200,7.30066015625,-0.79638671875,0.2845001220703125,0.7638397216796875
1772701682419708200,7.310708251953125,-0.7115936279296875,0.3586883544921875,0.8016815185546875
1772701682429756200,7.320756103515625,-0.6786651611328125,0.386016845703125,0.7769012451171875
1772701682439804200,7.33080419921875,-0.751220703125,0.3311309814453125,0.66827392578125
1772701682449852200,7.34085205078125,-0.8437652587890625,0.22906494140625,0.5741729736328125
1772701682459900200,7.350900146484375,-0.8829498291015625,0.1311798095703125,0.545654296875
1772701682469948400,7.360948486328125,-0.878692626953125,0.0612640380859375,0.534423828125
1772701682479996200,7.37099609375,-0.8599853515625,0.0079345703125,0.495849609375
1772701682490045200,7.381045166015625,-0.8227691650390625,-0.0181121826171875,0.44110107421875
1772701682500093200,7.39109326171875,-0.770965576171875,-0.001617431640625,0.4307861328125
1772701682510141200,7.40114111328125,-0.7071075439453125,0.0373382568359375,0.452392578125
1772701682520189200,7.411189208984375,-0.65667724609375,0.09521484375,0.4715728759765625
1772701682530237200,7.4212373046875,-0.6340484619140625,0.1477508544921875,0.4817047119140625
1772701682540285200,7.43128515625,-0.66912841796875,0.1678924560546875,0.50933837890625
1772701682550333200,7.441333251953125,-0.7273406982421875,0.1591339111328125,0.5574798583984375
1772701682560381200,7.451381103515625,-0.764739990234375,0.154296875,0.601715087890625
1772701682570429200,7.46142919921875,-0.7971954345703125,0.157501220703125,0.65496826171875
1772701682580478200,7.471478271484375,-0.82928466796875,0.1657257080078125,0.69989013671875
1772701682590526200,7.481526123046875,-0.8335113525390625,0.1811065673828125,0.733428955078125
1772701682600574200,7.49157421875,-0.7943878173828125,0.2118682861328125,0.783660888671875
1772701682610622200,7.501622314453125,-0.77313232421875,0.24017333984375,0.8196563720703125
1772701682620670200,7.511670166015625,-0.791412353515625,0.2610015869140625,0.835906982421875
1772701682630718200,7.52171826171875,-0.824188232421875,0.258026123046875,0.84295654296875
1772701682640766200,7.53176611328125,-0.8265228271484375,0.2241973876953125,0.8464813232421875
1772701682650814200,7.541814208984375,-0.7978973388671875,0.171844482421875,0.8333587646484375
1772701682660863200,7.55186328125,-0.755889892578125,0.1502532958984375,0.8238372802734375
1772701682670911000,7.561910888671875,-0.720367431640625,0.1320648193359375,0.8157196044921875
1772701682680959200,7.571959228515625,-0.6789703369140625,0.1062469482421875,0.785736083984375
1772701682691007200,7.58200732421875,-0.662811279296875,0.095489501953125,0.753936767578125
1772701682701055200,7.59205517578125,-0.6334686279296875,0.0921630859375,0.7172088623046875
1772701682711103200,7.602103271484375,-0.63275146484375,0.0897674560546875,0.687286376953125
1772701682721151200,7.612151123046875,-0.637603759765625,0.09930419921875,0.67626953125
1772701682731199200,7.62219921875,-0.6231231689453125,0.105987548828125,0.6639862060546875
1772701682741248300,7.632248291015625,-0.623260498046875,0.119842529296875,0.6573638916015625
1772701682751296300,7.642296142578125,-0.627899169921875,0.1291046142578125,0.653411865234375
1772701682761344300,7.65234423828125,-0.635986328125,0.119659423828125,0.6473388671875
1772701682771392000,7.66239208984375,-0.63995361328125,0.1090240478515625,0.6383056640625
1772701682781440300,7.672440185546875,-0.645355224609375,0.0904693603515625,0.635284423828125
1772701682791488300,7.68248828125,-0.6557464599609375,0.0732421875,0.6217498779296875
1772701682801536000,7.692535888671875,-0.6742706298828125,0.0704498291015625,0.6176300048828125
1772701682811585300,7.702585205078125,-0.6920166015625,0.0727081298828125,0.6278076171875
1772701682821633000,7.712633056640625,-0.7086334228515625,0.074859619140625,0.6488494873046875
1772701682831681300,7.722681396484375,-0.7107696533203125,0.090728759765625,0.6705322265625
1772701682841729300,7.732729248046875,-0.7103118896484375,0.1008148193359375,0.6873931884765625
1772701682851777000,7.742777099609375,-0.7190399169921875,0.1068267822265625,0.6998291015625
1772701682861825300,7.7528251953125,-0.7359771728515625,0.104888916015625,0.693939208984375
1772701682871873000,7.762873046875,-0.7500152587890625,0.1007843017578125,0.6914215087890625
1772701682881921300,7.77292138671875,-0.7486724853515625,0.0966949462890625,0.682373046875
1772701682891969300,7.78296923828125,-0.7515411376953125,0.0970001220703125,0.6830596923828125
1772701682902018300,7.793018310546875,-0.7609405517578125,0.092193603515625,0.6891937255859375
1772701682912066300,7.80306640625,-0.7627105712890625,0.083740234375,0.6915283203125
1772701682922114000,7.813114013671875,-0.7557220458984375,0.080322265625,0.694244384765625
1772701682932162300,7.823162353515625,-0.7502899169921875,0.0862274169921875,0.6956024169921875
1772701682942210300,7.833210205078125,-0.7347564697265625,0.0987091064453125,0.6896820068359375
1772701682952258000,7.843258056640625,-0.7287750244140625,0.1148529052734375,0.68048095703125
1772701682962306300,7.853306396484375,-0.732391357421875,0.133087158203125,0.6656494140625
1772701682972354000,7.86335400390625,-0.7487945556640625,0.1356048583984375,0.6410064697265625
1772701682982403300,7.8734033203125,-0.7569427490234375,0.127685546875,0.6259765625
1772701682992451000,7.883451171875,-0.75421142578125,0.119964599609375,0.628753662109375
1772701683002499000,7.8934990234375,-0.739715576171875,0.118408203125,0.6331634521484375
1772701683012547300,7.90354736328125,-0.7337188720703125,0.1067352294921875,0.65582275390625
1772701683022595000,7.913594970703125,-0.748779296875,0.0751190185546875,0.6826629638671875
1772701683032643000,7.92364306640625,-0.672088623046875,0.104583740234375,0.70703125
1772701683042691300,7.93369140625,-0.691070556640625,0.1178131103515625,0.71728515625
1772701683052739000,7.943739013671875,-0.7466583251953125,0.1381072998046875,0.6976318359375
1772701683062788400,7.953788330078125,-0.814697265625,0.1614532470703125,0.6711578369140625
1772701683072836000,7.963836181640625,-0.8047637939453125,0.1673736572265625,0.7108917236328125
