time,seconds_elapsed,z,y,x
1772701675170002200,0.061002197265625,-0.26848960863351823,0.12558847352191804,-0.27100539084672925
1772701675180050400,0.071050537109375,-0.2583867322921753,0.12413608275651931,-0.2723322555363178
1772701675190098200,0.08109814453125,-0.2775841847151518,0.0803504247829318,-0.2233855615377426
1772701675200146200,0.091146240234375,-0.2545499306082725,0.091493457826972,-0.18286299701333045
1772701675210194400,0.1011943359375,-0.2326964107185602,0.11648644478619098,-0.12689561059772966
1772701675220242200,0.1112421875,-0.1925374188095331,0.10472440306097268,-0.08113046924471855
1772701675230291500,0.12129150390625,-0.16132921059727667,0.07069441542625426,-0.05646423002183437
1772701675240339200,0.131339111328125,-0.1420487560659647,0.09154869514554738,-0.062165072011947625
1772701675250387500,0.141387451171875,-0.11104103886187076,0.10069441689252853,-0.053963645377755165
1772701675260435500,0.151435546875,-0.08727730143666267,0.11581132200360297,-0.016797405543923376
1772701675270483200,0.161483154296875,-0.0605021072357893,0.1200733633622527,-0.014713585007190704
1772701675280531500,0.171531494140625,-0.02424830607175827,0.06118453654199838,-0.04883972649276256
1772701675290579200,0.1815791015625,-0.008588380125164986,0.03136559073105454,-0.0770019911378622
1772701675300627200,0.191627197265625,-0.03906768954098224,-0.025676146917790174,-0.09567337386012077
1772701675310675500,0.201675537109375,-0.08517886785268783,-0.05788111108243465,-0.11511457191109657
1772701675320723200,0.21172314453125,-0.1406324595272541,-0.07399301858022808,-0.16659575282335282
1772701675330771200,0.221771240234375,-0.18127952721416948,-0.07355477329343557,-0.19801205082833767
1772701675340819500,0.2318193359375,-0.19077683887779712,-0.07168941781297326,-0.19961948602497576
1772701675350867200,0.2418671875,-0.18605565557479858,-0.03796411221325397,-0.17331190933585167
1772701675360916500,0.25191650390625,-0.16047697768211364,-0.022160393881797788,-0.10768471417129039
1772701675370964200,0.261964111328125,-0.10004325950741767,-0.008058218771219252,-0.022982231658697127
1772701675381012200,0.27201220703125,-0.040645314121246334,0.03934431452527642,0.056522682210803026
1772701675391060500,0.282060546875,0.0106704470962286,0.044119566103070974,0.1108779572546482
1772701675401108200,0.292108154296875,0.05216857865452766,0.03867255274355411,0.12094342419505119
1772701675411156500,0.302156494140625,0.04216974720954895,0.05780775358527898,0.10483750804662705
1772701675421204200,0.312204345703125,0.00008066402077674865,0.05645166280120611,0.07038228073716163
1772701675431252200,0.322252197265625,-0.031200609427690505,0.03253025059625506,0.07814005525708198
1772701675441300500,0.332300537109375,-0.08914660243988036,0.007745061168819666,0.05355331101119518
1772701675451348200,0.34234814453125,-0.1002601171284914,-0.014788257678598165,0.030185294905304905
1772701675461396200,0.352396240234375,-0.0385685078471899,-0.05781535236984491,-0.0027899229794740676
1772701675471444500,0.362444580078125,0.004286299017071724,-0.04194660597816109,-0.021151509100198744
1772701675481493200,0.3724931640625,-0.0033300212055444715,-0.06947174176350236,-0.06519464896619319
1772701675491541500,0.38254150390625,-0.01004383963048458,-0.011290624821186064,-0.11989946810007095
1772701675501589200,0.39258935546875,-0.007862988460063934,0.11703209597021341,-0.24030279406905172
1772701675511637200,0.40263720703125,-0.01831833150088787,0.12642697017267346,-0.2756611076980829
1772701675521685200,0.412685302734375,-0.018771335965394972,0.1205593933135271,-0.3634446050912142
1772701675531733200,0.422733154296875,-0.05968669919967651,0.08100567382127045,-0.46892800982594485
1772701675541781500,0.432781494140625,-0.16305471921563147,0.06776844497695565,-0.5371662642717361
1772701675551829200,0.442829345703125,-0.28795418756008145,0.06798325677141547,-0.4944938282370567
1772701675561877200,0.452877197265625,-0.48242754286825656,0.08027282950207591,-0.45147477072179315
1772701675571925500,0.462925537109375,-0.7050637473434209,0.10518909796327353,-0.44475569159984585
1772701675581973200,0.47297314453125,-0.8855939174950123,0.13287556179016827,-0.4609042778462171
1772701675592021200,0.483021240234375,-1.081688736525178,0.0851712690681219,-0.4888210432976484
1772701675602070300,0.4930703125,-1.2223764333710074,0.013990093038231134,-0.5184966351151467
1772701675612118300,0.5031181640625,-1.27654086201787,-0.03890753054320812,-0.494325485932827
1772701675622166300,0.513166259765625,-1.2958330069869757,-0.017011194425076245,-0.3828758662700653
1772701675632214300,0.52321435546875,-1.2570301058620215,0.046574558039754625,-0.2935030538588762
1772701675642262300,0.53326220703125,-1.1723507119640708,0.08586874981299042,-0.13895254361629486
1772701675652310300,0.543310302734375,-1.0318941935256123,0.0819509918473661,-0.059036710858345026
1772701675662358300,0.553358154296875,-0.9339227718561888,0.058819560976326464,-0.04074409832060337
1772701675672406500,0.563406494140625,-0.794514885687828,0.01914396867007017,-0.11413549774587153
1772701675682454300,0.573454345703125,-0.6204290693700313,-0.03202142429128289,-0.20763152756690978
1772701675692502300,0.583502197265625,-0.5124246217250824,-0.10020181106999516,-0.2977782469600439
1772701675702550500,0.593550537109375,-0.43238662389218807,-0.17876871343702078,-0.3863286370724439
1772701675712598300,0.603598388671875,-0.3642284489452839,-0.28324615599960085,-0.4519698607623577
1772701675722646300,0.613646240234375,-0.30961949140131473,-0.33359643318578597,-0.5059615631908178
1772701675732695300,0.6236953125,-0.24897066917121408,-0.3671124799489975,-0.5844745434135198
1772701675742743300,0.633743408203125,-0.1874661068946123,-0.3971532518170774,-0.6192652862876653
1772701675752791300,0.643791259765625,-0.1408504861921072,-0.4118609916053712,-0.5711398455440998
1772701675762839300,0.65383935546875,-0.14396072716712952,-0.3863011645436287,-0.49392158130705355
1772701675772887300,0.66388720703125,-0.17239304092526433,-0.3735660400025546,-0.4911521165937185
1772701675782935300,0.673935302734375,-0.23841712645292282,-0.36073973004668947,-0.47306467123925683
1772701675792983300,0.6839833984375,-0.33532033436894415,-0.3458946276143193,-0.4961936178922653
1772701675803031300,0.69403125,-0.4230079701721668,-0.34009193268492816,-0.5210206006348133
1772701675813079300,0.704079345703125,-0.5618716664612293,-0.35097163861766456,-0.5448720163434744
1772701675823127300,0.714127197265625,-0.7535381476551294,-0.3221897807694971,-0.5586790078997612
1772701675833175300,0.72417529296875,-0.9415966674849391,-0.33732451379820705,-0.6144833127081394
1772701675843224300,0.734224365234375,-1.0471142667502165,-0.3043827597916126,-0.5796072296380996
1772701675853272300,0.744272216796875,-1.071343283599615,-0.2661281401991844,-0.5783873324543237
1772701675863320300,0.7543203125,-1.1523299604594708,-0.28003303917199374,-0.7125117252618074
1772701675873368300,0.764368408203125,-1.2277011355251073,-0.2855918423429131,-0.7944955964654684
1772701675883416300,0.774416259765625,-1.2548235357284545,-0.2766851900488138,-0.7923930712282657
1772701675893464300,0.78446435546875,-1.2420073087751864,-0.2191016006082296,-0.7573328637629747
1772701675903512300,0.79451220703125,-1.222545067936182,-0.1871460811600089,-0.7514695246875286
1772701675913560300,0.804560302734375,-1.249108372952044,-0.2584302791729569,-0.8199515247613192
1772701675923608300,0.8146083984375,-1.279528353396058,-0.32793431577086446,-0.8339069848775863
1772701675933656300,0.82465625,-1.1740993091970682,-0.46361353680491446,-0.7731248916566371
1772701675943704300,0.834704345703125,-1.1461714378297327,-0.5064522693172097,-0.6673585783272982
1772701675953752300,0.84475244140625,-1.184459375169873,-0.5489464261755347,-0.6034276656866073
1772701675963801300,0.85480126953125,-1.1360615472257136,-0.6323933556690812,-0.48718905818164343
1772701675973849300,0.864849365234375,-1.1224299122363328,-0.6678253190562129,-0.3972930986791849
1772701675983897000,0.87489697265625,-1.1413950172081588,-0.6741849172160029,-0.38343525371849535
1772701675993945300,0.8849453125,-1.1672522197812796,-0.6901853271633386,-0.4761240588098764
1772701676003993300,0.894993408203125,-1.139746373218298,-0.7066410796627401,-0.5136415962994099
1772701676014041300,0.905041259765625,-1.016611284197867,-0.8341217966720461,-0.5364291821688413
1772701676024089300,0.91508935546875,-0.9825307354196906,-0.8961398614287376,-0.5221954896330833
1772701676034137300,0.925137451171875,-0.9802841255366802,-0.8692565306782722,-0.5899357314288616
1772701676044185300,0.935185302734375,-1.008561540994048,-0.8497899059250951,-0.6021335342228412
1772701676054233300,0.9452333984375,-1.151454638929665,-0.7962380562186241,-0.6106453419804573
1772701676064281300,0.95528125,-1.2446183680564165,-0.6624851270720362,-0.48869712465703485
1772701676074330400,0.965330322265625,-1.138280392318964,-0.4514291780143976,0.07048048041462898
1772701676084378400,0.97537841796875,-0.8792144455909728,-0.11387889263629912,0.7764934913069009
1772701676094426400,0.98542626953125,-0.6860813989758491,0.02770546078830957,0.9069950174421072
1772701676104474400,0.995474365234375,-0.5860609358221293,0.0775312757089734,1.046326331242919
1772701676114522000,1.005522216796875,-0.45624797647297377,0.19185440498143433,1.5374527288734912
1772701676124570400,1.0155703125,-0.29370120677948,0.46260699011087414,2.1307313409894704
1772701676134618400,1.025618408203125,-0.14889058478474615,0.9250269332170485,2.828869088461995
1772701676144666400,1.035666259765625,-0.14602701204717158,1.1216241488113998,2.9300024812936782
1772701676154715000,1.04571484375,-0.2913286324292421,0.8861810697332024,2.340653609842062
1772701676164762600,1.0557626953125,-0.27797289177179335,0.37646979862004515,1.790202332061529
1772701676174811000,1.065810791015625,0.08017594499886035,-0.1712836183786392,1.4265397003054618
1772701676184859000,1.07585888671875,0.5337655159175395,-0.5353679826781154,1.193189794114232
1772701676194907600,1.08590771484375,0.8761082962691783,-0.9085872550696134,0.6992302188843488
1772701676204956000,1.095955810546875,0.7847165452510118,-1.1023889947265386,0.13395897311270236
1772701676215003600,1.106003662109375,0.5146808762192726,-1.1317635577708482,-0.32197628414928914
1772701676225052000,1.116052001953125,0.4683434879362583,-1.1063470847025514,-0.6849129397183656
1772701676235100000,1.126099853515625,0.6164765323519706,-1.1274001018643378,-0.9128957659184932
1772701676245147600,1.136147705078125,0.7206991233706473,-1.1137804495736956,-0.9312824864804744
1772701676255196000,1.14619580078125,0.6443973894566297,-1.0365417270705104,-0.7660299649596214
1772701676265243600,1.15624365234375,0.5110048180550336,-0.9124982910335063,-0.5829489412814378
1772701676275291600,1.166291748046875,0.5088718976795673,-0.7494578926041722,-0.34956337925493713
1772701676285340000,1.17633984375,0.45536184128820895,-0.48189212081730365,-0.1079541787624359
1772701676295387600,1.1863876953125,0.3343067734122276,-0.24240648835003376,0.009280454042553902
1772701676305437000,1.19643701171875,0.1943295629233122,-0.015693243694305418,0.15603753392994402
1772701676315484700,1.206484619140625,0.13479542393684388,0.09427402845621108,0.27446400686800476
1772701676325532700,1.21653271484375,0.1029348892956972,0.05863865145146847,0.2974585134863853
1772701676335581000,1.226580810546875,0.08000935626029967,0.0025651743128895757,0.2580371882021427
1772701676345628700,1.236628662109375,0.08171265304684638,-0.05170037662088871,0.17820552659630776
1772701676355677000,1.246677001953125,0.05715455037355423,-0.05210691159516573,0.17815818032324313
1772701676365725000,1.256724853515625,0.09652677581906319,-0.021997020013630388,0.22959552209377287
1772701676375772700,1.266772705078125,0.24855390506386754,0.06795739167779684,0.08742050929963588
1772701676385821000,1.276821044921875,0.39105098941922184,0.13671177895218134,-0.013409516671299934
1772701676395868700,1.28686865234375,0.4982277540683746,0.180403913423419,-0.07665361609160899
1772701676405916700,1.296916748046875,0.5639584096074104,0.24107523974627254,-0.1650099449366331
1772701676415965700,1.306965576171875,0.5505915630340575,0.2770563614487648,-0.33642215813100335
1772701676426013700,1.317013671875,0.5682756882846355,0.238774853849411,-0.44456864459514617
1772701676436062000,1.32706201171875,0.5024988555163145,0.18186054197251797,-0.47853462708294386
1772701676446109700,1.337109619140625,0.40690146950185296,0.0647983431249857,-0.3624316286563873
1772701676456157700,1.34715771484375,0.297009600675106,0.019555764341354368,-0.2219868006557226
1772701676466206000,1.3572060546875,0.095758714056015,0.07640548654943705,-0.06653378861546516
1772701676476253700,1.367253662109375,-0.15450725562274456,0.03910480668097734,0.11846037520766257
1772701676486301700,1.3773017578125,-0.3582534661889076,-0.025616379554569718,0.2980003652781248
1772701676496349700,1.387349609375,-0.48636079066395754,-0.07345628135502338,0.46670156594812867
1772701676506397700,1.397397705078125,-0.5128793797552585,-0.09205196849256754,0.6289098974674939
1772701676516446000,1.407446044921875,-0.615080694079399,-0.08414689445644617,0.7164163314849138
1772701676526494700,1.41749462890625,-0.659471624469757,-0.022912089031934736,0.8180670261889695
1772701676536543000,1.42754296875,-0.5238327354460954,0.03297930953800678,0.8208522729933262
1772701676546590700,1.4375908203125,-0.2656447405964136,0.10515607247650623,0.7379670690357685
1772701676556638700,1.447638671875,0.011590484550595283,0.1382642690911889,0.5499240390360355
1772701676566687000,1.45768701171875,0.2377197918385267,0.15970482426583765,0.21622399934530256
1772701676576734700,1.467734619140625,0.4322065911501646,0.2037315975189209,0.028320670077204704
1772701676586782700,1.47778271484375,0.6652063687294721,0.23256635459810493,-0.11410042643249034
1772701676596830700,1.487830810546875,0.8812912518650293,0.3099319183513522,-0.22636019343435762
1772701676606878700,1.497878662109375,1.0717197156965732,0.33826369434446096,-0.3420008350461721
1772701676616926700,1.5079267578125,1.2178408357679844,0.4614852926045656,-0.37236382460594175
1772701676626974700,1.517974609375,1.3054530682474375,0.4987856802120805,-0.2747106751054525
1772701676637022700,1.528022705078125,1.3136159164369106,0.5668140912994742,-0.22925299226641654
1772701676647071700,1.53807177734375,1.3199305064111948,0.6647463500022888,-0.20545418352782724
1772701676657119700,1.54811962890625,1.2326806775033474,0.8054767169460654,-0.06564005464613437
1772701676667167700,1.558167724609375,1.0923428170084952,0.9870590264990925,-0.004175824379920959
1772701676677215700,1.5682158203125,0.9101888450473546,1.0093126516222952,0.09199439308643341
1772701676687263700,1.578263671875,0.5542968472927808,1.0441919495627283,0.08519464994370937
1772701676697312000,1.58831201171875,0.3220411660790443,1.0303986942708492,-0.001558335357904434
1772701676707359700,1.59835986328125,0.13987082750499247,1.0726835922926663,0.13656126456558704
1772701676717407700,1.60840771484375,-0.044352351945638656,0.9477581127241254,0.21275252384245394
1772701676727455700,1.618455810546875,-0.23499650435447691,0.6448737747967243,0.16176467940509318
1772701676737503700,1.628503662109375,-0.39453064822852607,0.4154685145780444,0.13223112640678883
1772701676747551700,1.6385517578125,-0.5136135392487049,0.21259704101979732,0.14639116918444633
1772701676757600800,1.648600830078125,-0.5668301656514406,0.05836655651181936,0.07925649206638335
1772701676767648800,1.658648681640625,-0.6319950040012597,-0.003915712139010429,0.01563829863667488
1772701676777696800,1.66869677734375,-0.6468588111340999,-0.06663023472726344,-0.06213233878612518
1772701676787744800,1.678744873046875,-0.6766986536026001,-0.13088643379956483,-0.04854337389469147
1772701676797792800,1.688792724609375,-0.6880600055724382,-0.22213965312987566,-0.034843934366106985
1772701676807840800,1.6988408203125,-0.6675614074230194,-0.2975488221183419,-0.09771452429890633
1772701676817888800,1.708888671875,-0.6097101069569587,-0.30370617570430036,-0.12577858926653862
1772701676827936800,1.718936767578125,-0.5523977356731892,-0.33813042335361243,-0.16361176857650278
1772701676837984800,1.72898486328125,-0.5424053339689969,-0.35508477302491664,-0.17587620686590671
1772701676848032800,1.73903271484375,-0.5235018960565329,-0.3312275120973587,-0.2057879455268383
1772701676858080800,1.749080810546875,-0.4734305819422006,-0.27154168968051673,-0.27457974220216275
1772701676868129800,1.7591298828125,-0.45464229484200475,-0.23205402116179466,-0.37941082050800323
1772701676878177800,1.769177734375,-0.4851712886184454,-0.23735943409353494,-0.5028039759427309
1772701676888225800,1.779225830078125,-0.5679255596727133,-0.2586582427099347,-0.623169307988882
1772701676898273800,1.789273681640625,-0.6057908876866102,-0.2371633269995451,-0.669311465960741
1772701676908321800,1.79932177734375,-0.6142202778577804,-0.21510727027505636,-0.8024626298218965
1772701676918369800,1.809369873046875,-0.6130582483410835,-0.18104513393640517,-0.832410024318099
1772701676928417800,1.819417724609375,-0.5250426957577466,-0.07558598686009645,-0.8299316515058278
1772701676938465800,1.8294658203125,-0.48427463203966614,0.003355740168690681,-0.8253110059678554
1772701676948513800,1.839513671875,-0.4456956027984619,-0.0657739101588726,-0.8226409099757671
1772701676958561500,1.8495615234375,-0.28299218123853204,-0.15217793589234352,-0.7939625125020742
1772701676968609800,1.85960986328125,-0.18081190970242023,-0.12877426395118236,-0.7731050179123878
1772701676978658600,1.869658447265625,-0.14091712168753145,-0.0537310056656599,-0.8080208484709263
1772701676988706800,1.879706787109375,-0.21229542772471904,0.0721966366827488,-0.8063152135968208
1772701676998754800,1.8897548828125,-0.3392056513696909,0.1639177657857537,-0.7270674893587827
1772701677008802800,1.899802734375,-0.4666594803720712,0.19803075552880764,-0.6936795990198851
1772701677018850800,1.909850830078125,-0.5555687669247389,0.2279977315083146,-0.7027075396060943
1772701677028898800,1.91989892578125,-0.6406038423925637,0.26943507279008627,-0.6308826588451862
1772701677038946800,1.92994677734375,-0.7453349674552678,0.3036804567411542,-0.5424877515554428
1772701677048994800,1.939994873046875,-0.8464952482938766,0.3204723093271255,-0.43524493593275543
1772701677059042800,1.950042724609375,-0.953288566583395,0.3560398817926645,-0.36433015575408934
1772701677069090800,1.9600908203125,-1.0938105514734984,0.32353374272435903,-0.31681495586335656
1772701677079138800,1.970138916015625,-1.2507996870398521,0.3122483786001801,-0.29845512330830093
1772701677089187800,1.980187744140625,-1.4290052136361597,0.353858738361299,-0.35804654543995856
1772701677099235800,1.99023583984375,-1.59180098965466,0.35484131965786214,-0.46436640099883075
1772701677109283600,2.00028369140625,-1.7064777546703815,0.2649357155442238,-0.6276736336708069
1772701677119331800,2.010331787109375,-1.9228046298682688,0.18002105158567427,-0.736612147295475
1772701677129379800,2.0203798828125,-1.8297598509460686,0.1526639658436179,-0.33476737666130063
1772701677139427600,2.030427490234375,-0.5971534077227115,0.32740824607014657,1.0188877046972513
1772701677149475000,2.04047509765625,-0.6080296065241098,0.8945750963300466,1.6032126105070112
1772701677159523300,2.0505234375,-1.3555869262039661,1.1694748642668127,0.9134732735455036
1772701677169571000,2.060571044921875,-0.7849936086267233,1.2282228213116526,0.746875182634592
1772701677179619000,2.070619140625,-0.4252648091882467,1.1499316671460866,0.9039303691744803
1772701677189667300,2.080667236328125,-0.4917494979649782,1.1329337705940008,0.8916875581949949
1772701677199716000,2.090716064453125,-0.3017214316278696,1.2461024691343308,0.9181669843196868
1772701677209764400,2.100764404296875,0.11013269184529781,1.4131608710333705,1.1098895796149968
1772701677219812000,2.11081201171875,0.10719722291529178,1.2766370158687232,0.9326420843958854
1772701677229860000,2.120860107421875,-0.11961071428656578,0.9699912795811891,0.45455052490532394
1772701677239908000,2.130908203125,-0.2953080574542284,0.9418097257137298,0.20005553935468195
1772701677249956000,2.1409560546875,-0.15728373459875583,1.0012772292047738,-0.1891214728862047
1772701677260004000,2.151004150390625,0.12857669555246828,0.869945097464323,-0.6452870317727327
1772701677270052000,2.161052001953125,0.36368951976299285,0.38332989364787934,-1.1087696356743573
1772701677280100000,2.17110009765625,0.5163081851601601,-0.18593539019599556,-1.3643617688119412
1772701677290148400,2.1811484375,0.5796925698339939,-0.36174189282655717,-1.3177911562949418
1772701677300196000,2.191196044921875,0.4643786759585142,-0.28177973670884965,-1.143688973364234
1772701677310245000,2.2012451171875,0.30099954709410665,-0.04389657100215554,-0.8904875347554683
1772701677320293000,2.211293212890625,0.40662674421370026,0.11217442680597305,-0.6176303785622119
1772701677330341000,2.221341064453125,0.48718730461597437,0.17961013269722462,-0.33891631303429604
1772701677340389400,2.231389404296875,0.4585287808865309,0.19168869302570818,-0.1540863998621702
1772701677350437000,2.24143701171875,0.539199231404066,0.18194091373234986,0.06288812558948993
1772701677360485000,2.251485107421875,0.6415361548066139,0.22645576276332138,0.2288894196510315
1772701677370533000,2.261533203125,0.6395312447249889,0.25093071719780563,0.37994916516840455
1772701677380581000,2.2715810546875,0.6457815372914075,0.37384851020574567,0.5047118553906679
1772701677390629000,2.281629150390625,0.7170528758227824,0.4630807451024651,0.5232546432971954
1772701677400677000,2.291677001953125,0.7844131783902645,0.5358325314499437,0.5379729044795036
1772701677410726100,2.30172607421875,0.8214005545258521,0.591375554973632,0.5757242507249116
1772701677420774100,2.311774169921875,0.8741869728177786,0.5444521834962069,0.6551268732637167
1772701677430822100,2.321822265625,0.9427537285655736,0.4625378703974187,0.6678016459196806
1772701677440870100,2.3318701171875,0.9823650234639644,0.35025136151909825,0.6047492696791887
1772701677450918100,2.341918212890625,1.109301550593972,0.26200010048374534,0.4789437924057245
1772701677460966100,2.351966064453125,1.1686503961414099,0.20769465593099593,0.389694898635149
1772701677471014100,2.36201416015625,1.1107014805197715,0.10173705781325697,0.2979471737861633
1772701677481062100,2.372062255859375,1.0236953972399234,0.051823710739612575,0.2275678156584501
1772701677491110100,2.382110107421875,0.9048819708108902,-0.03289499225541949,0.2289139695703983
1772701677501158100,2.392158203125,0.8166343630373477,-0.07401523041203617,0.28998832373619077
1772701677511207200,2.402207275390625,0.7430623463481664,-0.011561404586583375,0.35770518465638157
1772701677521255200,2.412255126953125,0.6020651451617479,0.04553074807524681,0.483693032759428
1772701677531303200,2.42230322265625,0.41910979368984697,0.11742913246378302,0.6665127751529216
1772701677541351200,2.43235107421875,0.29620705212056636,0.25644568122699857,0.8277578145980834
1772701677551399200,2.442399169921875,0.20110650971233843,0.35348552113473414,0.8051181127667426
1772701677561447200,2.452447265625,0.138594231697917,0.3877339738257229,0.6031698915332555
1772701677571495200,2.4624951171875,0.04978840551972389,0.4194138912029564,0.39360184294581413
1772701677581543200,2.472543212890625,-0.057791094711422915,0.48337534511238334,0.2513584410905838
1772701677591591200,2.482591064453125,-0.12192425192594528,0.5403279431730509,0.1228641631245613
1772701677601639000,2.492638916015625,-0.1938011551350355,0.5671573517791927,-0.009406126248836516
1772701677611687200,2.502687255859375,-0.2705132234156132,0.4843398062303662,-0.1449152514129877
1772701677621735200,2.512735107421875,-0.297809811142087,0.40946868964135646,-0.24531623831689356
1772701677631784200,2.5227841796875,-0.3235895645648241,0.3807151811048388,-0.3301069836348295
1772701677641832200,2.532832275390625,-0.3044710225969553,0.3357197089500725,-0.37856384828984735
1772701677651880200,2.542880126953125,-0.2093377469629049,0.28404797390177844,-0.44201896011233327
1772701677661928200,2.55292822265625,-0.0800865131497383,0.2816257151909172,-0.4328203391343355
1772701677671976200,2.56297607421875,0.048180385801196095,0.2528181383796036,-0.40601942597031593
1772701677682024200,2.573024169921875,0.1507405965656042,0.23172113594561813,-0.35251989097297187
1772701677692072200,2.583072265625,0.3841963012188673,0.26230200603976844,-0.2913777322679758
1772701677702120200,2.5931201171875,0.6606605419933795,0.2641002876333892,-0.2851695252776146
1772701677712168200,2.603168212890625,0.8817764050334691,0.21235008052140472,-0.29088614935874935
1772701677722216200,2.61321630859375,0.9994313090771436,0.07989245188236237,-0.29625147578418254
1772701677732265200,2.62326513671875,1.022465563184023,0.01131429795771837,-0.29457740509212016
1772701677742313200,2.633313232421875,0.9350637585848569,-0.04557137234658003,-0.2337847904771566
1772701677752361000,2.64336083984375,0.8040718185842036,-0.0856147750519216,-0.12639233725070953
1772701677762409200,2.6534091796875,0.6606704788655042,-0.11830737660303711,-0.018452771535515784
1772701677772457200,2.663457275390625,0.4925678286105394,-0.15115736067295074,0.0691331574589014
1772701677782505000,2.6735048828125,0.33827100086808204,-0.15409794416949152,0.14392799394130706
1772701677792553200,2.68355322265625,0.16487316681444644,-0.17494491736516354,0.19253624976575373
1772701677802601200,2.693601318359375,0.006306991189718246,-0.20617519127875567,0.21711831783652305
1772701677812649200,2.703649169921875,-0.18805355139374733,-0.18228826586529612,0.1743418369054794
1772701677822697200,2.713697265625,-0.3134580466508865,-0.18418883878961204,0.13955927733778953
1772701677832745000,2.723744873046875,-0.4019301108300686,-0.21000892422273754,0.035841128709912295
1772701677842794200,2.733794189453125,-0.4615057508707046,-0.1671533867061138,-0.06256546950638293
1772701677852842000,2.743842041015625,-0.5564303521901369,-0.09351444226056337,-0.19493921925425528
1772701677862890200,2.75389013671875,-0.618316607260704,-0.04334215198978782,-0.28277415457367894
1772701677872938200,2.763938232421875,-0.6487748738884925,-0.027842092780023812,-0.30784722103178497
1772701677882986000,2.773986083984375,-0.6922340763866901,-0.011027589970827102,-0.351574134555459
1772701677893034200,2.7840341796875,-0.7096382156521082,0.031995705328136684,-0.3663385729670524
1772701677903082200,2.794082275390625,-0.6701005705118179,0.017828940548747778,-0.40184769324362274
1772701677913130000,2.8041298828125,-0.5575064569890499,-0.020361381635814906,-0.43370939692854876
1772701677923178200,2.81417822265625,-0.5051204361915588,-0.07225932665541768,-0.4740075050473213
1772701677933226000,2.82422607421875,-0.44596272930204867,-0.11116729559004306,-0.521256162956357
1772701677943275300,2.834275146484375,-0.34067572392225265,-0.1409612530902028,-0.5732558147847652
1772701677953323000,2.844322998046875,-0.29821663837730883,-0.15956249318569898,-0.6172738202095032
1772701677963371000,2.85437109375,-0.2886766566157341,-0.18672098761573433,-0.6376724651157856
1772701677973419300,2.864419189453125,-0.19763386516571044,-0.21644480248913167,-0.6541150658726692
1772701677983467000,2.874467041015625,-0.11833996369838713,-0.2865510427638888,-0.6494406443208456
1772701677993515300,2.884515380859375,-0.12837562002241612,-0.25912381439507004,-0.6167126791954041
1772701678003563300,2.894563232421875,-0.1300140348792076,-0.18817513194680213,-0.5755518167674541
1772701678013611000,2.904611083984375,-0.17854922546744345,-0.17952654606699942,-0.6370651468724012
1772701678023659300,2.9146591796875,-0.2867582557737827,-0.19770400779247282,-0.6614958237737417
1772701678033707300,2.924707275390625,-0.36500820114612575,-0.28438334333598614,-0.6657207479923963
1772701678043756300,2.93475634765625,-0.29366145929098125,-0.4629240932360291,-0.48343759669363495
1772701678053804000,2.944803955078125,-0.31014965275526046,-0.34911198222562667,-0.33461072479486464
1772701678063852000,2.95485205078125,-0.47459202693700786,-0.19933716195225715,-0.32004502382576466
1772701678073900300,2.964900390625,-0.6358452496886253,-0.15367007414624095,-0.30889819138944147
1772701678083948000,2.974947998046875,-0.7613315780103206,-0.14153262323737142,-0.32769232370853424
1772701678093996000,2.98499609375,-0.5266606523483991,-0.13219152504876255,-0.2929939352929592
1772701678104044300,2.995044189453125,-0.2984399257391691,-0.15972703609764574,-0.21125030258595942
1772701678114092000,3.005092041015625,-0.6218202314674854,-0.3010739275045693,-0.36303134811520577
1772701678124140300,3.015140380859375,-1.1433546268433332,-0.4237111500054598,-0.6071802962183952
1772701678134188300,3.025188232421875,-1.3834896631300448,-0.4972365510739386,-0.7136451132059097
1772701678144237000,3.035237060546875,-1.2881775237977504,-0.556894462570548,-0.7491857976645231
1772701678154285300,3.045285400390625,-1.1015262404173611,-0.6488150597684085,-0.6570365062773227
1772701678164333300,3.055333251953125,-0.8276403256982564,-0.6403562973722815,-0.15404022263288497
1772701678174381600,3.065381591796875,-0.3804617908656597,-0.3790853879459202,1.1055647021532058
1772701678184429300,3.07542919921875,-0.33339316569864746,-0.031521511945128436,1.8603665861338377
1772701678194477600,3.0854775390625,-0.2433709494680166,-0.026963702510297297,1.973248868948221
1772701678204525600,3.095525634765625,0.11917758356630802,-0.13389993640184403,2.043759159979224
1772701678214573300,3.1055732421875,0.23676000689566135,-0.1314168874144554,2.1714070502489804
1772701678224621600,3.11562158203125,0.06852525469362736,-0.049371933673322196,2.263164127448201
1772701678234669600,3.125669677734375,-0.4555822060406208,0.04150076190680265,2.368223753812909
1772701678244718600,3.135718505859375,-1.0099825137078762,0.13975187730044125,2.2395523657143115
1772701678254766600,3.1457666015625,-1.3809709583073853,0.295228562477231,1.4458926355510948
1772701678264814300,3.155814453125,-1.4347218377172946,0.29544015940129753,0.708098000472784
1772701678274862600,3.165862548828125,-1.4515122289985418,0.14789865113794803,0.764667444434762
1772701678284910300,3.175910400390625,-1.532137671330571,-0.3938751069292426,0.6339256798028946
1772701678294958300,3.185958251953125,-1.3140531388103962,-0.9576277648314833,0.35047347983717914
1772701678305006600,3.196006591796875,-0.8996469927668571,-1.1334615938603878,0.3781798174083233
1772701678315054300,3.206054443359375,-0.5556698892116546,-0.9565010988891124,0.5309487049311399
1772701678325102300,3.216102294921875,-0.26039690307080743,-0.7783180763855576,0.45643677704334257
1772701678335150600,3.226150634765625,0.10275544107556342,-0.5519043991982937,0.16674071425199508
1772701678345199400,3.236199462890625,0.5224824898809194,-0.24074761522710322,0.019085808742046354
1772701678355247600,3.24624755859375,0.9666168347120284,0.025512042397260664,-0.17916472701728342
1772701678365295400,3.25629541015625,1.314569856160879,0.09806903682500123,-0.371149188119173
1772701678375343400,3.26634326171875,1.5057260497450828,0.0053831543430686,-0.40231355718970296
1772701678385391400,3.276391357421875,1.5552274550169705,-0.08375029635429382,-0.3856301334142685
1772701678395439400,3.286439453125,1.5767174022912978,-0.18461627042144535,-0.26817045968174935
1772701678405487600,3.296487548828125,1.5602391456991433,-0.2872366869404912,-0.1415729552477598
1772701678415535400,3.306535400390625,1.5160376004010438,-0.3261719822734594,-0.1355085406422615
1772701678425583400,3.316583251953125,1.554771527943015,-0.3168351218685508,-0.1788309650182724
1772701678435631600,3.326631591796875,1.5403016885638237,-0.3652615913853049,-0.12955343163013458
1772701678445679400,3.336679443359375,1.4947159954309464,-0.4635319960013032,-0.14991057548224926
1772701678455728600,3.346728759765625,1.3724948063850402,-0.50696460275352,-0.1578080507338047
1772701678465776400,3.3567763671875,1.3032833229929208,-0.43376638781279325,-0.15170155055224896
1772701678475824400,3.366824462890625,1.1404945612370967,-0.4208429010927677,-0.18017010466754435
1772701678485872400,3.376872314453125,0.9957219331651925,-0.2946618685051799,-0.16233751085698603
1772701678495920400,3.38692041015625,0.730981447932124,-0.19159400047957897,-0.25085107609033586
1772701678505968400,3.396968505859375,0.3362637526988983,-0.10927052205801009,-0.3820633808434009
1772701678516016400,3.407016357421875,0.07169803951084613,0.030033903735876083,-0.622356238040328
1772701678526064400,3.417064453125,-0.02225800903737545,0.21754414203315972,-0.46610184648931025
1772701678536112600,3.427112548828125,-0.005174772289395332,0.4616843223080039,-0.13994447726309298
1772701678546161400,3.437161376953125,-0.17530454445779323,0.6148240889698267,0.030050270348787305
1772701678556209400,3.44720947265625,-0.4416226542711258,0.676920771920681,0.176403445610404
1772701678566257400,3.45725732421875,-0.5949895076870918,0.606550181621313,0.3006283756941557
1772701678576305400,3.467305419921875,-0.8064473155438899,0.557347759296,0.5454495239704847
1772701678586353700,3.477353759765625,-1.0039601846784352,0.44706016914993524,0.6832873843431473
1772701678596401400,3.4874013671875,-0.929656931105256,0.41183074259757996,0.6733095956861972
1772701678606449400,3.497449462890625,-0.8104822701483965,0.46972295959591864,0.5456558601975441
1772701678616497400,3.507497314453125,-0.6089648415476083,0.45027357823848724,0.19663141012489793
1772701678626545400,3.51754541015625,-0.28678280569314957,0.3914832433566451,-0.09739888247847557
1772701678636593400,3.527593505859375,0.008602993172407149,0.39037528211474415,-0.34314474438428877
1772701678646641400,3.537641357421875,0.2660328631311655,0.4612517761096358,-0.5385352145373821
1772701678656690400,3.5476904296875,0.4530985725313425,0.41253889086693524,-0.7216665070980787
1772701678666738400,3.557738525390625,0.670389324325323,0.34345629455149174,-0.7712462383031845
1772701678676786400,3.567786376953125,0.8454653207242488,0.34021745876073833,-0.8014134130299091
1772701678686834400,3.57783447265625,0.9373942473590373,0.4733364739179611,-0.8219388991862535
1772701678696882400,3.58788232421875,1.0232137512028217,0.6489864708125591,-0.8098515710294246
1772701678706930400,3.597930419921875,0.9428022438824176,0.7956699009418488,-0.7481891878426075
1772701678716978400,3.607978515625,0.8330950839728116,0.8939633941724896,-0.7117623681992292
1772701678727026400,3.6180263671875,0.6873141556411981,0.9087757633790373,-0.6283563552379607
1772701678737074400,3.628074462890625,0.5229851787060499,0.8762333839535713,-0.5447662178814411
1772701678747123500,3.63812353515625,0.3752659757882356,0.834474555632472,-0.4898825350493192
1772701678757171500,3.64817138671875,0.15187047737836837,0.8186272904202342,-0.4628910677492618
1772701678767219500,3.658219482421875,-0.08913958817720413,0.6820967132538557,-0.5082803615272045
1772701678777267500,3.668267333984375,-0.23879005141854284,0.4643853979602456,-0.5502917033046484
1772701678787315500,3.6783154296875,-0.4389724320232868,0.20391309156566856,-0.5994090776950121
1772701678797363500,3.688363525390625,-0.5982382803499698,0.0417123588308692,-0.6305804610282182
1772701678807411500,3.698411376953125,-0.6803004774868487,0.00750935271680355,-0.6945294938474893
1772701678817459500,3.70845947265625,-0.7433961083471775,-0.046261984959244724,-0.7403630242615937
1772701678827507500,3.718507568359375,-0.8416103988617658,-0.1180216915294528,-0.7630489033222198
1772701678837555500,3.728555419921875,-0.9351169500768184,-0.20986995414346454,-0.7670429413944483
1772701678847604500,3.7386044921875,-0.8968038782954215,-0.27422084576189515,-0.7099298920750617
1772701678857652500,3.748652587890625,-0.766359050783515,-0.4038990728154778,-0.5321867222934961
1772701678867700200,3.7587001953125,-0.6708563573151827,-0.45375382156968114,-0.3861480198085308
1772701678877748500,3.76874853515625,-0.7369903329581022,-0.5245969978168606,-0.23362287791371344
1772701678887796500,3.77879638671875,-0.8671434840470552,-0.6239408768832683,-0.16130582972168922
1772701678897844500,3.788844482421875,-1.0259066435486077,-0.6913985023453831,-0.15638473993241786
1772701678907892500,3.798892578125,-1.1938935584694146,-0.6640048839852214,-0.07697042695581913
1772701678917940500,3.8089404296875,-1.3003273957967758,-0.5878571715891361,-0.04163666324615478
1772701678927988500,3.818988525390625,-1.4856126515209673,-0.41099458403438327,-0.08624912743270396
1772701678938036500,3.829036376953125,-1.6511510042458772,-0.11294716474413871,-0.14186463167071342
1772701678948085500,3.83908544921875,-1.8019152739480138,0.17609101866036653,-0.2384872690796852
1772701678958133500,3.849133544921875,-1.909805155302584,0.2687105579078197,-0.23480478117465972
1772701678968181200,3.85918115234375,-1.8236305544108151,0.3353568669870496,-0.12529811227321624
1772701678978229500,3.8692294921875,-1.6590654306322334,0.47034430636465546,-0.14162848482728005
1772701678988277500,3.879277587890625,-1.5005883945956826,0.6505456829532981,-0.2682534617900848
1772701678998325200,3.8893251953125,-1.3689043806776404,0.7827695028364657,-0.33606150812506674
1772701679008373500,3.89937353515625,-1.283765552574396,0.8086141381889581,-0.39988603778183457
1772701679018421500,3.90942138671875,-1.2368833898901939,0.7929369688466191,-0.5177490316182375
1772701679028469200,3.91946923828125,-1.2009475686341524,0.7517781522452831,-0.6814736129194497
1772701679038518500,3.9295185546875,-1.2236755332708358,0.7379001412793994,-0.8722755862385034
1772701679048566300,3.939566162109375,-1.3051608073025942,0.6739549078524112,-1.0311924749970436
1772701679058614500,3.949614501953125,-1.3459095817983149,0.5946025541961193,-1.1627075620889662
1772701679068662500,3.95966259765625,-1.3877683633625506,0.4797048399060964,-1.3223890054792165
1772701679078710500,3.96971044921875,-1.4360706219777464,0.38365649525374174,-1.382730369195342
1772701679088758500,3.979758544921875,-1.462321207782626,0.35086510950326916,-1.2968781321257352
1772701679098806300,3.98980615234375,-1.2641966364905237,0.6023745033718645,-0.7635363945782184
1772701679108854500,3.9998544921875,-0.4574117595553398,0.9456557336173951,0.716061526697874
1772701679118902500,4.009902587890625,-0.07378390587419272,1.3078630519986152,1.889416739529371
1772701679128950300,4.0199501953125,-0.35498774239122866,1.6358195796012878,1.8266227219641207
1772701679138999600,4.02999951171875,-0.33596915366649627,1.7419618866361677,1.5488532438099383
1772701679149047300,4.04004736328125,-0.37570027555227276,1.6373777688287197,1.3378268131077289
1772701679159095300,4.05009521484375,-0.5578115774154663,1.5370077615849673,1.083393202355504
1772701679169143300,4.060143310546875,-0.5646721108347177,1.3875173112109302,1.0779840367883444
1772701679179191000,4.07019091796875,-0.723103846424818,1.0563368531256914,1.1215782638430594
1772701679189239300,4.0802392578125,-1.227308336815238,0.5504216132946312,0.9147188896924257
1772701679199287300,4.090287353515625,-1.2552245177447796,0.1529191096484661,0.7340747377723456
1772701679209335000,4.1003349609375,-0.7370008543521166,0.04513561127781868,0.7641957352697849
1772701679219383300,4.11038330078125,0.003660276073217392,0.21141513775885104,0.7999000858575105
1772701679229431000,4.12043115234375,0.6345791752755642,0.43173385907188055,0.5731359877973795
1772701679239480300,4.130480224609375,1.261684069147706,0.5305841094024479,0.19764146395027637
1772701679249528000,4.140528076171875,1.8016531158804892,0.7154483632355928,0.04726034834682941
1772701679259576000,4.150576171875,2.241464921337366,0.7772181523196399,-0.2416553777217865
1772701679269624300,4.160624267578125,2.4093670805841683,0.8188644601769745,-0.5301724598616361
1772701679279672000,4.170672119140625,2.5136434476166962,0.8558109197802841,-0.6440279716223478
1772701679289720300,4.18072021484375,2.618433024868369,0.8432833005100488,-0.6628887394368648
1772701679299768300,4.190768310546875,2.608887782409787,0.8471811847314238,-0.5821107368916273
1772701679309816000,4.200816162109375,2.4875977367341515,0.7377030112721026,-0.5414899726897477
1772701679319864300,4.2108642578125,2.1851988442361354,0.6135638597756624,-0.5408206951260567
1772701679329913000,4.2209130859375,1.9357897836476563,0.5312926960632205,-0.5495458533734083
1772701679339961300,4.23096142578125,1.7025456759184598,0.5142743412449956,-0.4555903893470764
1772701679350009000,4.241009033203125,1.468265210878849,0.5649667098671197,-0.23588731571435928
1772701679360057000,4.25105712890625,1.280623162895441,0.7257371175378561,0.018581366351246832
1772701679370105300,4.261105224609375,1.0646522615283727,0.8731504693768918,0.10590601406097412
1772701679380153000,4.271153076171875,0.8452624916285276,0.824968768401444,0.12179624163210391
1772701679390201000,4.281201171875,0.5338309823691845,0.7068423013232648,0.3220966956585645
1772701679400249300,4.291249267578125,0.23312077361047268,0.5695801950119436,0.616994418746233
1772701679410297000,4.301297119140625,-0.014931027150154113,0.5041280641533434,0.8679840265244245
1772701679420345300,4.311345458984375,-0.29083295786678787,0.5491394645296037,1.1777689376205205
1772701679430394000,4.32139404296875,-0.4446352800905704,0.4539839770637452,1.336890409040451
1772701679440442000,4.331442138671875,-0.7128980942308902,0.27437267532274123,1.4664631298929451
1772701679450490000,4.341489990234375,-0.6104173784434795,-0.10349880678877234,1.3068565053045749
1772701679460538000,4.3515380859375,-0.16657061838209627,-0.5543666976585984,0.6358797364801168
1772701679470586400,4.36158642578125,-0.04708148464858532,-0.36678149442896246,0.25865853497087954
1772701679480634000,4.371634033203125,-0.22841069622337817,-0.23259616521447896,-0.20665420696735382
1772701679490682000,4.38168212890625,-0.23842530975937842,-0.27099457719177006,-0.8444424074172973
1772701679500730400,4.39173046875,-0.029179917255043982,-0.22293927907496688,-1.1755623674869538
1772701679510778000,4.401778076171875,0.2876829694032669,0.03175795104950666,-1.3417033622801302
1772701679520827400,4.411827392578125,0.6208440799117088,0.25306670631319284,-1.389766843703389
1772701679530875100,4.421875244140625,0.903078720781207,0.3570294773519039,-1.281499945729971
1772701679540923100,4.431923095703125,1.1063146437376736,0.4267348817408085,-1.0172668254971504
1772701679550971400,4.441971435546875,1.3148153553545474,0.4406606773711741,-0.6991670905202627
1772701679561019100,4.45201904296875,1.4843126748383044,0.6660699998214841,-0.6279337459117174
1772701679571067100,4.462067138671875,1.265138008993864,0.5683671659603715,-0.4443552941054105
1772701679581115100,4.472115234375,0.9488216503024101,0.36934170030578967,-0.2813070046305656
1772701679591163100,4.4821630859375,0.7775023760884999,0.24391353191211818,-0.28902795427143574
1772701679601211400,4.49221142578125,0.6134568922698498,0.19855697135999797,-0.3142307845890522
1772701679611259100,4.502259033203125,0.41327042001187797,0.2293108599334955,-0.30024200672507284
1772701679621308200,4.51230810546875,0.1656558416247368,0.294143105328083,-0.23451193570792675
1772701679631356200,4.522356201171875,-0.1466501123815775,0.3024512072071433,-0.23052374285459518
1772701679641404200,4.532404052734375,-0.40085926672816274,0.32849297256693244,-0.20073533831238746
1772701679651452400,4.542452392578125,-0.5794482396841049,0.37204584469795227,-0.18741759157776833
1772701679661500200,4.552500244140625,-0.5609744253605604,0.3748845752552151,-0.21416063707470892
1772701679671548200,4.562548095703125,-0.48643560946583747,0.3641194356128573,-0.22961422679424284
1772701679681596200,4.57259619140625,-0.5110065716207027,0.22013810404911635,-0.37246962306797504
1772701679691644200,4.58264404296875,-0.65318099989295,0.050369420278072355,-0.45268356198966503
1772701679701692200,4.592692138671875,-0.8233283077180386,-0.06488572914749384,-0.5734598129242658
1772701679711741200,4.6027412109375,-0.9760521870553492,-0.10624942067116498,-0.7867845836967229
1772701679721789200,4.6127890625,-0.9720400288045405,-0.08799450979530811,-0.9527063827812671
1772701679731837200,4.622837158203125,-1.0389753839582203,-0.1281751290142536,-1.0253349811404944
1772701679741885200,4.63288525390625,-1.040208725145459,-0.20012100580632686,-1.0155945083707572
1772701679751933200,4.64293310546875,-1.150046817958355,-0.31377617268934843,-0.9732079035401344
1772701679761981200,4.652981201171875,-1.0328279672443865,-0.2697074599906802,-0.7120733338445424
1772701679772029200,4.663029296875,-0.7374900991737842,-0.31706732318922876,-0.39455461362600325
1772701679782077200,4.6730771484375,-0.40382629984021184,-0.13184782617762683,-0.7039981639385223
1772701679792125200,4.683125244140625,-0.5116337636083365,0.2599713711351156,-0.647360330915451
1772701679802174200,4.69317431640625,-0.6449246282011271,0.40543636538535355,-0.5454448477953672
1772701679812222200,4.70322216796875,-0.6328408071756363,0.490325018119812,-0.6143979725122451
1772701679822270200,4.713270263671875,-0.6782780317485332,0.5465747286081314,-0.5268488683968782
1772701679832318200,4.723318115234375,-0.9265916983157396,0.6285147606700658,-0.27877544032633306
1772701679842366200,4.7333662109375,-1.2522221210584044,0.6098962771788239,0.038404841718077655
1772701679852414200,4.743414306640625,-1.6381234726294873,0.5671608589105308,0.14121698141694067
1772701679862462200,4.753462158203125,-1.963888627667725,0.3577233048349619,0.11617664818465709
1772701679872510200,4.76351025390625,-2.064130332356691,0.1153071718737483,-0.011415712505578993
1772701679882558200,4.77355810546875,-2.1526865676879883,-0.5266042459860444,-0.07879647333920002
1772701679892606200,4.783606201171875,-2.1000085782065985,-1.2561371025450527,-0.3417103276669979
1772701679902655200,4.7936552734375,-1.9840303752034902,-1.4657694485403596,-0.3928939869374037
1772701679912703200,4.803703125,-1.7841256424963474,-1.2703890613898634,-0.05791092169880867
1772701679922751200,4.813751220703125,-1.3738520662128924,-0.9359086849763989,0.7843716773360967
1772701679932799000,4.823799072265625,-1.021460185533762,-0.29996318978369235,1.88498021838665
1772701679942847200,4.83384716796875,-1.3834996000021695,0.5899255022957921,1.845440235158801
1772701679952895200,4.843895263671875,-1.49495155775249,1.2654501436829566,1.4973767390727997
1772701679962943000,4.85394287109375,-1.015448962420225,1.234362785371393,1.776925501859188
1772701679972991200,4.8639912109375,-0.5165162749528884,0.9150387692965567,2.320090129762888
1772701679983039200,4.874039306640625,-0.1608843894392252,0.5637890443898738,2.492947281068563
1772701679993088300,4.884088134765625,0.023658523485064507,0.07576338925361632,2.2285388042688368
1772701680003136300,4.89413623046875,0.15925824954211712,-0.4008393929839134,1.6504571767628191
1772701680013184300,4.904184326171875,0.3846656722962856,-0.6622986645892263,0.7306184598386287
1772701680023232300,4.914232177734375,0.6640811640918255,-0.7817028965182602,0.01796586480140686
1772701680033280300,4.9242802734375,0.9465092817068099,-0.7583182215385138,0.17462416097819805
1772701680043328300,4.934328369140625,1.366430391779542,-0.6691583212256431,-0.051290042254328726
1772701680053376300,4.944376220703125,1.6078718344897032,-0.5029843009456992,-0.6619236937969922
1772701680063424000,4.954424072265625,1.8172072433650492,-0.3849105869680643,-1.0800304479241372
1772701680073472300,4.96447216796875,2.1286089420080185,-0.3612948797114193,-0.9148205965012312
1772701680083521000,4.97452099609375,2.430263153618574,-0.4781874210804701,-0.42614685271978375
1772701680093569300,4.9845693359375,2.7354221584796905,-0.6182188459746539,-0.18400573730766773
1772701680103617300,4.9946171875,2.834680405089259,-0.6934181716047227,-0.19650515339672564
1772701680113665000,5.0046650390625,2.5502935546219345,-0.4914909931592643,-0.6183405726581812
1772701680123713300,5.01471337890625,2.0996154872357846,-0.1931077660433948,-1.0565431893527508
1772701680133761300,5.02476123046875,1.9667805497169493,-0.16423706086799503,-1.088368652680516
1772701680143809000,5.03480908203125,1.9806313804149627,-0.019063743040710686,-0.6203507434368133
1772701680153857300,5.044857177734375,1.8067168290108442,0.08872545441836119,-0.14002689484953879
1772701680163905300,5.0549052734375,1.3932991094827651,0.2554180917449295,0.23518238231539726
1772701680173954300,5.064954345703125,0.8794003235518932,0.45097792711555956,0.626091917437315
1772701680184002000,5.075001953125,0.19809914458990097,0.6050663728043436,1.0874597211420536
1772701680194050300,5.08505029296875,-0.40329789205193517,0.6421098630413413,1.9673972203105687
1772701680204098300,5.095098388671875,-0.9017804976642131,0.6285135916262865,2.68204654212296
1772701680214146300,5.105146240234375,-1.3285299924522638,0.2789367683678865,3.2315251754790544
1772701680224194300,5.1151943359375,-1.723684910058975,-0.20733371366411446,3.697924543610215
1772701680234242300,5.1252421875,-2.0247183594226836,-0.7494282281182706,3.2969267451941966
1772701680244290300,5.135290283203125,-1.6817255907297133,-1.1822389226414263,2.1929045963078737
1772701680254338300,5.14533837890625,-0.9967816713511943,-1.5277097718857229,0.6942354793369769
1772701680264387300,5.15538720703125,-0.35588556801378723,-1.7310988395772873,-0.3551636834800243
1772701680274435300,5.165435302734375,0.1532762525230646,-1.5855458747826516,-0.7773094838649034
1772701680284483000,5.175483154296875,0.4744061489760875,-1.0161736234329641,-0.5836398461550474
1772701680294531300,5.18553125,0.7901905927479267,-0.4159896158427,-0.3036468467324972
1772701680304579300,5.195579345703125,1.3009867364883423,-0.04439034586846828,-0.5609387695252895
1772701680314627000,5.205626953125,1.662329985386133,0.0947089127421379,-0.7043728424698114
1772701680324675300,5.21567529296875,1.5620365505099296,0.1461808874346316,-0.5492629447788
1772701680334723300,5.225723388671875,1.1751356665074824,0.1934117174260318,-0.4088432512193918
1772701680344771300,5.235771240234375,0.742572517004609,0.21578443888425825,-0.4520166225135326
1772701680354820400,5.2458203125,0.3844645967662334,0.3156291070796549,-0.7496329569101333
1772701680364868000,5.2558681640625,0.08388532091081143,0.5172711849734187,-1.0600953288763761
1772701680374916400,5.265916259765625,-0.07254559625089169,0.5159751538135111,-1.0199351679235695
1772701680384964400,5.27596435546875,-0.08917699757814407,0.24936682888194917,-0.986265538033843
1772701680395012400,5.286012451171875,0.016296470284461975,-0.0654471624225378,-0.9260913475781679
1772701680405060400,5.296060302734375,0.06346738678216934,-0.31791634123399853,-0.7908838357090949
1772701680415108000,5.306108154296875,0.07476034969091415,-0.46268049373850223,-0.6949743150055409
1772701680425156400,5.31615625,0.08587678698897361,-0.5781193291679024,-0.6588520312666892
1772701680435204400,5.326204345703125,0.0699742844581604,-0.5848027524545788,-0.6685135935813188
1772701680445252000,5.336252197265625,0.07798106530308722,-0.7096456683062017,-0.7698007156699895
1772701680455301400,5.34630126953125,-0.08407295243740082,-0.7616223776504397,-0.8643173207104206
1772701680465349000,5.35634912109375,-0.3998801925629377,-0.7802671646267175,-0.8137778045624494
1772701680475397400,5.3663974609375,-0.7618798595428466,-0.8460038115151226,-0.7398211724698543
1772701680485445400,5.3764453125,-1.0062316367417574,-0.8529898710101842,-0.6568786853671074
1772701680495493000,5.3864931640625,-1.2310019306361675,-0.8057162247903644,-0.6749351510614157
1772701680505541400,5.396541259765625,-1.5135872846394776,-0.6309905031338334,-0.6690209585815667
1772701680515589000,5.406589111328125,-1.7213643581569193,-0.4218507629610598,-0.6846200942516326
1772701680525637400,5.416637451171875,-1.7741250574856995,-0.330855756175518,-0.8462479955345392
1772701680535685400,5.426685302734375,-1.7694266705363988,-0.3597831599742174,-0.913866072255373
1772701680545734100,5.436734130859375,-1.6048720681518316,-0.38763986580148335,-0.87644088922441
1772701680555782400,5.446782470703125,-1.5364391679167746,-0.2387951659850776,-0.7925485540509224
1772701680565830100,5.456830078125,-1.4401368485033512,-0.18668810825943946,-0.5653063170850277
1772701680575878400,5.46687841796875,-1.435274795424938,-0.015586714579910038,-0.35592473098039623
1772701680585926400,5.476926513671875,-1.4790928943634032,0.11865443647503852,-0.3421814523100853
1772701680595974100,5.48697412109375,-1.5991951915591953,0.1923234837979078,-0.21839023746848105
1772701680606022400,5.4970224609375,-1.6259651250630616,0.2185419208988547,-0.1734054328382015
1772701680616070100,5.507070068359375,-1.6441677212297916,0.28097718815431,-0.11795768638253211
1772701680626118100,5.5171181640625,-1.6747633505016564,0.27283435983955856,-0.09852057998478413
1772701680636167200,5.527167236328125,-1.677451566672325,0.24912162194922566,-0.24363866049349306
1772701680646215200,5.537215087890625,-1.5701695880830286,0.2056415227934718,-0.5484411070019006
1772701680656263400,5.547263427734375,-1.1483768389195204,0.23421032241284845,-0.6056932725310326
1772701680666311200,5.557311279296875,-0.35724048975408074,0.6267969969667494,0.05648994898498058
1772701680676359200,5.567359130859375,0.3109422644376755,1.1700929961651563,1.5753624805510043
1772701680686407400,5.577407470703125,0.3746586575448513,1.7370066023163497,2.2405179958760737
1772701680696455200,5.587455078125,0.07945698307454585,1.7893274489231406,1.3675234477132558
1772701680706503400,5.59750341796875,-0.08657996682226657,1.3025932949021457,0.7811404403299093
1772701680716551400,5.607551513671875,-0.23253274458944795,0.9069443101681768,0.6374748967170715
1772701680726600200,5.61760009765625,-0.3948492126584053,0.8770534681648016,0.7351403211772441
1772701680736648400,5.6276484375,-0.67475920997262,0.5108879136770963,0.5297141947001218
1772701680746696200,5.6376962890625,-1.052879990670085,-0.24917130630984902,0.29835400102138515
1772701680756744400,5.647744384765625,-0.9415466908633708,-0.9272015007771551,0.43929041193127627
1772701680766792200,5.657792236328125,-0.188210787782073,-1.0490193697191774,0.761285985302925
1772701680776840200,5.667840087890625,0.8610802384853362,-0.6036205579102039,0.9374147056251764
1772701680786888400,5.677888427734375,1.755110560414195,0.2596929925851524,1.1626268980681895
1772701680796936200,5.687936279296875,2.1336907753169534,1.089197212459147,1.7063491598546503
1772701680806985500,5.6979853515625,1.9480553909808396,1.3615584018290041,2.0474404788404703
1772701680817033200,5.708033203125,1.943974259147048,0.9284528160125016,1.7141010891556738
1772701680827081200,5.718081298828125,2.1919927421599623,0.3390243034534156,0.94408468490839
1772701680837129500,5.72812939453125,2.593921099424362,-0.19163491701185703,0.11922785244882106
1772701680847177200,5.73817724609375,2.9890216564953325,-0.5583364780724048,-0.434108040857315
1772701680857225200,5.74822509765625,3.1968250334978103,-0.6167009887576103,-0.7369201903313398
1772701680867273200,5.758273193359375,3.0557950990855693,-0.5547863843753934,-0.863822230669856
1772701680877321200,5.7683212890625,2.5298241825670003,-0.5273851672306656,-0.7316705992400646
1772701680887369200,5.778369140625,1.9222902506053448,-0.4535562531709671,-0.4844453124314546
1772701680897418200,5.788418212890625,1.523456352224946,-0.44497766378745435,-0.42615678959190845
1772701680907466200,5.79846630859375,1.2417641476690768,-0.39607553958296776,-0.4027659771323204
1772701680917514200,5.80851416015625,0.8077157280445099,-0.25622853134497997,-0.3376654361903667
1772701680927562200,5.818562255859375,0.2472930913478136,-0.0582851618386805,-0.1376601657181978
1772701680937610500,5.828610595703125,-0.1802034224152565,0.23425825320780275,0.04690495903789997
1772701680947658200,5.838658203125,-0.36929976086020466,0.5082626797400415,0.3394651790887117
1772701680957706200,5.848706298828125,-0.23906185409724712,0.6326010070703924,0.6436047777742147
1772701680967754200,5.858754150390625,-0.01689268261194229,0.620459464508295,1.0156173047244548
1772701680977803300,5.86880322265625,0.10534370400309562,0.5492956780046224,1.3154846329182386
1772701680987851300,5.878851318359375,0.09376052597612142,0.46253582457080483,1.5924784505248069
1772701680997899300,5.888899169921875,-0.017595277923345566,0.3432248238831758,1.6035025333642958
1772701681007947300,5.898947265625,-0.18464783460348844,0.04335683810226619,1.3651976351141928
1772701681017995300,5.908995361328125,-0.2879100561574101,-0.4098686487443745,0.7950801183551549
1772701681028043300,5.919043212890625,-0.29167116225659845,-0.8912697711743414,0.10811375323832034
1772701681038091300,5.92909130859375,-0.21675766783058642,-1.0962553142771123,-0.2962403698682785
1772701681048139300,5.93913916015625,-0.10141367107778787,-0.9663337799869477,-0.3453606668680906
1772701681058187300,5.949187255859375,0.1363625271230936,-0.6906867008142172,-0.4120119443833828
1772701681068236300,5.959236328125,0.42238194722831246,-0.3529438154734671,-0.5473679248124361
1772701681078284300,5.9692841796875,0.569901243659854,-0.10573694110438227,-0.5726134252279996
1772701681088332300,5.979332275390625,0.5207067123800516,0.049964931130409236,-0.49947512378096576
1772701681098380300,5.98938037109375,0.34227497581243516,0.1397143217690289,-0.5258119265645742
1772701681108428300,5.99942822265625,0.18319792805612087,0.11512823511026798,-0.47207916733324523
1772701681118476300,6.009476318359375,0.10050269371271132,0.04252542877942323,-0.32656302741765975
1772701681128524300,6.019524169921875,-0.0014028525352478027,-0.12643069649972022,-0.2518681441783905
1772701681138572300,6.029572265625,-0.005201075774431229,-0.17396993485316634,-0.1964016930222511
1772701681148620300,6.039620361328125,-0.024245967984199524,-0.13645268962457777,-0.10311083038449287
1772701681158669800,6.049669921875,0.001191255611181259,-0.12687529846206308,0.03195814979672432
1772701681168718000,6.059718017578125,-0.014341829085350036,-0.20243008646629748,0.14262041847407816
1772701681178766000,6.06976611328125,-0.09409925641119479,-0.2238716645542532,0.2870271358430385
1772701681188813800,6.079813720703125,-0.10986001238375902,-0.20550817873738705,0.37104689678847785
1772701681198862000,6.089862060546875,-0.04179916033148765,-0.2191338954426348,0.38410219319462774
1772701681208910000,6.09991015625,0.0458405446767807,-0.11152370781227945,0.476012999650836
1772701681218958000,6.1099580078125,0.0347866512209177,0.24474793690964577,0.607857757088542
1772701681229006000,6.120006103515625,-0.00405599739253521,0.55309324365668,0.7251672086954116
1772701681239054800,6.130054931640625,-0.028116671937704084,0.4991103090565651,0.7872644761681556
1772701681249103000,6.14010302734375,-0.134006319385767,0.295931742310524,0.684690236878395
1772701681259151000,6.150151123046875,-0.26545944715738296,0.1685218255151063,0.49638709463775155
1772701681269199000,6.16019921875,-0.2958487402021885,0.17786650390028952,0.40309038678109643
1772701681279247000,6.1702470703125,-0.3425678212791681,0.21892098334431648,0.2699748787552118
1772701681289294800,6.180294921875,-0.43532706125825643,0.17991357262320815,0.11229542283713817
1772701681299343000,6.190343017578125,-0.516776387193799,0.15182853793278336,-0.09913315892517566
1772701681309391000,6.20039111328125,-0.6032090544998645,0.18822028626278042,-0.3362584920018911
1772701681319438800,6.21043896484375,-0.5858540150731801,0.24880714917257427,-0.40788580436408517
1772701681329488100,6.220488037109375,-0.5193944607377052,0.24258600963540375,-0.48145256035625933
1772701681339536000,6.230535888671875,-0.5025608148366213,0.17713482862487434,-0.57292965157032
1772701681349584100,6.240584228515625,-0.4234071986228227,0.08448913202285765,-0.5464508099675178
1772701681359632100,6.250632080078125,-0.3470516886949539,-0.032890900602191686,-0.45098201876878735
1772701681369680000,6.260679931640625,-0.3487894722729921,-0.13443345875665544,-0.32487785080969334
1772701681379728100,6.27072802734375,-0.4292465723007917,-0.24330957466959952,-0.20227029279470443
1772701681389776000,6.28077587890625,-0.4846785366654396,-0.22869886551499366,-0.12649638214707373
1772701681399824100,6.29082421875,-0.515073674929142,-0.1563240957863629,-0.040353053176403045
1772701681409873000,6.300872802734375,-0.5045376678675413,-0.10385551127195358,0.10576280619800091
1772701681419921000,6.3109208984375,-0.4348240801721811,-0.06521247688382864,0.2069891380101442
1772701681429969200,6.32096923828125,-0.3644213411688804,0.03273921717181802,0.3813017488211393
1772701681440017000,6.331016845703125,-0.320104060536623,0.18494038780927657,0.7649310638070106
1772701681450065200,6.341065185546875,-0.08835106814801692,0.3446269457660615,1.1856658283501862
1772701681460113200,6.351113037109375,0.21964929761886595,0.40877953833341596,1.6213257748246193
1772701681470161000,6.361160888671875,0.4924374802291393,0.3059022244438529,1.936551415669918
1772701681480209200,6.371209228515625,0.7890531131505966,0.11236819581240415,2.1644705289840696
1772701681490257200,6.381257080078125,1.0251578710079192,-0.05149550169855356,2.3026304609179498
1772701681500306200,6.39130615234375,1.091435054513812,-0.019293606273829936,2.330107081386447
1772701681510354000,6.40135400390625,1.030611460238695,0.18274886911436913,2.1193010154366494
1772701681520402000,6.41140185546875,0.7314402976155281,0.3766219204418361,1.6895131758660078
1772701681530450200,6.4214501953125,0.727740274053812,0.34733708150759335,1.3815426207154988
1772701681540498000,6.431497802734375,0.9865180514901876,0.09532514494433998,1.3714537728995084
1772701681550546000,6.4415458984375,1.129061313074827,-0.11679068842977285,1.4821195487082004
1772701681560594200,6.45159423828125,1.2709049019575118,-0.29523674578368664,1.445310451748967
1772701681570642000,6.461641845703125,1.4931079757124184,-0.4490096957825124,1.3834990154802798
1772701681580691200,6.471691162109375,1.8655676619082688,-0.4853992521554231,1.359095226585865
1772701681590739000,6.481739013671875,2.061077959048748,-0.6040256315797567,1.3180097674816846
1772701681600787000,6.491786865234375,2.3403601798534392,-0.5413882658809424,1.1430161886692047
1772701681610835200,6.501835205078125,2.454033905306458,-0.43890930365920067,0.831992091166973
1772701681620883000,6.511883056640625,2.4529519552886483,-0.3124228583842516,0.5290940169751643
1772701681630931200,6.52193115234375,2.4484376927345988,-0.15694237381517886,0.2867284451574087
1772701681640979000,6.53197900390625,2.4218787716329095,-0.09826835878938436,0.05643441940546035
1772701681651027000,6.54202685546875,2.4964397993594405,-0.05449263768792152,-0.18159458451271057
1772701681661075200,6.5520751953125,2.531341016870737,0.1021443234398961,-0.3941775970071554
1772701681671124000,6.5621240234375,2.366909164083004,0.23976357262581585,-0.3814771053880453
1772701681681172200,6.572172119140625,2.311538574516773,0.37727877691537137,-0.2552496033102274
1772701681691220000,6.582219970703125,2.0841449463814494,0.5929036413237452,-0.05529226363301277
1772701681701268000,6.59226806640625,1.8490782994002102,0.8582125740945339,0.19695757333934305
1772701681711316200,6.602316162109375,1.4239239648491144,1.0465943345293403,0.843286807641387
1772701681721364000,6.612364013671875,0.7295598906964064,1.1188424091383815,1.0367369573816656
1772701681731412000,6.622411865234375,0.127765963691473,1.1461886812254787,1.01967330211699
1772701681741460000,6.6324599609375,-0.127296008092165,1.2155731830969452,0.8346922900363802
1772701681751509000,6.642509033203125,-0.3599439034938812,1.2738880094215272,0.5519944155693054
1772701681761557000,6.652556884765625,-0.38184126252532,0.4562421312540769,-0.16993103472590446
1772701681771605000,6.66260498046875,-0.08804887033104895,-0.1477276784852147,-0.4013882590383291
1772701681781653000,6.672653076171875,0.0033458032965660092,-0.42469256225824353,-0.47767888703644273
1772701681791701000,6.682700927734375,0.01792845540046692,-0.4961839732810855,-0.3063753949135542
1772701681801749000,6.6927490234375,-0.09748656076192855,-0.41569355550557374,-0.14982698885202406
1772701681811797200,6.70279736328125,-0.28581600648760797,-0.27635522744208574,-0.019015081593394278
1772701681821845000,6.712844970703125,-0.36604046680331226,0.012832009044289588,0.09639701195955276
1772701681831894000,6.72289404296875,-0.3873544729888439,0.3494347844392061,0.05206570280194282
1772701681841942000,6.73294189453125,-0.7270645667493343,0.533031648685038,0.08079086202681064
1772701681851990000,6.742989990234375,-0.9874164616346359,0.6452028606206178,0.04627776705026626
1772701681862038000,6.7530380859375,-0.9508931958794593,0.701563045746088,-0.04602700715959072
1772701681872086000,6.7630859375,-0.8208855907410383,0.6275117211073636,-0.09680267015099525
1772701681882134000,6.773134033203125,-0.678263418701291,0.4814107670411467,-0.11245382826924323
1772701681892182000,6.78318212890625,-0.5789771150410175,0.3372913421809673,-0.11575053172707557
1772701681902230000,6.79322998046875,-0.5313081858932972,0.21336393373906612,-0.1695423276692629
1772701681912278000,6.803278076171875,-0.4404986186772585,0.12394932801276444,-0.20668284853994845
1772701681922327000,6.8133271484375,-0.2921130608052015,0.14232932657301425,-0.15141805743575096
1772701681932375000,6.823375,-0.1402887606561184,0.21388065108954904,-0.09151040896177291
1772701681942423000,6.833423095703125,0.002952420064806938,0.3502671436101198,0.009218494722247124
1772701681952471000,6.843470947265625,0.12459727052748203,0.35516397574096914,0.08661912978887558
1772701681962519000,6.85351904296875,0.17004443197250366,0.2524810153797269,0.11920739418268203
1772701681972567000,6.863567138671875,0.21281740577220915,0.13176350889503954,0.037193712362647055
1772701681982615000,6.873614990234375,0.25292086810171605,0.04973550628870725,-0.06785071643292903
1772701681992662800,6.883662841796875,0.31969547973573204,0.03789893802255392,-0.15485972232222556
1772701682002712000,6.893712158203125,0.48812896938025946,0.07755933275967836,-0.21595278118848799
1772701682012759800,6.903759765625,0.6509995642006396,0.210367090010643,-0.2055962223470211
1772701682022808000,6.91380810546875,0.747969992133975,0.2524818921625614,-0.043100890579819674
1772701682032856000,6.92385595703125,0.8008417506217956,0.26823680291622876,0.08454992229938507
1772701682042904000,6.933904052734375,0.8474912735939025,0.38824469982683657,0.1520382351607084
1772701682052952000,6.9439521484375,0.8322773378491402,0.6167497963353992,0.20714403631091116
1772701682063000000,6.954,0.8057984962463378,0.7880857294231652,0.14539163675308225
1772701682073048000,6.964048095703125,0.8042278859287499,0.9442758235663175,0.12191723766326903
1772701682083097000,6.97409716796875,0.8162158453643321,1.092966209603846,0.1896276688426733
1772701682093145000,6.98414501953125,0.8314584226816892,1.2196087222233414,0.26829554736614225
1772701682103193000,6.994193115234375,0.9815642284750938,1.2978440545484422,0.3501560844510794
1772701682113240800,7.00424072265625,1.229048458480835,1.2663584906995295,0.4666436982810497
1772701682123289000,7.0142890625,1.416280172097683,1.1487640846714378,0.566558947494626
1772701682133337000,7.024337158203125,1.3748890080451965,1.052978774869442,0.6344365519344807
1772701682143384800,7.034384765625,1.1749269921928645,1.0020318469643592,0.7233809098005295
1772701682153433000,7.04443310546875,0.9263140504181384,0.9647472414478659,0.7561831092059612
1772701682163481300,7.0544814453125,0.6800777746468782,0.9587564766004681,0.6813982095956802
1772701682173529000,7.064529052734375,0.501595184674859,0.9890154212638735,0.6547317364662886
1772701682183577300,7.074577392578125,0.35183658488392827,1.117187043146789,0.7346084062576294
1772701682193625000,7.084625,0.2732838571727276,1.2463769021615385,0.8368067979723215
1772701682203673000,7.094673095703125,0.38384617260694504,1.2090379361093044,0.9866314487367868
1772701682213721300,7.104721435546875,0.552011951225996,1.0151108165070415,1.077238771378994
1772701682223769000,7.11476904296875,0.7295353407770395,0.802183812880516,1.0053455015569925
1772701682233817000,7.124817138671875,0.7805687779217958,0.7400693020120263,0.8486696697235107
1772701682243866000,7.1348662109375,0.7080430554151534,0.7308554834648966,0.7160054125964641
1772701682253914000,7.1449140625,0.5680225903064012,0.6814212982103228,0.5737538274347782
1772701682263962400,7.15496240234375,0.38025603916049,0.538542813321948,0.40738311553895473
1772701682274010000,7.165010009765625,0.17833061428070068,0.34327743085324763,0.353129547303915
1772701682284058000,7.17505810546875,0.04060381306707859,0.20485183372050522,0.4683107547104358
1772701682294106400,7.1851064453125,0.09683657242059707,0.10859189214408398,0.5456850862920284
1772701682304154000,7.195154052734375,0.3175286570906639,0.031014146944880482,0.5425234073907137
1772701682314202400,7.205202392578125,0.6786544638454913,-0.005590659613907337,0.4692003970265388
1772701682324250000,7.21525,0.8944324729889631,-0.03455927220582962,0.42984161558449263
1772701682334299100,7.225299072265625,0.9453852461129426,0.09495821132808924,0.5135030646115541
1772701682344347100,7.23534716796875,0.8067185337007046,0.14522095636129378,0.5008785608381032
1772701682354395100,7.24539501953125,0.6328793856203556,0.1454363526776433,0.4319184218585491
1772701682364443400,7.255443359375,0.5446446373283863,0.13828428896591066,0.37243922792971135
1772701682374491100,7.2654912109375,0.18605214844346046,0.038989509738236665,0.3418336617857218
1772701682384539100,7.2755390625,-0.36037235803902146,-0.05823533134758472,0.4425175572842359
1772701682394587400,7.28558740234375,-0.5774298855990171,0.03007818126901984,0.9469564409524202
1772701682404635100,7.29563525390625,-0.23018472015857694,0.42669995655789966,1.7354145108193157
1772701682414684400,7.305684326171875,0.5032254162251949,1.2245543619319796,2.172239993941784
1772701682424732200,7.315732177734375,1.1106465354621409,1.8117556999608873,2.16135502731204
1772701682434780200,7.3257802734375,0.7330991707384585,1.6471831235282122,1.3015794416844844
1772701682444828200,7.335828125,-0.23709143080711365,0.8125592225529253,0.16457915230393408
1772701682454876200,7.345876220703125,-0.860877409389615,-0.16665128240287302,-0.380617858210206
1772701682464924200,7.355924072265625,-0.9685036713719367,-0.8956342499941586,-0.5274924269974232
1772701682474972200,7.36597216796875,-0.8412754678189754,-1.4469886140942572,-0.824782013657689
1772701682485020200,7.376020263671875,-0.5917150160610676,-1.8031655662700532,-1.407186180537939
1772701682495069200,7.386069091796875,-0.1829050825893879,-1.806190320918709,-1.7824293599724768
1772701682505117200,7.3961171875,0.3538023319989443,-1.51977021105811,-1.714727696621418
1772701682515165200,7.406165283203125,0.8311895426124334,-1.052705364755541,-1.5805284850120545
1772701682525213200,7.416213134765625,1.0886369482278824,-0.5400464958831668,-1.5641870065420864
1772701682535261200,7.42626123046875,0.8606161281049252,-0.250567290712893,-1.4937053570836782
1772701682545309200,7.43630908203125,0.17148937008380888,-0.32696883173957464,-1.1941069089591503
1772701682555357200,7.446357177734375,-0.4115267912149429,-0.4504813757702708,-0.8742565309226512
1772701682565405200,7.4564052734375,-0.8627233295172453,-0.48265857514515514,-0.5184942970275879
1772701682575454200,7.4664541015625,-1.3426841900110245,-0.4375689949661493,-0.15770108322799206
1772701682585502200,7.476502197265625,-1.6588894895434378,-0.3400853568136692,0.04824935938417911
1772701682595550200,7.48655029296875,-1.5586317105025052,-0.10858020170629024,0.3516875318020582
1772701682605598200,7.49659814453125,-1.3099609010607003,0.1937983786560595,0.692086776870489
1772701682615646200,7.506646240234375,-1.476202433618903,0.421773898332566,0.8405220191031694
1772701682625694200,7.516694091796875,-1.8247136734724043,0.5019790694259106,0.8884469688385724
1772701682635742200,7.5267421875,-1.998357591241598,0.2988423690602183,0.930977366054058
1772701682645790200,7.536790283203125,-1.8146341780066488,-0.1771170007072389,0.8798211793124675
1772701682655839200,7.546839111328125,-1.3751906213402747,-0.5176708518154919,0.7535936772346497
1772701682665887200,7.55688720703125,-0.9572527940392493,-0.6070582772739231,0.7641419592559338
1772701682675935200,7.566935302734375,-0.5187479795277118,-0.8494165425680578,0.5649813229143619
1772701682685983200,7.576983154296875,-0.19992168384194373,-0.9905537367470562,0.2991980506300926
1772701682696031000,7.587031005859375,0.06208090085983276,-0.9921754927299916,-0.007039397117495536
1772701682706079200,7.597079345703125,0.31896424285173414,-1.0227721449151634,-0.29830256309509273
1772701682716127200,7.607127197265625,0.2526870593458414,-0.916413710911572,-0.42115854291319843
1772701682726175200,7.61717529296875,0.4146563214123249,-0.8218814699105917,-0.47992345109283924
1772701682736224300,7.627224365234375,0.544796028497815,-0.6669600805290044,-0.538475593304634
1772701682746272000,7.63727197265625,0.5438005877196789,-0.515047663705051,-0.5347264699041843
1772701682756320300,7.6473203125,0.5250304207980633,-0.5089074073843658,-0.5453466481178999
1772701682766368300,7.6573681640625,0.49000002394914627,-0.5928973577134311,-0.6079255616277456
1772701682776416300,7.667416259765625,0.4925549691289663,-0.7111880754426121,-0.6134609839230776
1772701682786464300,7.67746435546875,0.42796822292804715,-0.8908268497124314,-0.7077256600290537
1772701682796512000,7.687511962890625,0.2924129205346107,-0.9503606964379548,-0.7830062342017888
1772701682806560300,7.697560302734375,0.12074351770877838,-0.9266302767604588,-0.7337240246385336
1772701682816609000,7.707609130859375,-0.07029810958504676,-0.921489260610193,-0.5557452925354242
1772701682826657300,7.7176572265625,-0.14948679711222648,-0.8130873380802571,-0.35425533646345136
1772701682836705300,7.727705322265625,-0.1539876156628132,-0.6934722398795187,-0.17439152126610277
1772701682846753000,7.7377529296875,-0.2061842513680458,-0.6305893749870359,-0.03293547039628029
1772701682856801300,7.74780126953125,-0.37724692047238345,-0.6409264984756707,-0.05513970341980457
1772701682866849300,7.757849365234375,-0.5563730690449475,-0.7036372216716408,-0.10486731866300106
1772701682876897000,7.76789697265625,-0.6259475405305623,-0.7474746098324656,-0.19063070840537547
1772701682886945300,7.7779453125,-0.6289478913903236,-0.7648004231646657,-0.24311668244600296
1772701682896994000,7.787994140625,-0.7317875036180019,-0.8006694627948104,-0.20672551863789557
1772701682907042300,7.798042236328125,-0.7990905230402946,-0.8905937716089188,-0.18270108444988725
1772701682917090300,7.80809033203125,-0.7603139254003762,-0.9496551785171031,-0.15498364096283912
1772701682927138000,7.818137939453125,-0.70163377289474,-0.9400887471400201,-0.1452162801861763
1772701682937186300,7.828186279296875,-0.5839736081540584,-0.8360900280050932,-0.15783669230639932
1772701682947234000,7.838234130859375,-0.4656535181999206,-0.7103085161291063,-0.23956278935670852
1772701682957282300,7.8482822265625,-0.4597954398214817,-0.5403372955232858,-0.35137948876619335
1772701682967330300,7.858330322265625,-0.572857170855999,-0.4601427919544279,-0.5353899022489785
1772701682977379000,7.868379150390625,-0.699724139881134,-0.5176702672936022,-0.7546388023734092
1772701682987427300,7.87842724609375,-0.7054431020498275,-0.6456843605272472,-0.738988228777051
1772701682997475000,7.88847509765625,-0.5958242049455642,-0.6553969223767518,-0.7389315301537513
1772701683007523300,7.8985234375,-0.48585751731693744,-0.7649141126722097,-0.5692448255777358
1772701683017571300,7.9085712890625,-0.6449965243935585,-0.9846031577795743,-0.31862112850248814
1772701683027619000,7.918619140625,-0.1636725588530302,-0.9819494284003972,-0.085310969799757
1772701683037667300,7.928667236328125,0.0758165807455778,-0.6563169598311186,0.08869067536592483
1772701683047715000,7.938715087890625,-0.4048679178476333,-0.62626902756989,0.005235562565922737
1772701683057764400,7.948764404296875,-1.0972124688714742,-0.3388499697998166,-0.28421558555364607
1772701683067812000,7.95881201171875,-1.3726876986086367,-0.32345103287696836,-0.22548457964360713
