time,seconds_elapsed,z,y,x
1772701675164978200,0.055978271484375,-0.05071830376982689,0.005481051746755838,0.06438751518726349
1772701675175026400,0.0660263671875,-0.05856264382600784,0.004476507660001516,0.07595708221197128
1772701675185074400,0.076074462890625,-0.06363969296216965,0.0010940266074612737,0.08336759358644485
1772701675195122200,0.0861220703125,-0.06699847429990768,-0.0026069683954119682,0.09189449995756149
1772701675205170400,0.09617041015625,-0.0733298733830452,-0.0004780374001711607,0.10008478909730911
1772701675215218400,0.106218505859375,-0.07783274352550507,0.0057468353770673275,0.10121104121208191
1772701675225266200,0.11626611328125,-0.07481858134269714,0.0016919062472879887,0.09718460589647293
1772701675235315200,0.126315185546875,-0.07335863262414932,-0.007771902717649937,0.08994027227163315
1772701675245363200,0.13636328125,-0.06510923057794571,-0.018802981823682785,0.07938297092914581
1772701675255411500,0.146411376953125,-0.05630854517221451,-0.018991000950336456,0.07042036950588226
1772701675265459200,0.156459228515625,-0.0464916005730629,-0.013684120960533619,0.0652003064751625
1772701675275507200,0.166507080078125,-0.03558382764458656,0.0017001620726659894,0.06567035615444183
1772701675285555500,0.176555419921875,-0.02630670554935932,0.006866161711513996,0.06978920102119446
1772701675295603200,0.186603271484375,-0.01695900969207287,0.017073258757591248,0.06810102611780167
1772701675305651500,0.1966513671875,-0.01152695994824171,0.024894697591662407,0.055749282240867615
1772701675315699500,0.206699462890625,-0.007191600278019905,0.025070466101169586,0.037940725684165955
1772701675325747200,0.216747314453125,-0.00440912926569581,0.027778901159763336,0.020848557353019714
1772701675335795500,0.22679541015625,0.005570001434534788,0.017593907192349434,0.007489341776818037
1772701675345843200,0.23684326171875,0.019808059558272362,0.014681474305689335,-0.0018642127979546785
1772701675355891200,0.24689111328125,0.03518541902303696,0.013888385146856308,-0.003916178364306688
1772701675365940200,0.256940185546875,0.044610343873500824,0.011032677255570889,-0.014859373681247234
1772701675375988200,0.26698828125,0.05353193357586861,0.009534116834402084,-0.026039056479930878
1772701675386036500,0.277036376953125,0.0539013147354126,0.009790046140551567,-0.032767798751592636
1772701675396084200,0.287084228515625,0.05549388378858566,0.012537096627056599,-0.04896221682429314
1772701675406132200,0.29713232421875,0.05632585659623146,0.013128585182130337,-0.0685441717505455
1772701675416180500,0.307180419921875,0.060570936650037766,0.0185832716524601,-0.08717058598995209
1772701675426228200,0.317228271484375,0.07338234037160873,0.011189005337655544,-0.10359244048595428
1772701675436276500,0.3272763671875,0.08704275637865067,0.005073588341474533,-0.11924277245998383
1772701675446324200,0.33732421875,0.09442823380231857,-0.006253635045140982,-0.12840430438518524
1772701675456372200,0.347372314453125,0.10310454666614532,-0.03869573026895523,-0.1384444236755371
1772701675466420500,0.35742041015625,0.10710834711790085,-0.06776759773492813,-0.14217525720596313
1772701675476468200,0.36746826171875,0.1065613329410553,-0.07292746752500534,-0.13729287683963776
1772701675486517500,0.377517578125,0.10889319330453873,-0.06121169030666351,-0.13455115258693695
1772701675496565200,0.387565185546875,0.11342163383960724,-0.035289015620946884,-0.14204661548137665
1772701675506613200,0.39761328125,0.12511184811592102,-0.010433732531964779,-0.1565411388874054
1772701675516661500,0.40766162109375,0.1348733901977539,0.01836462691426277,-0.172093465924263
1772701675526709200,0.417709228515625,0.1394100934267044,0.05933203175663948,-0.19031214714050293
1772701675536757200,0.42775732421875,0.14100612699985504,0.103081114590168,-0.20376697182655334
1772701675546805500,0.437805419921875,0.1348893791437149,0.1475239396095276,-0.221816286444664
1772701675556853200,0.447853271484375,0.12193495780229568,0.19272950291633606,-0.24029701948165894
1772701675566901200,0.4579013671875,0.10623562335968018,0.23161964118480682,-0.2422589808702469
1772701675576949200,0.46794921875,0.09767995774745941,0.26202017068862915,-0.23795929551124573
1772701675586997200,0.477997314453125,0.08551862835884094,0.2785530686378479,-0.22871093451976776
1772701675597045500,0.48804541015625,0.06932953745126724,0.27400651574134827,-0.20489615201950073
1772701675607094300,0.49809423828125,0.05631706863641739,0.24422651529312134,-0.1847328245639801
1772701675617142300,0.508142333984375,0.0487947016954422,0.19651545584201813,-0.13968120515346527
1772701675627190300,0.518190185546875,0.04483111947774887,0.13057585060596466,-0.08362752199172974
1772701675637238300,0.52823828125,0.03025990165770054,0.049199238419532776,-0.01666792668402195
1772701675647286500,0.53828662109375,0.010403372347354889,-0.041959699243307114,0.05619536340236664
1772701675657334300,0.548334228515625,-0.018611235544085503,-0.12003133445978165,0.12354856729507446
1772701675667382300,0.55838232421875,-0.04830681160092354,-0.16282805800437927,0.1652483493089676
1772701675677430300,0.56843017578125,-0.07059001177549362,-0.18042384088039398,0.18451018631458282
1772701675687478300,0.578478271484375,-0.08885157853364944,-0.173642098903656,0.1853078007698059
1772701675697526300,0.5885263671875,-0.10626652091741562,-0.15958859026432037,0.17762938141822815
1772701675707574300,0.59857421875,-0.1139683797955513,-0.15665751695632935,0.17450761795043945
1772701675717622300,0.608622314453125,-0.11773062497377396,-0.14964088797569275,0.17473559081554413
1772701675727671300,0.61867138671875,-0.11774341017007828,-0.1405342072248459,0.1756589114665985
1772701675737719300,0.62871923828125,-0.11456732451915741,-0.11180589348077774,0.1632765382528305
1772701675747767300,0.638767333984375,-0.11058136820793152,-0.07127071917057037,0.14215421676635742
1772701675757815300,0.648815185546875,-0.11414015293121338,-0.015669241547584534,0.1109323799610138
1772701675767863300,0.65886328125,-0.12051602452993393,0.043892621994018555,0.0779949352145195
1772701675777911600,0.66891162109375,-0.12422820925712585,0.11509436368942261,0.049197107553482056
1772701675787959300,0.678959228515625,-0.1299779713153839,0.17744135856628418,0.02400786429643631
1772701675798007300,0.68900732421875,-0.1358635574579239,0.22565975785255432,0.0054605454206466675
1772701675808055300,0.69905517578125,-0.1431097537279129,0.24783377349376678,0.0017134778900071979
1772701675818103300,0.709103271484375,-0.15073278546333313,0.2500726878643036,0.003955593332648277
1772701675828151300,0.7191513671875,-0.16347947716712952,0.23321062326431274,0.015622901730239391
1772701675838199300,0.72919921875,-0.17192861437797546,0.2094067484140396,0.03695455566048622
1772701675848248300,0.739248291015625,-0.17642296850681305,0.1703387051820755,0.05851311236619949
1772701675858296300,0.74929638671875,-0.18981121480464935,0.1322896033525467,0.0960162803530693
1772701675868344300,0.75934423828125,-0.20713374018669128,0.11192306876182556,0.13658393919467926
1772701675878392300,0.769392333984375,-0.2198769748210907,0.11377610266208649,0.16775305569171906
1772701675888440300,0.7794404296875,-0.2349667102098465,0.12199195474386215,0.1895853728055954
1772701675898488300,0.78948828125,-0.2503454089164734,0.1199362576007843,0.19745981693267822
1772701675908536300,0.799536376953125,-0.280452162027359,0.1331719011068344,0.19968940317630768
1772701675918584300,0.809584228515625,-0.3117610812187195,0.15258368849754333,0.1884109228849411
1772701675928632300,0.81963232421875,-0.33667948842048645,0.14805284142494202,0.15255944430828094
1772701675938680300,0.829680419921875,-0.3532206416130066,0.1330062597990036,0.11058536916971207
1772701675948728300,0.839728271484375,-0.372164249420166,0.12360928952693939,0.08350181579589844
1772701675958777300,0.84977734375,-0.3819873034954071,0.10838373005390167,0.06410042196512222
1772701675968825300,0.859825439453125,-0.3883349597454071,0.08560944348573685,0.05969928205013275
1772701675978873300,0.869873291015625,-0.38688594102859497,0.06522640585899353,0.08384909480810165
1772701675988921300,0.87992138671875,-0.3801555931568146,0.04085955023765564,0.11614950746297836
1772701675998969300,0.88996923828125,-0.3676890730857849,0.01589108258485794,0.1536169946193695
1772701676009017300,0.900017333984375,-0.3537042737007141,-0.0128159299492836,0.17032858729362488
1772701676019065300,0.9100654296875,-0.3325934112071991,-0.022473083809018135,0.18281827867031097
1772701676029113300,0.92011328125,-0.31836065649986267,-0.030959246680140495,0.19938288629055023
1772701676039161000,0.9301611328125,-0.31197279691696167,-0.0380224846303463,0.2198130488395691
1772701676049209300,0.940209228515625,-0.30264854431152344,-0.043476901948451996,0.24753417074680328
1772701676059257300,0.95025732421875,-0.2756344974040985,-0.04169870913028717,0.289044588804245
1772701676069305300,0.960305419921875,-0.19838206470012665,-0.05296947434544563,0.3018072545528412
1772701676079354400,0.970354248046875,-0.08836182206869125,-0.11041838675737381,0.29925301671028137
1772701676089402000,0.980402099609375,-0.04026219993829727,-0.21724337339401245,0.30191031098365784
1772701676099450400,0.990450439453125,-0.03098694421350956,-0.33096274733543396,0.32898828387260437
1772701676109498400,1.000498291015625,-0.017123326659202576,-0.4466869533061981,0.3622753918170929
1772701676119546400,1.01054638671875,0.013911288231611252,-0.5486886501312256,0.38646063208580017
1772701676129594400,1.020594482421875,0.08601371198892593,-0.6696798205375671,0.3982922434806824
1772701676139642000,1.03064208984375,0.14664296805858612,-0.8012306690216064,0.4033759534358978
1772701676149691000,1.04069091796875,0.10728517919778824,-0.8754311203956604,0.3929310441017151
1772701676159739000,1.05073876953125,0.00005459480235003866,-0.8954429030418396,0.3508584201335907
1772701676169786600,1.06078662109375,-0.11269538849592209,-0.8766828179359436,0.2725796103477478
1772701676179835000,1.0708349609375,-0.16814079880714417,-0.8385830521583557,0.1725800335407257
1772701676189883600,1.080883544921875,-0.19607603549957275,-0.7960004806518555,0.07115007936954498
1772701676199932000,1.090931884765625,-0.23251473903656006,-0.7030998468399048,0.015181349590420723
1772701676209979600,1.100979736328125,-0.2765168249607086,-0.557532787322998,0.013064136728644371
1772701676220027600,1.111027587890625,-0.29834142327308655,-0.38801005482673645,0.04321005567908287
1772701676230076000,1.121075927734375,-0.285422146320343,-0.2373792678117752,0.06202315539121628
1772701676240123600,1.13112353515625,-0.2182455211877823,-0.09467057883739471,0.08466988056898117
1772701676250171600,1.141171630859375,-0.12666286528110504,0.07339166104793549,0.09459015727043152
1772701676260220000,1.151219970703125,-0.04688654839992523,0.2629011273384094,0.07567345350980759
1772701676270267600,1.161267578125,0.013618340715765953,0.41801562905311584,0.02798769250512123
1772701676280316000,1.17131591796875,0.03702592849731445,0.505680501461029,-0.024602815508842468
1772701676290364000,1.181364013671875,0.04737843573093414,0.5252858996391296,-0.07389552891254425
1772701676300411600,1.19141162109375,0.0538371317088604,0.5043569207191467,-0.10483027249574661
1772701676310461000,1.2014609375,0.056161537766456604,0.43126511573791504,-0.13785986602306366
1772701676320508700,1.2115087890625,0.06297550350427628,0.31614410877227783,-0.1656946837902069
1772701676330557000,1.221556884765625,0.07026111334562302,0.18035991489887238,-0.18524761497974396
1772701676340604700,1.231604736328125,0.06294700503349304,0.05041603744029999,-0.19029244780540466
1772701676350652700,1.241652587890625,0.057373013347387314,-0.08040695637464523,-0.1511319875717163
1772701676360701000,1.251700927734375,0.06127267703413963,-0.2010156661272049,-0.07816670835018158
1772701676370748700,1.261748779296875,0.06439656764268875,-0.3137259781360626,-0.011948006227612495
1772701676380796700,1.271796630859375,0.06816840171813965,-0.419420450925827,0.03737400472164154
1772701676390845000,1.281844970703125,0.07071971148252487,-0.49608486890792847,0.060148559510707855
1772701676400892700,1.291892578125,0.07959655672311783,-0.5411143898963928,0.05519481375813484
1772701676410941000,1.30194091796875,0.06829942762851715,-0.5424497127532959,0.030292924493551254
1772701676420989700,1.31198974609375,0.04917526990175247,-0.47936660051345825,-0.020227773115038872
1772701676431037700,1.32203759765625,0.04554484784603119,-0.35613200068473816,-0.08338809758424759
1772701676441085700,1.332085693359375,0.05211353302001953,-0.19806408882141113,-0.14962437748908997
1772701676451133700,1.3421337890625,0.055633965879678726,-0.05735543370246887,-0.21481190621852875
1772701676461182000,1.352181884765625,0.06304927170276642,0.04583007097244263,-0.2615937888622284
1772701676471229700,1.362229736328125,0.07302094995975494,0.1330254226922989,-0.29283827543258667
1772701676481277700,1.372277587890625,0.08726725727319717,0.18789054453372955,-0.2988034784793854
1772701676491326000,1.382325927734375,0.09898330271244049,0.20597048103809357,-0.2876967489719391
1772701676501373700,1.392373779296875,0.11296543478965759,0.20327988266944885,-0.27865666151046753
1772701676511421700,1.402421630859375,0.12586365640163422,0.18656162917613983,-0.2667824327945709
1772701676521470000,1.412469970703125,0.1491791009902954,0.14327487349510193,-0.25402215123176575
1772701676531518700,1.422518798828125,0.17575743794441223,0.059428174048662186,-0.2407582849264145
1772701676541567000,1.43256689453125,0.19992323219776154,-0.07332853972911835,-0.21614961326122284
1772701676551614700,1.44261474609375,0.22032305598258972,-0.2293972373008728,-0.17953753471374512
1772701676561662700,1.452662841796875,0.24309201538562775,-0.35908839106559753,-0.1573859006166458
1772701676571710700,1.462710693359375,0.28259095549583435,-0.441246896982193,-0.15429875254631042
1772701676581758700,1.4727587890625,0.3215777575969696,-0.4814252257347107,-0.18070000410079956
1772701676591807000,1.482806884765625,0.3491755723953247,-0.4823794364929199,-0.23168595135211945
1772701676601854700,1.492854736328125,0.3660387098789215,-0.4589571952819824,-0.2833970785140991
1772701676611902700,1.50290283203125,0.3674973249435425,-0.40926527976989746,-0.33363547921180725
1772701676621951000,1.512950927734375,0.35331252217292786,-0.3342874348163605,-0.38447365164756775
1772701676631998700,1.522998779296875,0.3432822525501251,-0.25312334299087524,-0.43022939562797546
1772701676642048000,1.533048095703125,0.32131436467170715,-0.17863792181015015,-0.4839288592338562
1772701676652095700,1.543095703125,0.30782946944236755,-0.11323308199644089,-0.5321823954582214
1772701676662143700,1.553143798828125,0.30066290497779846,-0.0515633262693882,-0.5692309737205505
1772701676672191700,1.563191650390625,0.3006349205970764,0.01613263040781021,-0.600357711315155
1772701676682239700,1.57323974609375,0.3028829097747803,0.11025407165288925,-0.6098660230636597
1772701676692287700,1.583287841796875,0.28924113512039185,0.1912330687046051,-0.6199730038642883
1772701676702335700,1.593335693359375,0.2898824214935303,0.2386740893125534,-0.6424399614334106
1772701676712383700,1.6033837890625,0.2983611226081848,0.26913824677467346,-0.6728220582008362
1772701676722431700,1.613431640625,0.28844645619392395,0.29191121459007263,-0.6828206777572632
1772701676732479700,1.623479736328125,0.2641664147377014,0.3051508665084839,-0.6706407070159912
1772701676742527700,1.63352783203125,0.24019555747509003,0.30115824937820435,-0.6398540139198303
1772701676752576800,1.64357666015625,0.22628986835479736,0.28081008791923523,-0.6040419340133667
1772701676762624800,1.653624755859375,0.2203664630651474,0.2398032695055008,-0.5660993456840515
1772701676772672800,1.6636728515625,0.21327392756938934,0.19206105172634125,-0.5513585209846497
1772701676782720800,1.673720703125,0.21449604630470276,0.15245984494686127,-0.5588201284408569
1772701676792768800,1.683768798828125,0.2145269513130188,0.13995656371116638,-0.6010200381278992
1772701676802816800,1.693816650390625,0.22951894998550415,0.1445571780204773,-0.654154896736145
1772701676812864800,1.70386474609375,0.2535233497619629,0.15361672639846802,-0.701073944568634
1772701676822912800,1.713912841796875,0.27480652928352356,0.15574166178703308,-0.7341770529747009
1772701676832960800,1.723960693359375,0.2936688959598541,0.15608814358711243,-0.7400117516517639
1772701676843008800,1.7340087890625,0.3148157298564911,0.162212073802948,-0.7374386191368103
1772701676853056800,1.744056884765625,0.3450540602207184,0.15476934611797333,-0.7238171100616455
1772701676863105800,1.754105712890625,0.3801822364330292,0.14377154409885406,-0.712501049041748
1772701676873153800,1.76415380859375,0.4159604609012604,0.12906983494758606,-0.7099561095237732
1772701676883201800,1.774201904296875,0.449683278799057,0.12842188775539398,-0.717663586139679
1772701676893249800,1.784249755859375,0.4825330972671509,0.1259153187274933,-0.7465447783470154
1772701676903297500,1.794297607421875,0.5072586536407471,0.08583474904298782,-0.770261287689209
1772701676913345800,1.804345703125,0.5252571105957031,0.019940951839089394,-0.7830711007118225
1772701676923393800,1.814393798828125,0.5485256910324097,-0.08567442744970322,-0.7675496339797974
1772701676933441800,1.82444189453125,0.5612526535987854,-0.19002452492713928,-0.7213078737258911
1772701676943489800,1.83448974609375,0.5764691829681396,-0.27029380202293396,-0.6625925898551941
1772701676953537800,1.844537841796875,0.5766401290893555,-0.3136495351791382,-0.6199250221252441
1772701676963585800,1.854585693359375,0.5771293640136719,-0.3237762153148651,-0.5758691430091858
1772701676973634800,1.864634765625,0.5665504932403564,-0.3115818500518799,-0.528476357460022
1772701676983682800,1.874682861328125,0.5551444292068481,-0.28787359595298767,-0.48218342661857605
1772701676993730800,1.884730712890625,0.5485661625862122,-0.26169630885124207,-0.45294511318206787
1772701677003778800,1.89477880859375,0.550146758556366,-0.23083534836769104,-0.43230560421943665
1772701677013826800,1.904826904296875,0.5468721389770508,-0.20268599689006805,-0.4267726242542267
1772701677023874800,1.914874755859375,0.5450239181518555,-0.17626610398292542,-0.4256972372531891
1772701677033922600,1.924922607421875,0.5386690497398376,-0.16532744467258453,-0.4240431487560272
1772701677043970800,1.934970703125,0.5308836102485657,-0.14858414232730865,-0.4252873957157135
1772701677054018800,1.945018798828125,0.5183203816413879,-0.1309308558702469,-0.42019063234329224
1772701677064066800,1.95506689453125,0.5026143789291382,-0.09947998821735382,-0.4094756543636322
1772701677074114800,1.96511474609375,0.4962473213672638,-0.07901039719581604,-0.40059587359428406
1772701677084163600,1.97516357421875,0.4939122498035431,-0.06494757533073425,-0.40155088901519775
1772701677094211800,1.9852119140625,0.49448588490486145,-0.04941814765334129,-0.41960713267326355
1772701677104259800,1.995259765625,0.48983919620513916,-0.0345957949757576,-0.43844500184059143
1772701677114307800,2.005307861328125,0.4809778034687042,0.004640291910618544,-0.4493200182914734
1772701677124355800,2.01535595703125,0.46919572353363037,0.0941973403096199,-0.4653376042842865
1772701677134403600,2.025403564453125,0.44538652896881104,-0.07617519795894623,-0.5286763310432434
1772701677144451800,2.035451904296875,0.41264694929122925,-0.14682114124298096,-0.4633628726005554
1772701677154499000,2.0454990234375,0.31928664445877075,-0.03706188127398491,-0.27170848846435547
1772701677164547300,2.05554736328125,0.27824652194976807,-0.059479039162397385,-0.14913170039653778
1772701677174595000,2.065594970703125,0.30335935950279236,-0.16407175362110138,-0.10319695621728897
1772701677184643300,2.075643310546875,0.34763333201408386,-0.2494729459285736,-0.05348825827240944
1772701677194692000,2.085692138671875,0.39131370186805725,-0.36100825667381287,0.013170929625630379
1772701677204740000,2.095739990234375,0.4316571354866028,-0.5054528117179871,0.0839628130197525
1772701677214788000,2.1057880859375,0.4392724335193634,-0.5905426740646362,0.17813538014888763
1772701677224836000,2.115836181640625,0.3930085301399231,-0.5704536437988281,0.29076898097991943
1772701677234884400,2.12588427734375,0.35098013281822205,-0.4530305862426758,0.37889963388442993
1772701677244932000,2.13593212890625,0.30407094955444336,-0.2847401201725006,0.3799598515033722
1772701677254980000,2.14597998046875,0.2584187686443329,-0.10460630059242249,0.29580315947532654
1772701677265028400,2.1560283203125,0.19914959371089935,0.05392927676439285,0.13960742950439453
1772701677275076000,2.166076171875,0.13464570045471191,0.1790408492088318,-0.017790980637073517
1772701677285124000,2.1761240234375,0.08733809739351273,0.26077380776405334,-0.13680897653102875
1772701677295172000,2.186172119140625,0.06240319088101387,0.32462894916534424,-0.17502720654010773
1772701677305221000,2.19622119140625,0.06030888110399246,0.3747512400150299,-0.13637754321098328
1772701677315269000,2.20626904296875,0.07662739604711533,0.4024089574813843,-0.054062969982624054
1772701677325317000,2.216317138671875,0.09235282987356186,0.4211363196372986,0.03579261898994446
1772701677335365000,2.226365234375,0.09541919827461243,0.4363000988960266,0.11560142785310745
1772701677345413000,2.2364130859375,0.09229770302772522,0.4387264847755432,0.16129595041275024
1772701677355461000,2.246461181640625,0.0968109667301178,0.417856901884079,0.18895447254180908
1772701677365509000,2.256509033203125,0.10871582478284836,0.38375377655029297,0.22159764170646667
1772701677375557000,2.26655712890625,0.12676380574703217,0.3245389461517334,0.26401379704475403
1772701677385605000,2.276605224609375,0.1513058990240097,0.23783253133296967,0.3045865297317505
1772701677395653000,2.286653076171875,0.1771654635667801,0.13550668954849243,0.33095529675483704
1772701677405701000,2.296701171875,0.1936887800693512,0.03640807420015335,0.33927208185195923
1772701677415750100,2.306750244140625,0.2296377271413803,-0.03793033957481384,0.33104291558265686
1772701677425798100,2.316798095703125,0.2656543254852295,-0.08897780627012253,0.3208523094654083
1772701677435846100,2.32684619140625,0.2859920859336853,-0.12595047056674957,0.31396031379699707
1772701677445894100,2.33689404296875,0.30117395520210266,-0.17338909208774567,0.2882744073867798
1772701677455942100,2.346942138671875,0.30472928285598755,-0.21954354643821716,0.24524837732315063
1772701677465990100,2.356990234375,0.3051564395427704,-0.23185241222381592,0.20030060410499573
1772701677476038100,2.3670380859375,0.294833242893219,-0.20773908495903015,0.154085174202919
1772701677486086100,2.377086181640625,0.27745452523231506,-0.14644749462604523,0.1009116992354393
1772701677496134100,2.387134033203125,0.2693113684654236,-0.0694350004196167,0.04131707921624184
1772701677506182100,2.39718212890625,0.26669907569885254,0.023207850754261017,0.0006404902087524533
1772701677516231200,2.407231201171875,0.2545683681964874,0.10634907335042953,-0.04469742998480797
1772701677526279200,2.417279052734375,0.2455810010433197,0.1751057654619217,-0.08511169999837875
1772701677536327200,2.4273271484375,0.23998117446899414,0.21519780158996582,-0.119780994951725
1772701677546375000,2.437375,0.24074843525886536,0.2426893413066864,-0.15878938138484955
1772701677556423200,2.447423095703125,0.23470838367938995,0.2640761137008667,-0.20146121084690094
1772701677566471200,2.45747119140625,0.22201842069625854,0.2965773344039917,-0.245203897356987
1772701677576519200,2.467519287109375,0.21404890716075897,0.3339335024356842,-0.28258535265922546
1772701677586567200,2.477567138671875,0.19971470534801483,0.35318124294281006,-0.303091436624527
1772701677596615200,2.487615234375,0.1776038110256195,0.35210663080215454,-0.2926401197910309
1772701677606663200,2.4976630859375,0.1348142772912979,0.30356255173683167,-0.23943015933036804
1772701677616711200,2.507711181640625,0.08889125287532806,0.22349007427692413,-0.146126851439476
1772701677626760200,2.51776025390625,0.0376104936003685,0.1059834212064743,-0.02261662855744362
1772701677636808200,2.52780810546875,-0.0018024274613708258,-0.043243344873189926,0.1043543666601181
1772701677646856200,2.537856201171875,-0.03580007702112198,-0.2025003731250763,0.22372204065322876
1772701677656904200,2.547904296875,-0.06299654394388199,-0.3563426733016968,0.3227919042110443
1772701677666952200,2.5579521484375,-0.1003447100520134,-0.4940504729747772,0.3974275290966034
1772701677677000000,2.568,-0.15534670650959015,-0.5869109034538269,0.444600373506546
1772701677687048200,2.578048095703125,-0.210030198097229,-0.6354374289512634,0.46015986800193787
1772701677697096200,2.58809619140625,-0.2579873502254486,-0.6304706335067749,0.4504726231098175
1772701677707144200,2.598144287109375,-0.29540687799453735,-0.5678277611732483,0.42563945055007935
1772701677717192200,2.608192138671875,-0.313287615776062,-0.460222452878952,0.3971124589443207
1772701677727241000,2.618240966796875,-0.32013991475105286,-0.3376568555831909,0.36113449931144714
1772701677737289200,2.628289306640625,-0.31792232394218445,-0.208740696310997,0.31740912795066833
1772701677747337200,2.638337158203125,-0.3043508529663086,-0.0978674441576004,0.27616289258003235
1772701677757385200,2.64838525390625,-0.28969040513038635,-0.018998725339770317,0.2384064495563507
1772701677767433200,2.65843310546875,-0.2795237898826599,0.04183772951364517,0.19173933565616608
1772701677777481000,2.66848095703125,-0.26820188760757446,0.08250632882118225,0.1577155888080597
1772701677787529200,2.678529296875,-0.2632273733615875,0.1059541329741478,0.13880129158496857
1772701677797577200,2.6885771484375,-0.2603873908519745,0.12358266115188599,0.12486416846513748
1772701677807625000,2.698625,-0.26393043994903564,0.1397818624973297,0.12197490781545639
1772701677817673200,2.708673095703125,-0.26658880710601807,0.15233361721038818,0.12631160020828247
1772701677827721200,2.71872119140625,-0.265063613653183,0.14170147478580475,0.13310691714286804
1772701677837770200,2.728770263671875,-0.2619602382183075,0.12190885841846466,0.1445864737033844
1772701677847818200,2.738818359375,-0.2672436833381653,0.1039290651679039,0.15729402005672455
1772701677857866000,2.748865966796875,-0.2737463116645813,0.07545294612646103,0.17131289839744568
1772701677867914200,2.758914306640625,-0.28634148836135864,0.046478819102048874,0.185353085398674
1772701677877962200,2.768962158203125,-0.3058707118034363,0.024931982159614563,0.20607061684131622
1772701677888010200,2.77901025390625,-0.3234235942363739,-0.002379534300416708,0.23747114837169647
1772701677898058200,2.789058349609375,-0.3462679386138916,-0.027277693152427673,0.276375412940979
1772701677908106000,2.79910595703125,-0.3704046905040741,-0.06220851466059685,0.31160423159599304
1772701677918154200,2.809154296875,-0.3942895233631134,-0.09619896858930588,0.3425440192222595
1772701677928202200,2.8192021484375,-0.42323169112205505,-0.1300876885652542,0.3669116795063019
1772701677938251300,2.829251220703125,-0.4424687623977661,-0.16255003213882446,0.38680416345596313
1772701677948299300,2.83929931640625,-0.4663804769515991,-0.1799420714378357,0.3900372385978699
1772701677958347000,2.849346923828125,-0.48579147458076477,-0.18821650743484497,0.3886750340461731
1772701677968395300,2.859395263671875,-0.5044841766357422,-0.17377552390098572,0.3801273703575134
1772701677978443300,2.869443359375,-0.5163413882255554,-0.14751195907592773,0.360062837600708
1772701677988491000,2.879490966796875,-0.5292034149169922,-0.11192174255847931,0.34778860211372375
1772701677998539300,2.889539306640625,-0.5339486002922058,-0.08385974913835526,0.3484407961368561
1772701678008587000,2.8995869140625,-0.538869321346283,-0.05422009527683258,0.3544851243495941
1772701678018635000,2.909635009765625,-0.5418429970741272,-0.02172953076660633,0.36165833473205566
1772701678028683300,2.919683349609375,-0.5465759634971619,0.012396748177707195,0.3663036823272705
1772701678038732000,2.92973193359375,-0.5496572852134705,0.017370201647281647,0.3598199486732483
1772701678048780300,2.9397802734375,-0.5633243322372437,0.01281379908323288,0.3594106435775757
1772701678058828000,2.949828125,-0.5848895311355591,0.006253635045140982,0.380569189786911
1772701678068876300,2.959876220703125,-0.5993108153343201,0.012003932148218155,0.4096274673938751
1772701678078924300,2.96992431640625,-0.6052486300468445,0.022123677656054497,0.42932766675949097
1772701678088972000,2.979971923828125,-0.6110862493515015,-0.024595623835921288,0.4079885482788086
1772701678099020300,2.990020263671875,-0.6132996082305908,-0.1342797726392746,0.3635164201259613
1772701678109068000,3.000068115234375,-0.640249490737915,-0.17342904210090637,0.3597871959209442
1772701678119116000,3.010115966796875,-0.6871917247772217,-0.11457078903913498,0.4111073911190033
1772701678129164300,3.020164306640625,-0.7245502471923828,-0.0006013417732901871,0.4866948127746582
1772701678139212000,3.0302119140625,-0.7356268763542175,0.12182976305484772,0.5375524163246155
1772701678149261300,3.04026123046875,-0.7273593544960022,0.19940339028835297,0.5658268928527832
1772701678159309300,3.050309326171875,-0.6917629837989807,0.23210087418556213,0.5863572359085083
1772701678169357600,3.060357666015625,-0.5933112502098083,0.13626836240291595,0.5910806059837341
1772701678179405600,3.070405517578125,-0.5195332169532776,-0.001434112200513482,0.6077208518981934
1772701678189453300,3.080453369140625,-0.5201518535614014,-0.12465032190084457,0.5937376618385315
1772701678199501600,3.09050146484375,-0.5604659914970398,-0.19845743477344513,0.5069242119789124
1772701678209549300,3.10054931640625,-0.6078183054924011,-0.18679757416248322,0.37153759598731995
1772701678219597300,3.110597412109375,-0.6312240362167358,-0.09942006319761276,0.23111949861049652
1772701678229645600,3.1206455078125,-0.6164357662200928,0.11095740646123886,0.13625530898571014
1772701678239693300,3.130693359375,-0.5665076375007629,0.3959156572818756,0.1279105544090271
1772701678249742600,3.14074267578125,-0.5582707524299622,0.59773850440979,0.20411984622478485
1772701678259790300,3.150790283203125,-0.6007835865020752,0.6570913195610046,0.3417362868785858
1772701678269838300,3.16083837890625,-0.595806360244751,0.6221492886543274,0.4942813515663147
1772701678279886600,3.170886474609375,-0.5541161894798279,0.5138907432556152,0.6539874076843262
1772701678289934300,3.180934326171875,-0.5213963389396667,0.41494473814964294,0.7704716920852661
1772701678299982600,3.190982666015625,-0.5007269978523254,0.2735617756843567,0.8194698691368103
1772701678310030300,3.2010302734375,-0.4649690091609955,0.060030046850442886,0.8216392397880554
1772701678320078300,3.211078369140625,-0.44892558455467224,-0.15542741119861603,0.7668367028236389
1772701678330126600,3.221126708984375,-0.4634408950805664,-0.33566004037857056,0.6521530151367188
1772701678340174300,3.23117431640625,-0.48982349038124084,-0.4444946348667145,0.46960797905921936
1772701678350223600,3.2412236328125,-0.5092736482620239,-0.4589316248893738,0.24909530580043793
1772701678360271400,3.251271240234375,-0.5099380612373352,-0.3998938798904419,0.037035781890153885
1772701678370319400,3.2613193359375,-0.492612361907959,-0.32076495885849,-0.14049293100833893
1772701678380367600,3.27136767578125,-0.4701635241508484,-0.2470792979001999,-0.2514072060585022
1772701678390415400,3.281415283203125,-0.4469450116157532,-0.18372268974781036,-0.30253005027770996
1772701678400463400,3.29146337890625,-0.41841164231300354,-0.11303680390119553,-0.30741479992866516
1772701678410511600,3.30151171875,-0.3946264088153839,-0.049428801983594894,-0.2737729549407959
1772701678420559400,3.311559326171875,-0.3714419901371002,-0.014347780495882034,-0.20534144341945648
1772701678430607600,3.321607666015625,-0.3495478928089142,-0.010597250424325466,-0.12238689512014389
1772701678440655400,3.3316552734375,-0.34732893109321594,-0.03405730426311493,-0.043834831565618515
1772701678450704400,3.341704345703125,-0.3556225597858429,-0.08434657007455826,0.03327140212059021
1772701678460752400,3.35175244140625,-0.3382102847099304,-0.1432836651802063,0.09941872954368591
1772701678470800400,3.36180029296875,-0.3131171762943268,-0.1936139464378357,0.16164880990982056
1772701678480848600,3.3718486328125,-0.27895253896713257,-0.1598232239484787,0.18890254199504852
1772701678490896400,3.381896484375,-0.2486732006072998,-0.061113953590393066,0.18993638455867767
1772701678500944400,3.3919443359375,-0.22853383421897888,0.10558927804231644,0.19362832605838776
1772701678510992600,3.40199267578125,-0.23745356500148773,0.34187132120132446,0.18577998876571655
1772701678521040400,3.412040283203125,-0.2209760546684265,0.5716717839241028,0.1828976422548294
1772701678531088400,3.42208837890625,-0.1448783576488495,0.7337629199028015,0.17102181911468506
1772701678541136400,3.432136474609375,-0.058881692588329315,0.8149315714836121,0.16360783576965332
1772701678551185400,3.442185302734375,0.02149197645485401,0.8407591581344604,0.17620086669921875
1772701678561233400,3.4522333984375,0.06846161186695099,0.7984806895256042,0.20309825241565704
1772701678571281400,3.462281494140625,0.090957872569561,0.7045078277587891,0.24456927180290222
1772701678581329400,3.472329345703125,0.09809806942939758,0.5519238710403442,0.30522915720939636
1772701678591377400,3.48237744140625,0.09444394707679749,0.3834669589996338,0.35383743047714233
1772701678601425400,3.49242529296875,0.10303157567977905,0.22621075809001923,0.3744058310985565
1772701678611473700,3.5024736328125,0.11047165095806122,0.08132334798574448,0.34969913959503174
1772701678621521400,3.512521484375,0.12526631355285645,-0.04360739886760712,0.2845417261123657
1772701678631569400,3.5225693359375,0.13982927799224854,-0.15886501967906952,0.1874852031469345
1772701678641617700,3.53261767578125,0.16540201008319855,-0.24167440831661224,0.09177812188863754
1772701678651666400,3.54266650390625,0.1785372495651245,-0.2849355936050415,0.0121879568323493
1772701678661714400,3.55271435546875,0.19158993661403656,-0.2946808934211731,-0.05493888258934021
1772701678671762400,3.562762451171875,0.1974363774061203,-0.2656135559082031,-0.11903451383113861
1772701678681810400,3.572810546875,0.189933180809021,-0.20308732986450195,-0.18341483175754547
1772701678691858400,3.5828583984375,0.19163121283054352,-0.12466416507959366,-0.2631661295890808
1772701678701906400,3.592906494140625,0.19137555360794067,-0.01830204203724861,-0.344486802816391
1772701678711954400,3.602954345703125,0.1934557557106018,0.08926969021558762,-0.41387680172920227
1772701678722002400,3.61300244140625,0.19540119171142578,0.19706806540489197,-0.4701046645641327
1772701678732050400,3.623050537109375,0.18980562686920166,0.2911500930786133,-0.5073452591896057
1772701678742098400,3.633098388671875,0.18382975459098816,0.37137967348098755,-0.5226355195045471
1772701678752147500,3.6431474609375,0.17876015603542328,0.44140535593032837,-0.5030370354652405
1772701678762195500,3.653195556640625,0.16533462703227997,0.5058565139770508,-0.4584948718547821
1772701678772243500,3.663243408203125,0.14813727140426636,0.5506908297538757,-0.3995777666568756
1772701678782291500,3.67329150390625,0.11767017096281052,0.5751945972442627,-0.33548080921173096
1772701678792339200,3.683339111328125,0.09887970983982086,0.5694261789321899,-0.2759990990161896
1772701678802387500,3.693387451171875,0.0887112244963646,0.5308303236961365,-0.22112013399600983
1772701678812435500,3.703435546875,0.09461385756731033,0.46049702167510986,-0.18200388550758362
1772701678822483500,3.7134833984375,0.1161002442240715,0.3746553659439087,-0.15444043278694153
1772701678832531500,3.723531494140625,0.15319301187992096,0.3157619535923004,-0.1482136994600296
1772701678842579500,3.733579345703125,0.19295108318328857,0.29104915261268616,-0.18035592138767242
1772701678852628500,3.74362841796875,0.23827116191387177,0.2770049571990967,-0.2327493578195572
1772701678862676500,3.753676513671875,0.2818561792373657,0.26664501428604126,-0.2966684103012085
1772701678872724500,3.763724365234375,0.3115757405757904,0.26080015301704407,-0.352588415145874
1772701678882772500,3.7737724609375,0.33284321427345276,0.2859332263469696,-0.4042598605155945
1772701678892820500,3.783820556640625,0.343965619802475,0.3282873332500458,-0.45414966344833374
1772701678902868500,3.793868408203125,0.36929816007614136,0.37116503715515137,-0.5019302368164062
1772701678912916500,3.80391650390625,0.4005868434906006,0.3829958438873291,-0.5613882541656494
1772701678922964200,3.813964111328125,0.43349337577819824,0.36878708004951477,-0.6288828253746033
1772701678933012500,3.824012451171875,0.48977237939834595,0.3249344229698181,-0.6892127394676208
1772701678943060500,3.834060546875,0.5467264652252197,0.24803456664085388,-0.7177639603614807
1772701678953109500,3.844109619140625,0.6026744246482849,0.13961462676525116,-0.6989074945449829
1772701678963157500,3.854157470703125,0.6498382091522217,0.00484349112957716,-0.6496387124061584
1772701678973205200,3.864205322265625,0.6928719282150269,-0.13299426436424255,-0.5748523473739624
1772701678983253500,3.87425341796875,0.7300174832344055,-0.2555031478404999,-0.49553969502449036
1772701678993301500,3.884301513671875,0.7590743899345398,-0.3341079354286194,-0.4385051727294922
1772701679003349500,3.894349609375,0.7762755155563354,-0.36875593662261963,-0.4023841917514801
1772701679013397500,3.9043974609375,0.7784555554389954,-0.38610297441482544,-0.4029333293437958
1772701679023445200,3.9144453125,0.7643970251083374,-0.4046265780925751,-0.42507779598236084
1772701679033493500,3.924493408203125,0.7407028675079346,-0.41596418619155884,-0.45355337858200073
1772701679043542300,3.934542236328125,0.7084879279136658,-0.4293135404586792,-0.46207281947135925
1772701679053590500,3.944590576171875,0.6793007254600525,-0.4305042624473572,-0.46663135290145874
1772701679063638500,3.954638427734375,0.6588658094406128,-0.42811352014541626,-0.4763561487197876
1772701679073686300,3.964686279296875,0.6422867774963379,-0.4222921133041382,-0.4841877222061157
1772701679083734500,3.974734619140625,0.6251330971717834,-0.41201844811439514,-0.4968651533126831
1772701679093782500,3.984782470703125,0.6103432774543762,-0.39164578914642334,-0.528103768825531
1772701679103830300,3.994830322265625,0.6039151549339294,-0.48827460408210754,-0.5776822566986084
1772701679113878500,4.00487841796875,0.5779842734336853,-0.6033428907394409,-0.5370882153511047
1772701679123926500,4.014926513671875,0.5251373052597046,-0.5828402638435364,-0.4009261131286621
1772701679133974500,4.024974609375,0.4723571538925171,-0.5203827619552612,-0.2804287374019623
1772701679144023300,4.035023193359375,0.45204734802246094,-0.4273734390735626,-0.19857168197631836
1772701679154071000,4.045071044921875,0.45065903663635254,-0.2842453122138977,-0.1585765928030014
1772701679164119300,4.055119384765625,0.4610256850719452,-0.18471844494342804,-0.18791930377483368
1772701679174167000,4.0651669921875,0.45941898226737976,-0.1442389339208603,-0.2885931730270386
1772701679184215300,4.07521533203125,0.420728862285614,-0.10538367927074432,-0.3875938057899475
1772701679194263300,4.08526318359375,0.3950173556804657,-0.13273221254348755,-0.464591920375824
1772701679204311000,4.09531103515625,0.4005599319934845,-0.25502803921699524,-0.4852958619594574
1772701679214359300,4.105359375,0.4214119613170624,-0.4385586977005005,-0.41378891468048096
1772701679224407300,4.1154072265625,0.4000275731086731,-0.6388188600540161,-0.2882038354873657
1772701679234456300,4.125456298828125,0.37334802746772766,-0.8085556626319885,-0.17555823922157288
1772701679244504300,4.13550439453125,0.39733484387397766,-0.9208457469940186,-0.117352195084095
1772701679254552000,4.145552001953125,0.41450318694114685,-0.9770861268043518,-0.10461030155420303
1772701679264600300,4.155600341796875,0.42146387696266174,-0.9638621807098389,-0.092258021235466
1772701679274648000,4.16564794921875,0.41861456632614136,-0.9004901051521301,-0.0780511274933815
1772701679284696000,4.175696044921875,0.42299386858940125,-0.8455323576927185,-0.06310519576072693
1772701679294744300,4.185744384765625,0.4272770285606384,-0.8017808794975281,-0.059722986072301865
1772701679304792000,4.1957919921875,0.41958341002464294,-0.774225115776062,-0.057670753449201584
1772701679314840000,4.205840087890625,0.3987590968608856,-0.697483479976654,-0.04567507654428482
1772701679324888300,4.215888427734375,0.3520731031894684,-0.594154417514801,-0.03485971316695213
1772701679334937000,4.22593701171875,0.2900131940841675,-0.46951448917388916,-0.03472655639052391
1772701679344985300,4.2359853515625,0.24168746173381805,-0.3354022204875946,-0.05848115310072899
1772701679355033000,4.246033203125,0.250639945268631,-0.20622560381889343,-0.09971567243337631
1772701679365081300,4.256081298828125,0.28139784932136536,-0.08015129715204239,-0.15670280158519745
1772701679375129300,4.26612939453125,0.313996285200119,0.05488482117652893,-0.22368182241916656
1772701679385177000,4.276177001953125,0.34830552339553833,0.22401019930839539,-0.2945125997066498
1772701679395225300,4.286225341796875,0.3840334117412567,0.3924282491207123,-0.35559457540512085
1772701679405273000,4.296273193359375,0.41312792897224426,0.5247122645378113,-0.3906551003456116
1772701679415321000,4.306321044921875,0.43477728962898254,0.6184597611427307,-0.3833433985710144
1772701679425370000,4.3163701171875,0.42212992906570435,0.6575661301612854,-0.3364323377609253
1772701679435418000,4.326418212890625,0.36962518095970154,0.6723592281341553,-0.2260698825120926
1772701679445466400,4.33646630859375,0.26985251903533936,0.6271688342094421,-0.09192673116922379
1772701679455514000,4.34651416015625,0.07752221822738647,0.4045703709125519,0.04608120769262314
1772701679465562000,4.35656201171875,-0.08926276862621307,0.11873464286327362,0.19745661318302155
1772701679475610400,4.3666103515625,-0.18294505774974823,-0.08767499029636383,0.365177184343338
1772701679485658000,4.376658203125,-0.2257489711046219,-0.18092185258865356,0.5214429497718811
1772701679495706000,4.3867060546875,-0.2314566671848297,-0.22026339173316956,0.6384209394454956
1772701679505754000,4.396754150390625,-0.24414661526679993,-0.2347310185432434,0.7154023051261902
1772701679515802000,4.406802001953125,-0.2715305685997009,-0.23690122365951538,0.7598698735237122
1772701679525851100,4.41685107421875,-0.3162919282913208,-0.21691234409809113,0.7783450484275818
1772701679535899100,4.426899169921875,-0.36789706349372864,-0.15280525386333466,0.7571766376495361
1772701679545947100,4.436947021484375,-0.41605207324028015,-0.030475882813334465,0.7033773064613342
1772701679555995100,4.4469951171875,-0.48908260464668274,0.2156558632850647,0.6074816584587097
1772701679566043100,4.457043212890625,-0.520629346370697,0.3499332368373871,0.5540299415588379
1772701679576091400,4.46709130859375,-0.5053819417953491,0.42517685890197754,0.5429061651229858
1772701679586139100,4.47713916015625,-0.4871020019054413,0.4976816773414612,0.5381340384483337
1772701679596187100,4.487187255859375,-0.4679400324821472,0.5381683707237244,0.5239492654800415
1772701679606235400,4.4972353515625,-0.43964049220085144,0.5404767990112305,0.5070605278015137
1772701679616284200,4.5072841796875,-0.4115965962409973,0.5277873873710632,0.506657600402832
1772701679626332200,4.517332275390625,-0.38611069321632385,0.5119807124137878,0.5225303173065186
1772701679636380200,4.527380126953125,-0.37203800678253174,0.5027078986167908,0.5397199392318726
1772701679646428200,4.53742822265625,-0.37143799662590027,0.5109474062919617,0.5445762276649475
1772701679656476200,4.54747607421875,-0.3861285150051117,0.5183912515640259,0.5122981667518616
1772701679666524200,4.557524169921875,-0.4047296345233917,0.5437549352645874,0.4571838080883026
1772701679676572200,4.567572265625,-0.44291457533836365,0.5723450183868408,0.38408535718917847
1772701679686620200,4.5776201171875,-0.47341522574424744,0.5310015678405762,0.34864506125450134
1772701679696668200,4.587668212890625,-0.4909910261631012,0.48493286967277527,0.3536435663700104
1772701679706716400,4.59771630859375,-0.5167927742004395,0.41386428475379944,0.3952748775482178
1772701679716765200,4.60776513671875,-0.5428896546363831,0.3768375515937805,0.43267738819122314
1772701679726813200,4.617813232421875,-0.5592702031135559,0.3159180283546448,0.48073387145996094
1772701679736861200,4.627861083984375,-0.5589157342910767,0.25954049825668335,0.5206801891326904
1772701679746909200,4.6379091796875,-0.534744918346405,0.1852918267250061,0.5554121136665344
1772701679756957200,4.647957275390625,-0.47901666164398193,0.17163912951946259,0.559332013130188
1772701679767005200,4.658005126953125,-0.3976421654224396,0.380872517824173,0.5954343676567078
1772701679777053200,4.66805322265625,-0.3144191801548004,0.5373668074607849,0.6680883169174194
1772701679787101200,4.67810107421875,-0.17801953852176666,0.5723924040794373,0.7638662457466125
1772701679797149200,4.688149169921875,-0.014131797477602959,0.5697287321090698,0.8411722183227539
1772701679807198200,4.6981982421875,0.11356997489929199,0.5829901695251465,0.8539966344833374
1772701679817246200,4.70824609375,0.17390361428260803,0.6578835844993591,0.8018453121185303
1772701679827294200,4.718294189453125,0.16671840846538544,0.7432413697242737,0.7537326216697693
1772701679837342200,4.72834228515625,0.1106647253036499,0.7697923183441162,0.741793692111969
1772701679847390200,4.73839013671875,-0.0008130630594678223,0.701972246170044,0.7779985666275024
1772701679857438200,4.748438232421875,-0.14735935628414154,0.5314233899116516,0.8562728762626648
1772701679867486200,4.758486328125,-0.2907543480396271,0.23486630618572235,0.9153204560279846
1772701679877534200,4.7685341796875,-0.42764773964881897,-0.09257946908473969,0.9431739449501038
1772701679887582200,4.778582275390625,-0.5536985993385315,-0.31636860966682434,0.9310845136642456
1772701679897631200,4.78863134765625,-0.628365159034729,-0.44805049896240234,0.8791896104812622
1772701679907679000,4.798678955078125,-0.5852038264274597,-0.4758323132991791,0.8107439875602722
1772701679917727200,4.808727294921875,-0.4321362376213074,-0.4303359389305115,0.7390543818473816
1772701679927775200,4.818775146484375,-0.21079905331134796,-0.3296087980270386,0.6948536038398743
1772701679937823200,4.8288232421875,-0.10185179859399796,-0.2134917676448822,0.7504897117614746
1772701679947871200,4.838871337890625,-0.11050467193126678,-0.2291088104248047,0.8669108748435974
1772701679957919200,4.848919189453125,-0.171346977353096,-0.4737372100353241,0.9775052666664124
1772701679967967200,4.85896728515625,-0.20942805707454681,-0.6956248879432678,1.0287671089172363
1772701679978015200,4.86901513671875,-0.23588496446609497,-0.8409836292266846,1.0138230323791504
1772701679988063000,4.87906298828125,-0.2883593440055847,-0.8821092247962952,0.9531056880950928
1772701679998112300,4.8891123046875,-0.40119668841362,-0.8090792298316956,0.8640391826629639
1772701680008160000,4.899159912109375,-0.6012903451919556,-0.7361531257629395,0.7674322128295898
1772701680018208300,4.909208251953125,-0.8069766759872437,-0.6731469631195068,0.6828893423080444
1772701680028256300,4.91925634765625,-0.8457770943641663,-0.5461810231208801,0.6158008575439453
1772701680038304000,4.929303955078125,-0.7606507539749146,-0.46051380038261414,0.5583983063697815
1772701680048352300,4.939352294921875,-0.6600357294082642,-0.4223443269729614,0.5207358598709106
1772701680058400300,4.949400146484375,-0.5909133553504944,-0.35680899024009705,0.5044431686401367
1772701680068448300,4.9594482421875,-0.5271362662315369,-0.22733035683631897,0.47459208965301514
1772701680078496300,4.969496337890625,-0.44775888323783875,-0.05871604382991791,0.44120004773139954
1772701680088545000,4.979544921875,-0.3623387813568115,0.05759245529770851,0.40401193499565125
1772701680098593300,4.98959326171875,-0.3083716928958893,0.13238146901130676,0.3717871308326721
1772701680108641000,4.99964111328125,-0.32609209418296814,0.09383701533079147,0.387599378824234
1772701680118689300,5.009689208984375,-0.39713695645332336,-0.0787225067615509,0.46250879764556885
1772701680128737300,5.0197373046875,-0.44077926874160767,-0.28382691740989685,0.542369544506073
1772701680138785000,5.029784912109375,-0.3833300769329071,-0.4041253626346588,0.5675076246261597
1772701680148833300,5.039833251953125,-0.26511847972869873,-0.4616675078868866,0.5504221320152283
1772701680158881300,5.04988134765625,-0.16788087785243988,-0.43246060609817505,0.4833855628967285
1772701680168930300,5.059930419921875,-0.14698012173175812,-0.3606806993484497,0.3867090940475464
1772701680178978300,5.069978271484375,-0.19439078867435455,-0.35083019733428955,0.2991448938846588
1772701680189026300,5.0800263671875,-0.2293303906917572,-0.321058452129364,0.21899066865444183
1772701680199074300,5.09007421875,-0.2584581971168518,-0.2618233561515808,0.14290602505207062
1772701680209122300,5.100122314453125,-0.2624734342098236,-0.1066657230257988,0.0622391402721405
1772701680219170300,5.11017041015625,-0.20877425372600555,0.19015581905841827,-0.023803066462278366
1772701680229218300,5.12021826171875,-0.16609656810760498,0.44520303606987,-0.08206211030483246
1772701680239266000,5.13026611328125,-0.14869387447834015,0.617533266544342,-0.1498589962720871
1772701680249314300,5.140314208984375,-0.17824697494506836,0.7217978835105896,-0.24971076846122742
1772701680259362300,5.1503623046875,-0.19678150117397308,0.6330440640449524,-0.35691285133361816
1772701680269411300,5.160411376953125,-0.1379951536655426,0.37832653522491455,-0.4510856866836548
1772701680279459300,5.170459228515625,-0.003582484321668744,0.1703813225030899,-0.5236826539039612
1772701680289507300,5.18050732421875,0.12534379959106445,0.09592226892709732,-0.5757293701171875
1772701680299555300,5.190555419921875,0.18566493690013885,0.058880094438791275,-0.6306195259094238
1772701680309603300,5.200603271484375,0.204294815659523,0.03761741518974304,-0.6852617263793945
1772701680319651300,5.2106513671875,0.23057781159877777,0.04842239245772362,-0.7143258452415466
1772701680329699300,5.22069921875,0.2768888473510742,0.09280823171138763,-0.6925880312919617
1772701680339747000,5.2307470703125,0.3155435621738434,0.15348516404628754,-0.638085663318634
1772701680349795300,5.24079541015625,0.3513375222682953,0.1879826933145523,-0.5853263139724731
1772701680359844000,5.250843994140625,0.3834424614906311,0.1330922693014145,-0.5761293768882751
1772701680369892400,5.260892333984375,0.4136855900287628,0.09071791917085648,-0.6025524139404297
1772701680379940400,5.2709404296875,0.4238082766532898,0.08806408196687698,-0.6428202390670776
1772701680389988000,5.280988037109375,0.41847553849220276,0.07651714235544205,-0.6790552139282227
1772701680400036400,5.291036376953125,0.405565083026886,0.06115176901221275,-0.7012166976928711
1772701680410084400,5.30108447265625,0.3987492620944977,0.04566602036356926,-0.7072522044181824
1772701680420132000,5.311132080078125,0.4138046205043793,0.022280272096395493,-0.7008348107337952
1772701680430180400,5.321180419921875,0.4134991765022278,0.047449808567762375,-0.7111241817474365
1772701680440228000,5.33122802734375,0.400787353515625,0.10934619605541229,-0.7145687341690063
1772701680450277400,5.34127734375,0.3869892656803131,0.19647018611431122,-0.7043206095695496
1772701680460325000,5.3513251953125,0.3758942782878876,0.2838633954524994,-0.6802176833152771
1772701680470373400,5.361373291015625,0.3592066466808319,0.3577786386013031,-0.6426963806152344
1772701680480421400,5.37142138671875,0.34592679142951965,0.3756340742111206,-0.6231551766395569
1772701680490469000,5.38146923828125,0.3405618369579315,0.3549756705760956,-0.619186520576477
1772701680500517400,5.391517333984375,0.3463592827320099,0.36452949047088623,-0.641751229763031
1772701680510565400,5.4015654296875,0.3615014851093292,0.40969350934028625,-0.6974605917930603
1772701680520613000,5.411613037109375,0.39409804344177246,0.4300062358379364,-0.779680073261261
1772701680530661400,5.421661376953125,0.4396442174911499,0.425811767578125,-0.8945465087890625
1772701680540710100,5.431710205078125,0.4850894510746002,0.3351721465587616,-1.0052658319473267
1772701680550758400,5.44175830078125,0.5340114831924438,0.20632733404636383,-1.0983930826187134
1772701680560806400,5.451806396484375,0.5779467225074768,0.08027645945549011,-1.1559386253356934
1772701680570854100,5.461854248046875,0.5819923281669617,0.026363430544734,-1.1742370128631592
1772701680580902400,5.47190234375,0.5861705541610718,0.008160724304616451,-1.136245608329773
1772701680590950100,5.4819501953125,0.5843893885612488,-0.02943378873169422,-1.0768598318099976
1772701680600998100,5.491998046875,0.5895423889160156,-0.0999806597828865,-1.0001165866851807
1772701680611046400,5.50204638671875,0.6122788190841675,-0.22855541110038757,-0.9142381548881531
1772701680621094100,5.51209423828125,0.6524733901023865,-0.37058526277542114,-0.8485129475593567
1772701680631143400,5.522143310546875,0.697853684425354,-0.48835504055023193,-0.8185017704963684
1772701680641191200,5.532191162109375,0.7442795038223267,-0.5716107487678528,-0.8516117930412292
1772701680651239200,5.5422392578125,0.7850468754768372,-0.5899319648742676,-0.9571714997291565
1772701680661287400,5.552287353515625,0.8703942894935608,-0.6377791166305542,-1.0270779132843018
1772701680671335200,5.562335205078125,0.9408902525901794,-0.6766160130500793,-0.996441125869751
1772701680681383400,5.572383544921875,0.8114404082298279,-0.6457289457321167,-0.8897205591201782
1772701680691431200,5.58243115234375,0.5587799549102783,-0.5991137623786926,-0.7809096574783325
1772701680701479200,5.592479248046875,0.3579157888889313,-0.5467352271080017,-0.7096917033195496
1772701680711527400,5.60252734375,0.29451313614845276,-0.4331043064594269,-0.6892484426498413
1772701680721576200,5.612576171875,0.3211103677749634,-0.30268263816833496,-0.7120283246040344
1772701680731624400,5.62262451171875,0.3965902328491211,-0.23392488062381744,-0.7598440647125244
1772701680741672200,5.632672119140625,0.5064288377761841,-0.1562894731760025,-0.8112444281578064
1772701680751720200,5.64272021484375,0.6408809423446655,0.011865714564919472,-0.8624255657196045
1772701680761768400,5.6527685546875,0.7545645833015442,0.2332010269165039,-0.9438825845718384
1772701680771816200,5.662816162109375,0.8297909498214722,0.44221335649490356,-1.057255744934082
1772701680781864200,5.6728642578125,0.8905280232429504,0.5613024830818176,-1.1419544219970703
1772701680791912200,5.682912109375,0.9218646287918091,0.5760316252708435,-1.1283185482025146
1772701680801961200,5.692961181640625,0.9153353571891785,0.45280689001083374,-1.0096962451934814
1772701680812009200,5.70300927734375,0.8821002244949341,0.23901790380477905,-0.8276129961013794
1772701680822057200,5.71305712890625,0.7964164614677429,-0.01732253096997738,-0.6315500140190125
1772701680832105200,5.723105224609375,0.6820755004882812,-0.27311569452285767,-0.47883927822113037
1772701680842153200,5.7331533203125,0.5869452357292175,-0.5435514450073242,-0.4003191888332367
1772701680852201200,5.743201171875,0.5279964208602905,-0.7495546936988831,-0.40042197704315186
1772701680862249500,5.75324951171875,0.4907955527305603,-0.8180453181266785,-0.4409438371658325
1772701680872297200,5.763297119140625,0.473935067653656,-0.784388542175293,-0.45358800888061523
1772701680882345200,5.77334521484375,0.4810340106487274,-0.6651923656463623,-0.4172219932079315
1772701680892394200,5.783394287109375,0.487348347902298,-0.4317817687988281,-0.3792027235031128
1772701680902442200,5.793442138671875,0.4869574010372162,-0.0999244675040245,-0.3768002688884735
1772701680912490200,5.803490234375,0.4826161861419678,0.2531832754611969,-0.41201499104499817
1772701680922538200,5.813538330078125,0.4903625249862671,0.5325254201889038,-0.4513506591320038
1772701680932586200,5.823586181640625,0.5157546997070312,0.6980614066123962,-0.47849228978157043
1772701680942634200,5.83363427734375,0.5422078967094421,0.7910163402557373,-0.48900485038757324
1772701680952682200,5.84368212890625,0.560759961605072,0.8225937485694885,-0.5033643245697021
1772701680962730200,5.853730224609375,0.5883716344833374,0.7709854245185852,-0.5144010186195374
1772701680972778200,5.8637783203125,0.6224939227104187,0.616870105266571,-0.5125463604927063
1772701680982827300,5.8738271484375,0.65288245677948,0.48879045248031616,-0.47253745794296265
1772701680992875300,5.883875244140625,0.6548119187355042,0.4071613848209381,-0.3846707046031952
1772701681002923300,5.89392333984375,0.6254494786262512,0.34161698818206787,-0.2510197162628174
1772701681012971300,5.90397119140625,0.5302188396453857,0.2532320022583008,-0.10786494612693787
1772701681023019300,5.914019287109375,0.3790125548839569,0.10162782669067383,0.004298874642699957
1772701681033067300,5.9240673828125,0.2432163804769516,-0.0909794420003891,0.066246397793293
1772701681043115300,5.934115234375,0.18505720794200897,-0.23748339712619781,0.09650416672229767
1772701681053163300,5.944163330078125,0.17284049093723297,-0.3010975122451782,0.09201887249946594
1772701681063211300,5.954211181640625,0.15630412101745605,-0.27115052938461304,0.0317550003528595
1772701681073260300,5.96426025390625,0.12699629366397858,-0.17198827862739563,-0.042200718075037
1772701681083308300,5.974308349609375,0.0927557721734047,-0.06398963183164597,-0.08837327361106873
1772701681093356300,5.984356201171875,0.05134308338165283,0.01798885315656662,-0.09478616714477539
1772701681103404300,5.994404296875,0.016465259715914726,0.09220236539840698,-0.07701302319765091
1772701681113452300,6.004452392578125,0.01570466160774231,0.17166736721992493,-0.05138569325208664
1772701681123500300,6.014500244140625,0.029824741184711456,0.2247934341430664,-0.032411471009254456
1772701681133548300,6.02454833984375,0.03491004556417465,0.22837990522384644,-0.02791951596736908
1772701681143596300,6.03459619140625,0.023970313370227814,0.191519632935524,-0.03197497874498367
1772701681153646000,6.04464599609375,0.009725597687065601,0.14562085270881653,-0.04212668165564537
1772701681163694000,6.054694091796875,-0.009335977025330067,0.08552342653274536,-0.04814941808581352
1772701681173742000,6.0647421875,-0.021273862570524216,0.027027621865272522,-0.037090376019477844
1772701681183790000,6.0747900390625,-0.03383013606071472,-0.019707657396793365,-0.006306897848844528
1772701681193838000,6.084838134765625,-0.05404352769255638,-0.014032728038728237,0.030367227271199226
1772701681203886000,6.094885986328125,-0.08542222529649734,0.007012635935097933,0.07208697497844696
1772701681213933800,6.104933837890625,-0.12868660688400269,0.018563298508524895,0.14423200488090515
1772701681223982000,6.114982177734375,-0.1600583791732788,-0.0055180699564516544,0.23986878991127014
1772701681234030000,6.125030029296875,-0.18613392114639282,-0.05751549080014229,0.34810498356819153
1772701681244079000,6.1350791015625,-0.21929986774921417,-0.12576058506965637,0.45314323902130127
1772701681254127000,6.145127197265625,-0.2739362120628357,-0.2093132734298706,0.5439804792404175
1772701681264174800,6.1551748046875,-0.3266196548938751,-0.28366100788116455,0.6070385575294495
1772701681274223000,6.16522314453125,-0.3871181607246399,-0.35316047072410583,0.6305606365203857
1772701681284271000,6.17527099609375,-0.4583715796470642,-0.40476399660110474,0.6157153844833374
1772701681294318800,6.18531884765625,-0.5349840521812439,-0.44940364360809326,0.5642260909080505
1772701681304367000,6.1953671875,-0.609093964099884,-0.48000550270080566,0.5051279067993164
1772701681314415000,6.2054150390625,-0.6503945589065552,-0.46284568309783936,0.45579230785369873
1772701681324464000,6.215464111328125,-0.6922293305397034,-0.41985824704170227,0.42613479495048523
1772701681334511900,6.225511962890625,-0.7362974286079407,-0.396485835313797,0.43385156989097595
1772701681344559900,6.235559814453125,-0.7777988314628601,-0.3872326612472534,0.4615037143230438
1772701681354608000,6.245608154296875,-0.8217745423316956,-0.39274728298187256,0.5057744979858398
1772701681364655900,6.25565576171875,-0.8794889450073242,-0.4234553873538971,0.5592989921569824
1772701681374704000,6.2657041015625,-0.9530044794082642,-0.48894864320755005,0.6242833137512207
1772701681384752000,6.275752197265625,-1.0320662260055542,-0.5687401294708252,0.6849013566970825
1772701681394799900,6.2857998046875,-1.1060805320739746,-0.6664941310882568,0.7393678426742554
1772701681404848000,6.29584814453125,-1.1652251482009888,-0.7497163414955139,0.7804694175720215
1772701681414897000,6.30589697265625,-1.217060923576355,-0.8038522601127625,0.8136143684387207
1772701681424945200,6.315945068359375,-1.2441459894180298,-0.8549783229827881,0.8352924585342407
1772701681434993200,6.3259931640625,-1.2385869026184082,-0.8958911299705505,0.8528515100479126
1772701681445041000,6.336041015625,-1.2162898778915405,-0.9469175338745117,0.8368623852729797
1772701681455089200,6.346089111328125,-1.186961054801941,-1.0267643928527832,0.785356342792511
1772701681465137000,6.356136962890625,-1.155436635017395,-1.1480607986450195,0.7196409702301025
1772701681475185000,6.366184814453125,-1.1328517198562622,-1.2399166822433472,0.6395536065101624
1772701681485233200,6.376233154296875,-1.1283975839614868,-1.2401361465454102,0.5546208620071411
1772701681495282000,6.386281982421875,-1.1308351755142212,-1.1493157148361206,0.47641342878341675
1772701681505330200,6.396330078125,-1.168720006942749,-1.0091372728347778,0.4196723699569702
1772701681515378000,6.4063779296875,-1.2385534048080444,-0.8550164103507996,0.42562854290008545
1772701681525426000,6.416426025390625,-1.3074795007705688,-0.7170444130897522,0.4646044373512268
1772701681535474200,6.42647412109375,-1.3338018655776978,-0.5758534669876099,0.48268941044807434
1772701681545522000,6.43652197265625,-1.3177536725997925,-0.43490806221961975,0.4916680157184601
1772701681555570200,6.446570068359375,-1.3192874193191528,-0.3344235122203827,0.5000279545783997
1772701681565618000,6.456617919921875,-1.3475866317749023,-0.29934942722320557,0.49558284878730774
1772701681575667200,6.466667236328125,-1.395415186882019,-0.30795249342918396,0.4203434884548187
1772701681585715000,6.47671484375,-1.443556308746338,-0.37403324246406555,0.3262060582637787
1772701681595763000,6.486762939453125,-1.4723453521728516,-0.5352224111557007,0.23047395050525665
1772701681605811200,6.496811279296875,-1.5181610584259033,-0.7390799522399902,0.16239850223064423
1772701681615859000,6.50685888671875,-1.5837901830673218,-0.9434404969215393,0.1305614709854126
1772701681625907000,6.516906982421875,-1.6491459608078003,-1.126446008682251,0.09992073476314545
1772701681635955200,6.526955078125,-1.685795545578003,-1.3042277097702026,0.07213624566793442
1772701681646003000,6.5370029296875,-1.685102105140686,-1.4993977546691895,0.015427958220243454
1772701681656051000,6.547051025390625,-1.6655100584030151,-1.626019835472107,-0.06432332843542099
1772701681666100000,6.557099853515625,-1.6365606784820557,-1.6967569589614868,-0.13075721263885498
1772701681676148000,6.56714794921875,-1.5869542360305786,-1.6783864498138428,-0.20062577724456787
1772701681686196000,6.577196044921875,-1.5118671655654907,-1.6065566539764404,-0.24774642288684845
1772701681696244000,6.587243896484375,-1.4191644191741943,-1.480003833770752,-0.26691877841949463
1772701681706292000,6.5972919921875,-1.28803551197052,-1.2088066339492798,-0.24557887017726898
1772701681716340000,6.607340087890625,-1.164851427078247,-0.7251870036125183,-0.1612674593925476
1772701681726388000,6.617387939453125,-1.0754348039627075,-0.14024631679058075,-0.02526434324681759
1772701681736436200,6.627436279296875,-1.021389365196228,0.46494850516319275,0.11714047193527222
1772701681746485000,6.637485107421875,-1.0169488191604614,1.0642273426055908,0.2787024676799774
1772701681756533000,6.647532958984375,-1.0719162225723267,1.383607268333435,0.42485275864601135
1772701681766581000,6.6575810546875,-1.0897060632705688,1.471768856048584,0.47465279698371887
1772701681776629000,6.66762890625,-1.0750705003738403,1.5096304416656494,0.4390910863876343
1772701681786677200,6.67767724609375,-1.0374000072479248,1.610106110572815,0.34839898347854614
1772701681796725000,6.68772509765625,-0.9860619902610779,1.6889897584915161,0.2639671862125397
1772701681806773000,6.69777294921875,-0.9296855330467224,1.7052271366119385,0.2205273061990738
1772701681816821000,6.707821044921875,-0.8298202157020569,1.6516001224517822,0.25491592288017273
1772701681826869000,6.717868896484375,-0.7807301878929138,1.6386512517929077,0.2800372540950775
1772701681836918000,6.72791796875,-0.7989683151245117,1.6023800373077393,0.3270806670188904
1772701681846966000,6.737966064453125,-0.8480692505836487,1.4618884325027466,0.4205682575702667
1772701681857014000,6.748013916015625,-0.906478762626648,1.279157042503357,0.5302926301956177
1772701681867062000,6.75806201171875,-0.9700021147727966,1.0938321352005005,0.6324943900108337
1772701681877110000,6.768110107421875,-0.9993245601654053,0.8998717665672302,0.7244299054145813
1772701681887158000,6.778157958984375,-0.9968017339706421,0.7198002338409424,0.7918765544891357
1772701681897206000,6.7882060546875,-0.9709190130233765,0.5780223608016968,0.8338986039161682
1772701681907254000,6.79825390625,-0.9276495575904846,0.4858703017234802,0.8524760007858276
1772701681917303000,6.808302978515625,-0.8854334354400635,0.4258786141872406,0.8452314138412476
1772701681927351000,6.81835107421875,-0.8496298789978027,0.39214086532592773,0.8207241892814636
1772701681937398800,6.828398681640625,-0.8343342542648315,0.3736385703086853,0.7885476350784302
1772701681947447000,6.838447021484375,-0.8356293439865112,0.34571585059165955,0.7796899676322937
1772701681957495000,6.8484951171875,-0.8405423760414124,0.32594960927963257,0.7888346910476685
1772701681967543000,6.85854296875,-0.8466524481773376,0.308133602142334,0.8199697136878967
1772701681977591000,6.868591064453125,-0.8425616025924683,0.29839202761650085,0.8643542528152466
1772701681987639000,6.87863916015625,-0.8284974098205566,0.29932600259780884,0.9081685543060303
1772701681997687000,6.88868701171875,-0.8054219484329224,0.2921897768974304,0.9429150819778442
1772701682007736000,6.898736083984375,-0.7876874208450317,0.27604490518569946,0.9613204598426819
1772701682017784000,6.9087841796875,-0.7613682150840759,0.25901132822036743,0.993890106678009
1772701682027832000,6.91883203125,-0.7383973598480225,0.250789612531662,1.0373557806015015
1772701682037880000,6.928880126953125,-0.7295564413070679,0.2342820018529892,1.0985445976257324
1772701682047928000,6.938927978515625,-0.7288544774055481,0.20431078970432281,1.1723432540893555
1772701682057976000,6.94897607421875,-0.7454349994659424,0.1492089182138443,1.2386300563812256
1772701682068023800,6.95902392578125,-0.767652690410614,0.10952063649892807,1.2798815965652466
1772701682078073000,6.969072998046875,-0.7707135081291199,0.07454267889261246,1.3001272678375244
1772701682088120800,6.979120849609375,-0.7573486566543579,0.05125972628593445,1.323598027229309
1772701682098169000,6.989169189453125,-0.7422224283218384,0.06534837931394577,1.3288055658340454
1772701682108217000,6.999217041015625,-0.7303703427314758,0.07938670367002487,1.3193472623825073
1772701682118264800,7.009264892578125,-0.7189858555793762,0.10538394749164581,1.2906160354614258
1772701682128313000,7.01931298828125,-0.6930431723594666,0.12230673432350159,1.2752690315246582
1772701682138361000,7.029361083984375,-0.6635116934776306,0.12590625882148743,1.2687044143676758
1772701682148409000,7.0394091796875,-0.6474738717079163,0.11799028515815735,1.2670090198516846
1772701682158456000,7.0494560546875,-0.6587156057357788,0.12270807474851608,1.2660441398620605
1772701682168505000,7.059505126953125,-0.6917946934700012,0.13653413951396942,1.2567957639694214
1772701682178553000,7.069552978515625,-0.723269522190094,0.13491493463516235,1.2378625869750977
1772701682188601300,7.079601318359375,-0.7503355145454407,0.1484067738056183,1.2196385860443115
1772701682198649000,7.089649169921875,-0.7740839719772339,0.14379392564296722,1.182037115097046
1772701682208697000,7.099697021484375,-0.7913492321968079,0.13935096561908722,1.1208903789520264
1772701682218745300,7.109745361328125,-0.808368980884552,0.15574911236763,1.0419706106185913
1772701682228793000,7.11979296875,-0.8120526671409607,0.1776174008846283,0.976996898651123
1772701682238841300,7.12984130859375,-0.7836910486221313,0.20731857419013977,0.9445773959159851
1772701682248890000,7.13989013671875,-0.7571380138397217,0.241132453083992,0.9361048340797424
1772701682258938000,7.149938232421875,-0.7433055639266968,0.27886679768562317,0.9503839015960693
1772701682268986000,7.159986083984375,-0.7366894483566284,0.3280572295188904,0.9823448061943054
1772701682279034000,7.1700341796875,-0.7343009114265442,0.4001482129096985,1.016072154045105
1772701682289082400,7.180082275390625,-0.748370885848999,0.45246466994285583,1.0331124067306519
1772701682299130000,7.190130126953125,-0.7725918292999268,0.46741166710853577,1.0450329780578613
1772701682309178000,7.20017822265625,-0.8123107552528381,0.41975438594818115,1.033996820449829
1772701682319226400,7.210226318359375,-0.8785544633865356,0.3315601050853729,1.0395045280456543
1772701682329275100,7.220275146484375,-0.9078612327575684,0.2530634105205536,1.0622084140777588
1772701682339323400,7.230323486328125,-0.8819220066070557,0.24312956631183624,1.1098556518554688
1772701682349371100,7.24037109375,-0.8257343769073486,0.29408302903175354,1.1693556308746338
1772701682359419100,7.250419189453125,-0.7641839385032654,0.37084969878196716,1.2112327814102173
1772701682369467100,7.260467041015625,-0.703248143196106,0.5315102338790894,1.2587924003601074
1772701682379515100,7.27051513671875,-0.6324344277381897,0.7928528785705566,1.3364053964614868
1772701682389563100,7.280563232421875,-0.5387460589408875,1.0721771717071533,1.4130330085754395
1772701682399611100,7.290611083984375,-0.42846718430519104,1.2192806005477905,1.434570074081421
1772701682409660200,7.30066015625,-0.3288639187812805,1.1295517683029175,1.3678247928619385
1772701682419708200,7.310708251953125,-0.24568593502044678,0.8677598834037781,1.2103384733200073
1772701682429756200,7.320756103515625,-0.22989551723003387,0.6439781785011292,1.0549137592315674
1772701682439804200,7.33080419921875,-0.2998117506504059,0.6000868678092957,0.9807990789413452
1772701682449852200,7.34085205078125,-0.3879418671131134,0.6148823499679565,0.9802259802818298
1772701682459900200,7.350900146484375,-0.4879598319530487,0.6346515417098999,0.9624890685081482
1772701682469948400,7.360948486328125,-0.614321231842041,0.6943297386169434,0.9068763852119446
1772701682479996200,7.37099609375,-0.787670373916626,0.8529627919197083,0.7898434996604919
1772701682490045200,7.381045166015625,-0.9344710111618042,1.0642307996749878,0.6072643995285034
1772701682500093200,7.39109326171875,-0.9703070521354675,1.2630257606506348,0.38574501872062683
1772701682510141200,7.40114111328125,-0.8919874429702759,1.3997327089309692,0.1380380243062973
1772701682520189200,7.411189208984375,-0.7693310379981995,1.5038758516311646,-0.06914231926202774
1772701682530237200,7.4212373046875,-0.6785989999771118,1.6581320762634277,-0.18492244184017181
1772701682540285200,7.43128515625,-0.6301582455635071,1.868074893951416,-0.15600265562534332
1772701682550333200,7.441333251953125,-0.629413902759552,2.0104713439941406,-0.04249526187777519
1772701682560381200,7.451381103515625,-0.6275134682655334,2.112861394882202,0.08913067728281021
1772701682570429200,7.46142919921875,-0.5972165465354919,2.1866848468780518,0.20995323359966278
1772701682580478200,7.471478271484375,-0.5353443622589111,2.1874728202819824,0.3023260533809662
1772701682590526200,7.481526123046875,-0.45925280451774597,2.051082134246826,0.3374440670013428
1772701682600574200,7.49157421875,-0.3823777437210083,1.7752032279968262,0.31440746784210205
1772701682610622200,7.501622314453125,-0.34690654277801514,1.3233678340911865,0.32076284289360046
1772701682620670200,7.511670166015625,-0.37712597846984863,0.8039257526397705,0.4330150783061981
1772701682630718200,7.52171826171875,-0.4427228271961212,0.3780788481235504,0.6462700963020325
1772701682640766200,7.53176611328125,-0.5340434312820435,0.05437828600406647,0.8895719647407532
1772701682650814200,7.541814208984375,-0.6293430328369141,-0.18247926235198975,1.1030800342559814
1772701682660863200,7.55186328125,-0.6883131265640259,-0.31750819087028503,1.2423241138458252
1772701682670911000,7.561910888671875,-0.7283918857574463,-0.37230992317199707,1.3054615259170532
1772701682680959200,7.571959228515625,-0.7510167360305786,-0.4440371096134186,1.330653190612793
1772701682691007200,7.58200732421875,-0.781613826751709,-0.49162939190864563,1.3322420120239258
1772701682701055200,7.59205517578125,-0.8070957064628601,-0.4887228012084961,1.323983907699585
1772701682711103200,7.602103271484375,-0.8219385743141174,-0.49120569229125977,1.3445810079574585
1772701682721151200,7.612151123046875,-0.8284057974815369,-0.4314219653606415,1.3639488220214844
1772701682731199200,7.62219921875,-0.827718198299408,-0.3747520446777344,1.3680682182312012
1772701682741248300,7.632248291015625,-0.8273344039916992,-0.34511956572532654,1.3545279502868652
1772701682751296300,7.642296142578125,-0.8276745080947876,-0.2831534147262573,1.321385145187378
1772701682761344300,7.65234423828125,-0.8252731561660767,-0.2084469497203827,1.2746785879135132
1772701682771392000,7.66239208984375,-0.8208799958229065,-0.1426232010126114,1.2102348804473877
1772701682781440300,7.672440185546875,-0.8211010098457336,-0.06544904410839081,1.1255770921707153
1772701682791488300,7.68248828125,-0.8232493996620178,0.03293691202998161,1.0245015621185303
1772701682801536000,7.692535888671875,-0.8253306746482849,0.13533438742160797,0.9203245639801025
1772701682811585300,7.702585205078125,-0.8324047923088074,0.25265008211135864,0.819196879863739
1772701682821633000,7.712633056640625,-0.8362048864364624,0.3367764353752136,0.7274336814880371
1772701682831681300,7.722681396484375,-0.8307901620864868,0.3782588839530945,0.653552234172821
1772701682841729300,7.732729248046875,-0.8199646472930908,0.4030159115791321,0.6043066382408142
1772701682851777000,7.742777099609375,-0.8060768246650696,0.4226660430431366,0.5873497724533081
1772701682861825300,7.7528251953125,-0.7991941571235657,0.44117528200149536,0.6036267876625061
1772701682871873000,7.762873046875,-0.7909402251243591,0.4461580514907837,0.6220638155937195
1772701682881921300,7.77292138671875,-0.7693222761154175,0.42943713068962097,0.6323646903038025
1772701682891969300,7.78296923828125,-0.7477495670318604,0.4036436080932617,0.6392952799797058
1772701682902018300,7.793018310546875,-0.7351887822151184,0.3526001274585724,0.6554920673370361
1772701682912066300,7.80306640625,-0.7416080832481384,0.29161426424980164,0.6649742722511292
1772701682922114000,7.813114013671875,-0.7488396167755127,0.21441908180713654,0.6633569598197937
1772701682932162300,7.823162353515625,-0.7455655336380005,0.13987454771995544,0.6385373473167419
1772701682942210300,7.833210205078125,-0.7287969589233398,0.05891711264848709,0.5920702219009399
1772701682952258000,7.843258056640625,-0.7022345662117004,-0.004179831128567457,0.5353869795799255
1772701682962306300,7.853306396484375,-0.6852409243583679,-0.014719025231897831,0.4885667562484741
1772701682972354000,7.86335400390625,-0.6754261255264282,0.029821811243891716,0.4736546576023102
1772701682982403300,7.8734033203125,-0.6596442461013794,0.1259334236383438,0.46925032138824463
1772701682992451000,7.883451171875,-0.6556534767150879,0.18491126596927643,0.4685240685939789
1772701683002499000,7.8934990234375,-0.6416873335838318,0.20989277958869934,0.4751220643520355
1772701683012547300,7.90354736328125,-0.600433349609375,0.278697669506073,0.7649144530296326
1772701683022595000,7.913594970703125,-0.6377764940261841,0.37158581614494324,0.9440996646881104
1772701683032643000,7.92364306640625,-0.6599971055984497,0.29012423753738403,0.7192433476448059
1772701683042691300,7.93369140625,-0.6321201920509338,0.1882849484682083,0.31859129667282104
1772701683052739000,7.943739013671875,-0.5484263300895691,0.09117332100868225,-0.04000014811754227
1772701683062788400,7.953788330078125,-0.5068727731704712,0.008861668407917023,-0.05862309783697128
1772701683072836000,7.963836181640625,-0.4521264433860779,-0.09773747622966766,0.12761494517326355
