time,seconds_elapsed,z,y,x
1772701675170002200,0.061002197265625,-0.05450860410928726,0.000135788694024086,0.07283633947372437
1772701675180050400,0.071050537109375,-0.06215832009911537,-0.0032700635492801666,0.08071824908256531
1772701675190098200,0.08109814453125,-0.06456554681062698,-0.006625913083553314,0.09132375568151474
1772701675200146200,0.091146240234375,-0.06830941140651703,-0.009864474646747112,0.09669634699821472
1772701675210194400,0.1011943359375,-0.07324904203414917,-0.0032164258882403374,0.10354013741016388
1772701675220242200,0.1112421875,-0.07560082525014877,-0.0005927421152591705,0.10092702507972717
1772701675230291500,0.12129150390625,-0.07383488118648529,-0.009464530274271965,0.09298814088106155
1772701675240339200,0.131339111328125,-0.07001086324453354,-0.02168070152401924,0.08703158050775528
1772701675250387500,0.141387451171875,-0.059864215552806854,-0.024301251396536827,0.0740358904004097
1772701675260435500,0.151435546875,-0.050624385476112366,-0.021949006244540215,0.06814651191234589
1772701675270483200,0.161483154296875,-0.04145485535264015,-0.01223193109035492,0.06438133120536804
1772701675280531500,0.171531494140625,-0.030079664662480354,-0.002458833623677492,0.06997855752706528
1772701675290579200,0.1815791015625,-0.02229497954249382,0.008195942267775536,0.06988268345594406
1772701675300627200,0.191627197265625,-0.01167907565832138,0.013377639465034008,0.06223927438259125
1772701675310675500,0.201675537109375,-0.011667624115943909,0.019163355231285095,0.048495762050151825
1772701675320723200,0.21172314453125,-0.0050582573749125,0.01895451545715332,0.03298453986644745
1772701675330771200,0.221771240234375,0.001963965594768524,0.015355785377323627,0.01226434763520956
1772701675340819500,0.2318193359375,0.01413650717586279,0.006618581246584654,0.003808332607150078
1772701675350867200,0.2418671875,0.031656112521886826,0.01058109849691391,-0.0036099026910960674
1772701675360916500,0.25191650390625,0.039417337626218796,0.008138744160532951,-0.007904238998889923
1772701675370964200,0.261964111328125,0.04962896183133125,0.005067853722721338,-0.02112177573144436
1772701675381012200,0.27201220703125,0.05310738459229469,0.004987743217498064,-0.02941415086388588
1772701675391060500,0.282060546875,0.05439875274896622,0.002892634365707636,-0.03851603716611862
1772701675401108200,0.292108154296875,0.05506504327058792,0.00874030590057373,-0.05608602985739708
1772701675411156500,0.302156494140625,0.0591101199388504,0.009349903091788292,-0.07705176621675491
1772701675421204200,0.312204345703125,0.0661240965127945,0.0078638456761837,-0.09667380899190903
1772701675431252200,0.322252197265625,0.0792715921998024,0.0013891677372157574,-0.11521179974079132
1772701675441300500,0.332300537109375,0.0919785350561142,-0.0032541011460125446,-0.12430880963802338
1772701675451348200,0.34234814453125,0.10372999310493469,-0.031409040093421936,-0.13572870194911957
1772701675461396200,0.352396240234375,0.10586215555667877,-0.05689193680882454,-0.14197802543640137
1772701675471444500,0.362444580078125,0.10702435672283173,-0.08060019463300705,-0.13917770981788635
1772701675481493200,0.3724931640625,0.11008962243795395,-0.07575147598981857,-0.1326061487197876
1772701675491541500,0.38254150390625,0.11009681224822998,-0.05717645213007927,-0.13589835166931152
1772701675501589200,0.39258935546875,0.11913005262613297,-0.029323862865567207,-0.14933335781097412
1772701675511637200,0.40263720703125,0.13236302137374878,-0.0023337905295193195,-0.16551420092582703
1772701675521685200,0.412685302734375,0.1385495662689209,0.028890300542116165,-0.1811218410730362
1772701675531733200,0.422733154296875,0.1414838433265686,0.07621680200099945,-0.1964733749628067
1772701675541781500,0.432781494140625,0.1400771588087082,0.11842203140258789,-0.21301120519638062
1772701675551829200,0.442829345703125,0.12998218834400177,0.16372427344322205,-0.23360170423984528
1772701675561877200,0.452877197265625,0.11299703270196915,0.20626604557037354,-0.24139003455638885
1772701675571925500,0.462925537109375,0.10185196995735168,0.24405498802661896,-0.24136260151863098
1772701675581973200,0.47297314453125,0.09072475135326385,0.26273494958877563,-0.23348256945610046
1772701675592021200,0.483021240234375,0.07589893043041229,0.2724088728427887,-0.21727457642555237
1772701675602070300,0.4930703125,0.06270727515220642,0.255217969417572,-0.19741147756576538
1772701675612118300,0.5031181640625,0.051776330918073654,0.21690413355827332,-0.16409479081630707
1772701675622166300,0.513166259765625,0.04492343217134476,0.15875740349292755,-0.11515180766582489
1772701675632214300,0.52321435546875,0.03818030655384064,0.08499370515346527,-0.04968224838376045
1772701675642262300,0.53326220703125,0.022384045645594597,-0.00465230830013752,0.018908392637968063
1772701675652310300,0.543310302734375,-0.003366858931258321,-0.09018106013536453,0.09326038509607315
1772701675662358300,0.553358154296875,-0.033637885004282,-0.15137125551700592,0.14590266346931458
1772701675672406500,0.563406494140625,-0.062443964183330536,-0.18191078305244446,0.17646031081676483
1772701675682454300,0.573454345703125,-0.0804397240281105,-0.18700623512268066,0.1869901716709137
1772701675692502300,0.583502197265625,-0.09645117819309235,-0.1753154993057251,0.18295921385288239
1772701675702550500,0.593550537109375,-0.10928206890821457,-0.16552872955799103,0.17812992632389069
1772701675712598300,0.603598388671875,-0.11932165175676346,-0.1614900380373001,0.17452293634414673
1772701675722646300,0.613646240234375,-0.11909666657447815,-0.15507148206233978,0.1753409504890442
1772701675732695300,0.6236953125,-0.11681646853685379,-0.13208094239234924,0.1712750941514969
1772701675742743300,0.633743408203125,-0.1129894107580185,-0.09919089823961258,0.15556859970092773
1772701675752791300,0.643791259765625,-0.11405840516090393,-0.051149070262908936,0.1278272569179535
1772701675762839300,0.65383935546875,-0.11985664814710617,0.006600118707865477,0.0975305363535881
1772701675772887300,0.66388720703125,-0.12249504029750824,0.07318873703479767,0.06423410028219223
1772701675782935300,0.673935302734375,-0.12328360974788666,0.14035740494728088,0.037161074578762054
1772701675792983300,0.6839833984375,-0.13448327779769897,0.19403128325939178,0.016043538227677345
1772701675803031300,0.69403125,-0.13616667687892914,0.23102982342243195,0.0024280070792883635
1772701675813079300,0.704079345703125,-0.14708749949932098,0.24554724991321564,0.0029225561302155256
1772701675823127300,0.714127197265625,-0.15825475752353668,0.23651854693889618,0.01281975582242012
1772701675833175300,0.72417529296875,-0.1692112684249878,0.21920187771320343,0.029294602572917938
1772701675843224300,0.734224365234375,-0.17606322467327118,0.18445700407028198,0.04477280005812645
1772701675853272300,0.744272216796875,-0.18161964416503906,0.14037342369556427,0.0778559222817421
1772701675863320300,0.7543203125,-0.1973634958267212,0.11029131710529327,0.11737743765115738
1772701675873368300,0.764368408203125,-0.2131728231906891,0.10163098573684692,0.15448060631752014
1772701675883416300,0.774416259765625,-0.22748485207557678,0.11366453766822815,0.18147164583206177
1772701675893464300,0.78446435546875,-0.23800593614578247,0.1127806305885315,0.1950891762971878
1772701675903512300,0.79451220703125,-0.26484745740890503,0.12014830857515335,0.20373928546905518
1772701675913560300,0.804560302734375,-0.29581546783447266,0.13666896522045135,0.19365069270133972
1772701675923608300,0.8146083984375,-0.32450008392333984,0.1449885070323944,0.17297010123729706
1772701675933656300,0.82465625,-0.3428601622581482,0.13542136549949646,0.1305062621831894
1772701675943704300,0.834704345703125,-0.36083048582077026,0.12507134675979614,0.09563286602497101
1772701675953752300,0.84475244140625,-0.37487679719924927,0.10852806270122528,0.07115975022315979
1772701675963801300,0.85480126953125,-0.3833993673324585,0.09408953040838242,0.06033404543995857
1772701675973849300,0.864849365234375,-0.3885858654975891,0.06698520481586456,0.0716673880815506
1772701675983897000,0.87489697265625,-0.3860105872154236,0.04668416827917099,0.09980874508619308
1772701675993945300,0.8849453125,-0.37318292260169983,0.021278144791722298,0.13657847046852112
1772701676003993300,0.894993408203125,-0.3626978397369385,-0.006557297892868519,0.16312254965305328
1772701676014041300,0.905041259765625,-0.3446330726146698,-0.026978416368365288,0.17824263870716095
1772701676024089300,0.91508935546875,-0.32654476165771484,-0.03177996352314949,0.19392889738082886
1772701676034137300,0.925137451171875,-0.31703248620033264,-0.040049079805612564,0.20899812877178192
1772701676044185300,0.935185302734375,-0.3051985502243042,-0.04755471646785736,0.23282457888126373
1772701676054233300,0.9452333984375,-0.29128700494766235,-0.04671582207083702,0.26919645071029663
1772701676064281300,0.95528125,-0.24533149600028992,-0.05151309818029404,0.2995782494544983
1772701676074330400,0.965330322265625,-0.13795790076255798,-0.07915351539850235,0.3013492524623871
1772701676084378400,0.97537841796875,-0.05331866070628166,-0.1675330251455307,0.29793649911880493
1772701676094426400,0.98542626953125,-0.03656524792313576,-0.2816542685031891,0.3119966387748718
1772701676104474400,0.995474365234375,-0.0231330469250679,-0.3974428176879883,0.34710103273391724
1772701676114522000,1.005522216796875,-0.003180377883836627,-0.5044848322868347,0.3756168484687805
1772701676124570400,1.0155703125,0.043997809290885925,-0.6104429960250854,0.39222320914268494
1772701676134618400,1.025618408203125,0.12603488564491272,-0.7444559335708618,0.39911121129989624
1772701676144666400,1.035666259765625,0.1368131935596466,-0.8536074757575989,0.39997056126594543
1772701676154715000,1.04571484375,0.05750024691224098,-0.8979909420013428,0.3791601061820984
1772701676164762600,1.0557626953125,-0.06034892797470093,-0.8982693552970886,0.3180036246776581
1772701676174811000,1.065810791015625,-0.14625585079193115,-0.8620352149009705,0.2236907035112381
1772701676184859000,1.07585888671875,-0.179810032248497,-0.824605405330658,0.12005637586116791
1772701676194907600,1.08590771484375,-0.20815405249595642,-0.7665135860443115,0.036028046160936356
1772701676204956000,1.095955810546875,-0.2542991042137146,-0.6427050828933716,0.006697634235024452
1772701676215003600,1.106003662109375,-0.29115355014801025,-0.4799347519874573,0.027363764122128487
1772701676225052000,1.116052001953125,-0.2982085049152374,-0.31769460439682007,0.0568813718855381
1772701676235100000,1.126099853515625,-0.25718945264816284,-0.17085911333560944,0.07684176415205002
1772701676245147600,1.136147705078125,-0.17258398234844208,-0.02171505242586136,0.09187789261341095
1772701676255196000,1.14619580078125,-0.08272947371006012,0.1627378910779953,0.09040702879428864
1772701676265243600,1.15624365234375,-0.013798910193145275,0.3410123288631439,0.05621591582894325
1772701676275291600,1.166291748046875,0.028177302330732346,0.464855432510376,0.0036152920220047235
1772701676285340000,1.17633984375,0.045845504850149155,0.5135676860809326,-0.047837309539318085
1772701676295387600,1.1863876953125,0.05039551481604576,0.5158995985984802,-0.0912279263138771
1772701676305437000,1.19643701171875,0.056655071675777435,0.46988898515701294,-0.12132226675748825
1772701676315484700,1.206484619140625,0.06127885356545448,0.37033364176750183,-0.14945243299007416
1772701676325532700,1.21653271484375,0.06607388705015182,0.2410287708044052,-0.1779019981622696
1772701676335581000,1.226580810546875,0.06657908856868744,0.10536256432533264,-0.19134509563446045
1772701676345628700,1.236628662109375,0.06100102886557579,-0.020943496376276016,-0.1741834580898285
1772701676355677000,1.246677001953125,0.06064203381538391,-0.14973503351211548,-0.11614999175071716
1772701676365725000,1.256724853515625,0.06555315852165222,-0.26531982421875,-0.04294348508119583
1772701676375772700,1.266772705078125,0.0665193572640419,-0.373628169298172,0.01753956452012062
1772701676385821000,1.276821044921875,0.07056684792041779,-0.4665336310863495,0.050747714936733246
1772701676395868700,1.28686865234375,0.07865646481513977,-0.5301224589347839,0.06147812306880951
1772701676405916700,1.296916748046875,0.07568485289812088,-0.5553261637687683,0.04513798654079437
1772701676415965700,1.306965576171875,0.05939722806215286,-0.5210121273994446,0.008713130839169025
1772701676426013700,1.317013671875,0.04668731987476349,-0.4325186610221863,-0.05047689750790596
1772701676436062000,1.32706201171875,0.04716722294688225,-0.28588899970054626,-0.11483857780694962
1772701676446109700,1.337109619140625,0.05403820052742958,-0.1289425492286682,-0.18185117840766907
1772701676456157700,1.34715771484375,0.05969901382923126,-0.011484089307487011,-0.23823243379592896
1772701676466206000,1.3572060546875,0.06826511770486832,0.08366501331329346,-0.28020596504211426
1772701676476253700,1.367253662109375,0.0804823711514473,0.15491895377635956,-0.2963889539241791
1772701676486301700,1.3773017578125,0.09298001974821091,0.19416426122188568,-0.2929365038871765
1772701676496349700,1.387349609375,0.10388407111167908,0.19689533114433289,-0.28299784660339355
1772701676506397700,1.397397705078125,0.11969440430402756,0.189618319272995,-0.2687934637069702
1772701676516446000,1.407446044921875,0.13593141734600067,0.16392147541046143,-0.2614082396030426
1772701676526494700,1.41749462890625,0.1638246774673462,0.09947337210178375,-0.24695289134979248
1772701676536543000,1.42754296875,0.18837183713912964,-0.010978832840919495,-0.22869372367858887
1772701676546590700,1.4375908203125,0.2134009748697281,-0.15814104676246643,-0.19719438254833221
1772701676556638700,1.447638671875,0.23050805926322937,-0.3061917722225189,-0.16850361227989197
1772701676566687000,1.45768701171875,0.261483371257782,-0.4145209789276123,-0.1506652534008026
1772701676576734700,1.467734619140625,0.30463242530822754,-0.47639501094818115,-0.16254134476184845
1772701676586782700,1.47778271484375,0.33567583560943604,-0.4904050827026367,-0.20312339067459106
1772701676596830700,1.487830810546875,0.361712247133255,-0.47936150431632996,-0.25911077857017517
1772701676606878700,1.497878662109375,0.3664419949054718,-0.4454212486743927,-0.3066655695438385
1772701676616926700,1.5079267578125,0.36227947473526,-0.38253602385520935,-0.3600366413593292
1772701676626974700,1.517974609375,0.347048819065094,-0.3027201294898987,-0.40634721517562866
1772701676637022700,1.528022705078125,0.3359759449958801,-0.22302371263504028,-0.45778751373291016
1772701676647071700,1.53807177734375,0.3128396272659302,-0.14943885803222656,-0.5067582130432129
1772701676657119700,1.54811962890625,0.3098457157611847,-0.08642207831144333,-0.5511123538017273
1772701676667167700,1.558167724609375,0.29802805185317993,-0.028388736769557,-0.5845322608947754
1772701676677215700,1.5682158203125,0.30826419591903687,0.05561402440071106,-0.6049690842628479
1772701676687263700,1.578263671875,0.29216769337654114,0.1460782140493393,-0.6124800443649292
1772701676697312000,1.58831201171875,0.28816044330596924,0.2110588103532791,-0.6348335146903992
1772701676707359700,1.59835986328125,0.29584360122680664,0.25148338079452515,-0.6581151485443115
1772701676717407700,1.60840771484375,0.2965935468673706,0.2760430574417114,-0.676297128200531
1772701676727455700,1.618455810546875,0.27751317620277405,0.2921260595321655,-0.6774463057518005
1772701676737503700,1.628503662109375,0.25390103459358215,0.29733094573020935,-0.654922604560852
1772701676747551700,1.6385517578125,0.2382085919380188,0.28617459535598755,-0.618746280670166
1772701676757600800,1.648600830078125,0.22466321289539337,0.25682738423347473,-0.5821635127067566
1772701676767648800,1.658648681640625,0.2179131656885147,0.20969487726688385,-0.5547398924827576
1772701676777696800,1.66869677734375,0.21552644670009613,0.16555218398571014,-0.5500322580337524
1772701676787744800,1.678744873046875,0.21862958371639252,0.13911110162734985,-0.5730504393577576
1772701676797792800,1.688792724609375,0.22124694287776947,0.13552194833755493,-0.6260111331939697
1772701676807840800,1.6988408203125,0.23885364830493927,0.14366574585437775,-0.6788082122802734
1772701676817888800,1.708888671875,0.2671007215976715,0.14813639223575592,-0.7225783467292786
1772701676827936800,1.718936767578125,0.2863369286060333,0.14829042553901672,-0.7414034008979797
1772701676837984800,1.72898486328125,0.302871972322464,0.15256214141845703,-0.7423067688941956
1772701676848032800,1.73903271484375,0.3304016590118408,0.15431109070777893,-0.7297502756118774
1772701676858080800,1.749080810546875,0.3625151216983795,0.14200568199157715,-0.7152126431465149
1772701676868129800,1.7591298828125,0.39895889163017273,0.128407821059227,-0.7076135873794556
1772701676878177800,1.769177734375,0.4345667064189911,0.12296696752309799,-0.7105454206466675
1772701676888225800,1.779225830078125,0.4636470675468445,0.12043566256761551,-0.7308302521705627
1772701676898273800,1.789273681640625,0.49579542875289917,0.10100071132183075,-0.7577627897262573
1772701676908321800,1.79932177734375,0.517618715763092,0.05087950825691223,-0.7797910571098328
1772701676918369800,1.809369873046875,0.5373838543891907,-0.03602423146367073,-0.7807461023330688
1772701676928417800,1.819417724609375,0.5567836165428162,-0.145642951130867,-0.7485054135322571
1772701676938465800,1.8294658203125,0.570392906665802,-0.23830364644527435,-0.6913254857063293
1772701676948513800,1.839513671875,0.580396831035614,-0.30250421166419983,-0.637283444404602
1772701676958561500,1.8495615234375,0.5811172127723694,-0.32889851927757263,-0.5938233137130737
1772701676968609800,1.85960986328125,0.5761603116989136,-0.32763028144836426,-0.550502359867096
1772701676978658600,1.869658447265625,0.5593371391296387,-0.3079244792461395,-0.5071178674697876
1772701676988706800,1.879706787109375,0.5497252345085144,-0.28323894739151,-0.46464425325393677
1772701676998754800,1.8897548828125,0.5522964596748352,-0.25573036074638367,-0.4424188435077667
1772701677008802800,1.899802734375,0.55217444896698,-0.22390244901180267,-0.42987048625946045
1772701677018850800,1.909850830078125,0.5495190024375916,-0.19496187567710876,-0.4234618544578552
1772701677028898800,1.91989892578125,0.5407769680023193,-0.17802979052066803,-0.4255271553993225
1772701677038946800,1.92994677734375,0.5323248505592346,-0.16299119591712952,-0.4299469292163849
1772701677048994800,1.939994873046875,0.5231918692588806,-0.14711347222328186,-0.42819297313690186
1772701677059042800,1.950042724609375,0.5119914412498474,-0.11926399916410446,-0.41307955980300903
1772701677069090800,1.9600908203125,0.5008423924446106,-0.09582605212926865,-0.4029099941253662
1772701677079138800,1.970138916015625,0.4938901960849762,-0.07777967303991318,-0.400610089302063
1772701677089187800,1.980187744140625,0.49492883682250977,-0.0637364462018013,-0.4076928198337555
1772701677099235800,1.99023583984375,0.49389952421188354,-0.05098869279026985,-0.42619994282722473
1772701677109283600,2.00028369140625,0.48466309905052185,-0.03008989617228508,-0.4459517300128937
1772701677119331800,2.010331787109375,0.47914183139801025,0.046599023044109344,-0.4521470367908478
1772701677129379800,2.0203798828125,0.4519714117050171,0.03826873376965523,-0.4947783946990967
1772701677139427600,2.030427490234375,0.43958666920661926,-0.16093410551548004,-0.5241538286209106
1772701677149475000,2.04047509765625,0.36889857053756714,-0.09593066573143005,-0.3684854209423065
1772701677159523300,2.0505234375,0.28638502955436707,-0.03341509401798248,-0.19949372112751007
1772701677169571000,2.060571044921875,0.28592604398727417,-0.11738244444131851,-0.12194051593542099
1772701677179619000,2.070619140625,0.3280002474784851,-0.21750691533088684,-0.07659140974283218
1772701677189667300,2.080667236328125,0.3683978021144867,-0.3004732131958008,-0.021436285227537155
1772701677199716000,2.090716064453125,0.4153245687484741,-0.4396635890007019,0.046977125108242035
1772701677209764400,2.100764404296875,0.4420575797557831,-0.56986403465271,0.12919098138809204
1772701677219812000,2.11081201171875,0.4244069457054138,-0.6041841506958008,0.2370050698518753
1772701677229860000,2.120860107421875,0.3738980293273926,-0.5228792428970337,0.34227144718170166
1772701677239908000,2.130908203125,0.32918408513069153,-0.37636277079582214,0.38924267888069153
1772701677249956000,2.1409560546875,0.2831086814403534,-0.19983018934726715,0.3490194082260132
1772701677260004000,2.151004150390625,0.2329951971769333,-0.02721208520233631,0.22124840319156647
1772701677270052000,2.161052001953125,0.16507449746131897,0.11497137695550919,0.06010077893733978
1772701677280100000,2.17110009765625,0.10832974314689636,0.21941974759101868,-0.08398368954658508
1772701677290148400,2.1811484375,0.07163001596927643,0.2841135859489441,-0.16485708951950073
1772701677300196000,2.191196044921875,0.05840981751680374,0.3442637324333191,-0.16430367529392242
1772701677310245000,2.2012451171875,0.06431832909584045,0.3858586847782135,-0.0977909117937088
1772701677320293000,2.211293212890625,0.08789663016796112,0.406669944524765,-0.008887671865522861
1772701677330341000,2.221341064453125,0.09382937103509903,0.4243835508823395,0.07602155208587646
1772701677340389400,2.231389404296875,0.09413563460111618,0.43427106738090515,0.14176328480243683
1772701677350437000,2.24143701171875,0.09526285529136658,0.42407962679862976,0.1730995923280716
1772701677360485000,2.251485107421875,0.09898275882005692,0.39372414350509644,0.20479600131511688
1772701677370533000,2.261533203125,0.11720944195985794,0.34888169169425964,0.23999586701393127
1772701677380581000,2.2715810546875,0.13788914680480957,0.27976787090301514,0.28599369525909424
1772701677390629000,2.281629150390625,0.16099156439304352,0.18436355888843536,0.3191892206668854
1772701677400677000,2.291677001953125,0.18286223709583282,0.07884272187948227,0.33700308203697205
1772701677410726100,2.30172607421875,0.215219646692276,-0.012848185375332832,0.3367254137992859
1772701677420774100,2.311774169921875,0.24838079512119293,-0.07053491473197937,0.3297426104545593
1772701677430822100,2.321822265625,0.27929583191871643,-0.11691880226135254,0.3214927315711975
1772701677440870100,2.3318701171875,0.2956010401248932,-0.15364645421504974,0.30191317200660706
1772701677450918100,2.341918212890625,0.30540338158607483,-0.20833104848861694,0.27045562863349915
1772701677460966100,2.351966064453125,0.3039053678512573,-0.23741888999938965,0.22556564211845398
1772701677471014100,2.36201416015625,0.29895663261413574,-0.23157228529453278,0.17411930859088898
1772701677481062100,2.372062255859375,0.28462454676628113,-0.1856793612241745,0.12715286016464233
1772701677491110100,2.382110107421875,0.2742806077003479,-0.11491868644952774,0.07415008544921875
1772701677501158100,2.392158203125,0.26847758889198303,-0.028840793296694756,0.0201859213411808
1772701677511207200,2.402207275390625,0.259998619556427,0.05966990813612938,-0.023494312539696693
1772701677521255200,2.412255126953125,0.2538999915122986,0.13531219959259033,-0.060869649052619934
1772701677531303200,2.42230322265625,0.2429560124874115,0.18872974812984467,-0.10119610279798508
1772701677541351200,2.43235107421875,0.24026034772396088,0.2245977371931076,-0.13768886029720306
1772701677551399200,2.442399169921875,0.23526450991630554,0.24700012803077698,-0.17869548499584198
1772701677561447200,2.452447265625,0.2300681471824646,0.27086710929870605,-0.22011350095272064
1772701677571495200,2.4624951171875,0.22224460542201996,0.30883297324180603,-0.26464974880218506
1772701677581543200,2.472543212890625,0.205487459897995,0.3397781252861023,-0.29502975940704346
1772701677591591200,2.482591064453125,0.1913386434316635,0.34960752725601196,-0.3016079068183899
1772701677601639000,2.492638916015625,0.15736150741577148,0.32462549209594727,-0.2706869840621948
1772701677611687200,2.502687255859375,0.1139807254076004,0.26041802763938904,-0.19444681704044342
1772701677621735200,2.512735107421875,0.06101284921169281,0.16374661028385162,-0.08478371053934097
1772701677631784200,2.5227841796875,0.01843974180519581,0.02801602892577648,0.042085178196430206
1772701677641832200,2.532832275390625,-0.018641047179698944,-0.12699991464614868,0.16813978552818298
1772701677651880200,2.542880126953125,-0.04735920578241348,-0.2857452630996704,0.27586349844932556
1772701677661928200,2.55292822265625,-0.07839062064886093,-0.4356684386730194,0.36068013310432434
1772701677671976200,2.56297607421875,-0.12763220071792603,-0.5530145168304443,0.42452967166900635
1772701677682024200,2.573024169921875,-0.18168611824512482,-0.6242415904998779,0.456535279750824
1772701677692072200,2.583072265625,-0.2365783154964447,-0.6464138031005859,0.4607112407684326
1772701677702120200,2.5931201171875,-0.2776021957397461,-0.6129027009010315,0.43899235129356384
1772701677712168200,2.603168212890625,-0.30500054359436035,-0.5269244313240051,0.4120558202266693
1772701677722216200,2.61321630859375,-0.3168604075908661,-0.40482908487319946,0.37956419587135315
1772701677732265200,2.62326513671875,-0.3210271894931793,-0.2771449089050293,0.33927589654922485
1772701677742313200,2.633313232421875,-0.30970317125320435,-0.15609382092952728,0.30107444524765015
1772701677752361000,2.64336083984375,-0.29549360275268555,-0.06004812568426132,0.2592785954475403
1772701677762409200,2.6534091796875,-0.28786203265190125,0.006467514205724001,0.215589702129364
1772701677772457200,2.663457275390625,-0.27088895440101624,0.056386496871709824,0.17898263037204742
1772701677782505000,2.6735048828125,-0.2616448700428009,0.08795294165611267,0.15009185671806335
1772701677792553200,2.68355322265625,-0.2586730420589447,0.10768898576498032,0.13013607263565063
1772701677802601200,2.693601318359375,-0.2641066908836365,0.1295468807220459,0.12404967099428177
1772701677812649200,2.703649169921875,-0.264671266078949,0.14183734357357025,0.12708927690982819
1772701677822697200,2.713697265625,-0.2631535530090332,0.13912838697433472,0.13116417825222015
1772701677832745000,2.723744873046875,-0.2610056698322296,0.12709125876426697,0.1404021978378296
1772701677842794200,2.733794189453125,-0.2644461989402771,0.10622325539588928,0.1469985842704773
1772701677852842000,2.743842041015625,-0.26849445700645447,0.08118020743131638,0.16356198489665985
1772701677862890200,2.75389013671875,-0.28142303228378296,0.05427802354097366,0.17964720726013184
1772701677872938200,2.763938232421875,-0.29612240195274353,0.02923942729830742,0.19809700548648834
1772701677882986000,2.773986083984375,-0.31326037645339966,0.006584448739886284,0.222499817609787
1772701677893034200,2.7840341796875,-0.3325141966342926,-0.02022414468228817,0.2580644190311432
1772701677903082200,2.794082275390625,-0.35340404510498047,-0.05135543271899223,0.2959228456020355
1772701677913130000,2.8041298828125,-0.3826303482055664,-0.08714740723371506,0.329500287771225
1772701677923178200,2.81417822265625,-0.4092707633972168,-0.11990721523761749,0.35813459753990173
1772701677933226000,2.82422607421875,-0.43298789858818054,-0.1515786349773407,0.3797891139984131
1772701677943275300,2.834275146484375,-0.45276933908462524,-0.17976126074790955,0.38686859607696533
1772701677953323000,2.844322998046875,-0.47552385926246643,-0.19265033304691315,0.39443376660346985
1772701677963371000,2.85437109375,-0.49040189385414124,-0.1917528510093689,0.38850611448287964
1772701677973419300,2.864419189453125,-0.5110935568809509,-0.16729946434497833,0.371521532535553
1772701677983467000,2.874467041015625,-0.5219688415527344,-0.1366312950849533,0.3548900783061981
1772701677993515300,2.884515380859375,-0.5290285348892212,-0.10598292201757431,0.3470843434333801
1772701678003563300,2.894563232421875,-0.5360773801803589,-0.0778261125087738,0.354160875082016
1772701678013611000,2.904611083984375,-0.5379478335380554,-0.04700607806444168,0.36048272252082825
1772701678023659300,2.9146591796875,-0.5410613417625427,-0.005643721669912338,0.3665722906589508
1772701678033707300,2.924707275390625,-0.5468542575836182,0.010834586806595325,0.3623266816139221
1772701678043756300,2.93475634765625,-0.5543838143348694,0.008100053295493126,0.35905447602272034
1772701678053804000,2.944803955078125,-0.574512779712677,0.002874282654374838,0.3676221966743469
1772701678063852000,2.95485205078125,-0.5918246507644653,0.0006225793622434139,0.396796315908432
1772701678073900300,2.964900390625,-0.5995978713035583,0.010950956493616104,0.42608049511909485
1772701678083948000,2.974947998046875,-0.6090608835220337,0.003773204516619444,0.42299309372901917
1772701678093996000,2.98499609375,-0.6098777055740356,-0.08779902011156082,0.385304719209671
1772701678104044300,2.995044189453125,-0.6198147535324097,-0.17519916594028473,0.35305994749069214
1772701678114092000,3.005092041015625,-0.6628226637840271,-0.1600874662399292,0.3808828592300415
1772701678124140300,3.015140380859375,-0.7091488838195801,-0.06732398271560669,0.44853702187538147
1772701678134188300,3.025188232421875,-0.7351522445678711,0.05458444356918335,0.5194593071937561
1772701678144237000,3.035237060546875,-0.7302650809288025,0.16136521100997925,0.5544961094856262
1772701678154285300,3.045285400390625,-0.7195926904678345,0.2175816148519516,0.5779495239257812
1772701678164333300,3.055333251953125,-0.6482977271080017,0.195865660905838,0.5862732529640198
1772701678174381600,3.065381591796875,-0.5507559776306152,0.06092717498540878,0.5994407534599304
1772701678184429300,3.07542919921875,-0.5109230875968933,-0.07392730563879013,0.6067993640899658
1772701678194477600,3.0854775390625,-0.5360873937606812,-0.1784307360649109,0.5591318011283875
1772701678204525600,3.095525634765625,-0.5829092264175415,-0.21243131160736084,0.4475049376487732
1772701678214573300,3.1055732421875,-0.6243534684181213,-0.16083845496177673,0.29909923672676086
1772701678224621600,3.11562158203125,-0.627447783946991,-0.01658807508647442,0.17921116948127747
1772701678234669600,3.125669677734375,-0.5900256037712097,0.24967443943023682,0.12122504413127899
1772701678244718600,3.135718505859375,-0.5548532605171204,0.5132245421409607,0.1584099680185318
1772701678254766600,3.1457666015625,-0.582297146320343,0.6325444579124451,0.2674800753593445
1772701678264814300,3.155814453125,-0.6109839677810669,0.646886944770813,0.41545143723487854
1772701678274862600,3.165862548828125,-0.5752413868904114,0.5642632842063904,0.5765702128410339
1772701678284910300,3.175910400390625,-0.5357088446617126,0.4545386731624603,0.7189755439758301
1772701678294958300,3.185958251953125,-0.5088180899620056,0.3518870770931244,0.8019227981567383
1772701678305006600,3.196006591796875,-0.4790031909942627,0.1632383018732071,0.8290632963180542
1772701678315054300,3.206054443359375,-0.4535459876060486,-0.055172089487314224,0.8047494292259216
1772701678325102300,3.216102294921875,-0.4512269198894501,-0.26026320457458496,0.7183788418769836
1772701678335150600,3.226150634765625,-0.4770336151123047,-0.40602415800094604,0.5655876398086548
1772701678345199400,3.236199462890625,-0.4999147057533264,-0.4731781482696533,0.36264893412590027
1772701678355247600,3.24624755859375,-0.513707160949707,-0.44667908549308777,0.13992150127887726
1772701678365295400,3.25629541015625,-0.5022347569465637,-0.36623191833496094,-0.06181880459189415
1772701678375343400,3.26634326171875,-0.4813438951969147,-0.2889518737792969,-0.20374618470668793
1772701678385391400,3.276391357421875,-0.46077361702919006,-0.22137098014354706,-0.2863611876964569
1772701678395439400,3.286439453125,-0.4345953166484833,-0.15790463984012604,-0.30605363845825195
1772701678405487600,3.296487548828125,-0.4032882750034332,-0.08365917205810547,-0.2926619350910187
1772701678415535400,3.306535400390625,-0.3816213011741638,-0.037706997245550156,-0.2424016296863556
1772701678425583400,3.316583251953125,-0.3591143786907196,-0.012573681771755219,-0.1597786545753479
1772701678435631600,3.326631591796875,-0.3519081771373749,-0.03133418411016464,-0.08027883619070053
1772701678445679400,3.336679443359375,-0.3534061908721924,-0.06375017762184143,-0.0012149097165092826
1772701678455728600,3.346728759765625,-0.3470332622528076,-0.11804894357919693,0.07310400158166885
1772701678465776400,3.3567763671875,-0.32819727063179016,-0.18591240048408508,0.13180726766586304
1772701678475824400,3.366824462890625,-0.29229459166526794,-0.19205184280872345,0.184060737490654
1772701678485872400,3.376872314453125,-0.2623122036457062,-0.1195419654250145,0.18931461870670319
1772701678495920400,3.38692041015625,-0.22943224012851715,0.006217929068952799,0.1926267147064209
1772701678505968400,3.396968505859375,-0.23320381343364716,0.21279267966747284,0.18962188065052032
1772701678516016400,3.407016357421875,-0.23817302286624908,0.4550042450428009,0.19021709263324738
1772701678526064400,3.417064453125,-0.18700970709323883,0.6573312878608704,0.17590101063251495
1772701678536112600,3.427112548828125,-0.10103121399879456,0.7744407653808594,0.16088351607322693
1772701678546161400,3.437161376953125,-0.013022259809076786,0.8277615308761597,0.17120592296123505
1772701678556209400,3.44720947265625,0.05314669385552406,0.8213951587677002,0.1917177140712738
1772701678566257400,3.45725732421875,0.08160550147294998,0.7513758540153503,0.22222796082496643
1772701678576305400,3.467305419921875,0.10113096982240677,0.6296538710594177,0.2735997438430786
1772701678586353700,3.477353759765625,0.09847366809844971,0.46045953035354614,0.3321722447872162
1772701678596401400,3.4874013671875,0.09749680757522583,0.2938785254955292,0.36551034450531006
1772701678606449400,3.497449462890625,0.10790790617465973,0.14514099061489105,0.36847418546676636
1772701678616497400,3.507497314453125,0.11677951365709305,0.012193642556667328,0.324136883020401
1772701678626545400,3.51754541015625,0.13407595455646515,-0.10992933809757233,0.2336093783378601
1772701678636593400,3.527593505859375,0.1539716273546219,-0.21244145929813385,0.14477570354938507
1772701678646641400,3.537641357421875,0.17141267657279968,-0.2758265733718872,0.05127078294754028
1772701678656690400,3.5476904296875,0.18523739278316498,-0.30133765935897827,-0.02661196142435074
1772701678666738400,3.557738525390625,0.19342048466205597,-0.29171085357666016,-0.08521375805139542
1772701678676786400,3.567786376953125,0.19365563988685608,-0.24331706762313843,-0.1489924043416977
1772701678686834400,3.57783447265625,0.1945456713438034,-0.1748080551624298,-0.22197100520133972
1772701678696882400,3.58788232421875,0.1952446848154068,-0.07966044545173645,-0.30280789732933044
1772701678706930400,3.597930419921875,0.1954478770494461,0.026295548304915428,-0.3773311376571655
1772701678716978400,3.607978515625,0.19400554895401,0.1391080915927887,-0.4446922242641449
1772701678727026400,3.6180263671875,0.19360128045082092,0.241335928440094,-0.49079740047454834
1772701678737074400,3.628074462890625,0.1896779090166092,0.3282836079597473,-0.5193776488304138
1772701678747123500,3.63812353515625,0.18383707106113434,0.4030369222164154,-0.519823431968689
1772701678757171500,3.64817138671875,0.1726275533437729,0.47150465846061707,-0.4846801161766052
1772701678767219500,3.658219482421875,0.15856046974658966,0.525858461856842,-0.4293902516365051
1772701678777267500,3.668267333984375,0.13315948843955994,0.5589504241943359,-0.36620232462882996
1772701678787315500,3.6783154296875,0.10685945302248001,0.5679702758789062,-0.3071901500225067
1772701678797363500,3.688363525390625,0.09030555188655853,0.5484280586242676,-0.2473563253879547
1772701678807411500,3.698411376953125,0.0904000923037529,0.4916260242462158,-0.19636371731758118
1772701678817459500,3.70845947265625,0.10499127954244614,0.41037726402282715,-0.16301840543746948
1772701678827507500,3.718507568359375,0.1374160647392273,0.3329266905784607,-0.1416769027709961
1772701678837555500,3.728555419921875,0.16831938922405243,0.2909764349460602,-0.16234256327152252
1772701678847604500,3.7386044921875,0.21759319305419922,0.27788060903549194,-0.20677074790000916
1772701678857652500,3.748652587890625,0.25900211930274963,0.2638494670391083,-0.26369234919548035
1772701678867700200,3.7587001953125,0.29674017429351807,0.25281545519828796,-0.32527396082878113
1772701678877748500,3.76874853515625,0.3240077495574951,0.26439169049263,-0.3802618384361267
1772701678887796500,3.77879638671875,0.33851638436317444,0.2944848835468292,-0.42908796668052673
1772701678897844500,3.788844482421875,0.35729995369911194,0.34489116072654724,-0.47588977217674255
1772701678907892500,3.798892578125,0.3835448920726776,0.375282347202301,-0.5308220386505127
1772701678917940500,3.8089404296875,0.4162748157978058,0.36886516213417053,-0.5931554436683655
1772701678927988500,3.818988525390625,0.46019139885902405,0.3473169803619385,-0.6593542098999023
1772701678938036500,3.829036376953125,0.5191847681999207,0.2806383967399597,-0.7064679861068726
1772701678948085500,3.83908544921875,0.5774560570716858,0.19033914804458618,-0.7144859433174133
1772701678958133500,3.849133544921875,0.6295756697654724,0.06773508340120316,-0.6759228110313416
1772701678968181200,3.85918115234375,0.6730600595474243,-0.06732553243637085,-0.6132751107215881
1772701678978229500,3.8692294921875,0.7119504809379578,-0.20604750514030457,-0.5337178111076355
1772701678988277500,3.879277587890625,0.7427470088005066,-0.30877625942230225,-0.45987239480018616
1772701678998325200,3.8893251953125,0.7661163210868835,-0.36426377296447754,-0.4138597548007965
1772701679008373500,3.89937353515625,0.7808952331542969,-0.3866891860961914,-0.3974094092845917
1772701679018421500,3.90942138671875,0.7746617794036865,-0.4014836847782135,-0.4112115800380707
1772701679028469200,3.91946923828125,0.7558479309082031,-0.4170128405094147,-0.4363078773021698
1772701679038518500,3.9295185546875,0.7267661690711975,-0.4309372007846832,-0.45585203170776367
1772701679048566300,3.939566162109375,0.6938620209693909,-0.4414215385913849,-0.4616912603378296
1772701679058614500,3.949614501953125,0.6686171293258667,-0.43788284063339233,-0.47193729877471924
1772701679068662500,3.95966259765625,0.65043705701828,-0.4333847463130951,-0.4798277020454407
1772701679078710500,3.96971044921875,0.6327149868011475,-0.42353877425193787,-0.4884013533592224
1772701679088758500,3.979758544921875,0.619586706161499,-0.40885037183761597,-0.5086570978164673
1772701679098806300,3.98980615234375,0.6050088405609131,-0.41995111107826233,-0.5537145733833313
1772701679108854500,3.9998544921875,0.5948044061660767,-0.5688729882240295,-0.575779914855957
1772701679118902500,4.009902587890625,0.5550628304481506,-0.6134528517723083,-0.4724952280521393
1772701679128950300,4.0199501953125,0.49735426902770996,-0.5564576983451843,-0.3361986577510834
1772701679138999600,4.02999951171875,0.4618048071861267,-0.4868065416812897,-0.23593096435070038
1772701679149047300,4.04004736328125,0.4527548551559448,-0.36643698811531067,-0.16932424902915955
1772701679159095300,4.05009521484375,0.45611175894737244,-0.23431985080242157,-0.16155053675174713
1772701679169143300,4.060143310546875,0.46517130732536316,-0.1748482584953308,-0.23654301464557648
1772701679179191000,4.07019091796875,0.444112628698349,-0.12488856166601181,-0.34193143248558044
1772701679189239300,4.0802392578125,0.40428292751312256,-0.116002656519413,-0.42969563603401184
1772701679199287300,4.090287353515625,0.39347556233406067,-0.19028782844543457,-0.4806312620639801
1772701679209335000,4.1003349609375,0.4165624976158142,-0.34743618965148926,-0.4576551020145416
1772701679219383300,4.11038330078125,0.414141446352005,-0.5445469617843628,-0.353378564119339
1772701679229431000,4.12043115234375,0.382012277841568,-0.7415176033973694,-0.2248147428035736
1772701679239480300,4.130480224609375,0.380328893661499,-0.8795403838157654,-0.13798290491104126
1772701679249528000,4.140528076171875,0.4095786511898041,-0.9623173475265503,-0.10720980912446976
1772701679259576000,4.150576171875,0.4225740432739258,-0.9881391525268555,-0.09774152934551239
1772701679269624300,4.160624267578125,0.4234451651573181,-0.9421865940093994,-0.08120596408843994
1772701679279672000,4.170672119140625,0.4199519455432892,-0.876840353012085,-0.06737831234931946
1772701679289720300,4.18072021484375,0.423926442861557,-0.8253675699234009,-0.06080322712659836
1772701679299768300,4.190768310546875,0.4266134798526764,-0.8013266324996948,-0.06216701492667198
1772701679309816000,4.200816162109375,0.4122273623943329,-0.7484293580055237,-0.05246325954794884
1772701679319864300,4.2108642578125,0.38014674186706543,-0.6539686918258667,-0.036619991064071655
1772701679329913000,4.2209130859375,0.32031774520874023,-0.5408919453620911,-0.034208234399557114
1772701679339961300,4.23096142578125,0.2600090801715851,-0.4105340242385864,-0.0427398607134819
1772701679350009000,4.241009033203125,0.238311767578125,-0.2790050208568573,-0.07877615839242935
1772701679360057000,4.25105712890625,0.265264093875885,-0.14929258823394775,-0.12518374621868134
1772701679370105300,4.261105224609375,0.29941806197166443,-0.023098979145288467,-0.1894034743309021
1772701679380153000,4.271153076171875,0.33008432388305664,0.13016995787620544,-0.25748878717422485
1772701679390201000,4.281201171875,0.37034517526626587,0.30285945534706116,-0.32469844818115234
1772701679400249300,4.291249267578125,0.39939096570014954,0.45657241344451904,-0.3754726052284241
1772701679410297000,4.301297119140625,0.42526063323020935,0.5721299052238464,-0.38638409972190857
1772701679420345300,4.311345458984375,0.4357375502586365,0.633994996547699,-0.36531779170036316
1772701679430394000,4.32139404296875,0.4013846516609192,0.6625467538833618,-0.28869515657424927
1772701679440442000,4.331442138671875,0.3299453556537628,0.6636090874671936,-0.15797059237957
1772701679450490000,4.341489990234375,0.1843990683555603,0.529473066329956,-0.020585298538208008
1772701679460538000,4.3515380859375,-0.015334071591496468,0.2508268654346466,0.11966037005186081
1772701679470586400,4.36158642578125,-0.1443900465965271,-0.009219350293278694,0.27998611330986023
1772701679480634000,4.371634033203125,-0.20897327363491058,-0.14965836703777313,0.4502154588699341
1772701679490682000,4.38168212890625,-0.2287272810935974,-0.2094079852104187,0.5847556591033936
1772701679500730400,4.39173046875,-0.23675541579723358,-0.23535487055778503,0.6799697875976562
1772701679510778000,4.401778076171875,-0.25270670652389526,-0.24476249516010284,0.7427557110786438
1772701679520827400,4.411827392578125,-0.294284462928772,-0.2400686889886856,0.772747278213501
1772701679530875100,4.421875244140625,-0.34543099999427795,-0.19582052528858185,0.7701797485351562
1772701679540923100,4.431923095703125,-0.39009520411491394,-0.11287342756986618,0.7367920875549316
1772701679550971400,4.441971435546875,-0.4544411599636078,0.09202645719051361,0.6568322777748108
1772701679561019100,4.45201904296875,-0.5117989778518677,0.290351927280426,0.5743146538734436
1772701679571067100,4.462067138671875,-0.5137515664100647,0.38277584314346313,0.5485184788703918
1772701679581115100,4.472115234375,-0.4947883188724518,0.4556441009044647,0.5420525670051575
1772701679591163100,4.4821630859375,-0.47538185119628906,0.5177066922187805,0.5315176248550415
1772701679601211400,4.49221142578125,-0.4578441083431244,0.5367735624313354,0.5161261558532715
1772701679611259100,4.502259033203125,-0.42763054370880127,0.5311023592948914,0.5073196291923523
1772701679621308200,4.51230810546875,-0.39711764454841614,0.5123723149299622,0.5164045691490173
1772701679631356200,4.522356201171875,-0.3759066164493561,0.4976455569267273,0.5325403809547424
1772701679641404200,4.532404052734375,-0.36789098381996155,0.4991615414619446,0.541927695274353
1772701679651452400,4.542452392578125,-0.3796778917312622,0.5055113434791565,0.5341603755950928
1772701679661500200,4.552500244140625,-0.3950193226337433,0.5222857594490051,0.48682811856269836
1772701679671548200,4.562548095703125,-0.4196021854877472,0.5558056235313416,0.4236568808555603
1772701679681596200,4.57259619140625,-0.4596952199935913,0.5552952885627747,0.3587823212146759
1772701679691644200,4.58264404296875,-0.48606982827186584,0.5015944838523865,0.3431423604488373
1772701679701692200,4.592692138671875,-0.5063626170158386,0.4452798068523407,0.3701862394809723
1772701679711741200,4.6027412109375,-0.5271514654159546,0.38887298107147217,0.4171462953090668
1772701679721789200,4.6127890625,-0.5543330907821655,0.3414294719696045,0.45886120200157166
1772701679731837200,4.622837158203125,-0.5628272294998169,0.2770653963088989,0.5033964514732361
1772701679741885200,4.63288525390625,-0.5509754419326782,0.21542027592658997,0.53913414478302
1772701679751933200,4.64293310546875,-0.5091930627822876,0.1640463024377823,0.5574444532394409
1772701679761981200,4.652981201171875,-0.44059720635414124,0.20680959522724152,0.5634323358535767
1772701679772029200,4.663029296875,-0.3571294844150543,0.4689013957977295,0.629235565662384
1772701679782077200,4.6730771484375,-0.25392794609069824,0.5583062171936035,0.7135810256004333
1772701679792125200,4.683125244140625,-0.09395293891429901,0.5660139322280884,0.8118263483047485
1772701679802174200,4.69317431640625,0.05775754153728485,0.566858172416687,0.857567310333252
1772701679812222200,4.70322216796875,0.15557171404361725,0.6052294969558716,0.8334521651268005
1772701679822270200,4.713270263671875,0.17794252932071686,0.6967968344688416,0.7799338698387146
1772701679832318200,4.723318115234375,0.14152193069458008,0.7578586339950562,0.7434312701225281
1772701679842366200,4.7333662109375,0.06331393122673035,0.7436305284500122,0.7553780674934387
1772701679852414200,4.743414306640625,-0.07363832741975784,0.6149468421936035,0.8194938898086548
1772701679862462200,4.753462158203125,-0.21795663237571716,0.40351012349128723,0.8918218016624451
1772701679872510200,4.76351025390625,-0.36222192645072937,0.051018912345170975,0.9342433214187622
1772701679882558200,4.77355810546875,-0.4923556447029114,-0.22585852444171906,0.9425097703933716
1772701679892606200,4.783606201171875,-0.6055000424385071,-0.40022018551826477,0.909914493560791
1772701679902655200,4.7936552734375,-0.6199005842208862,-0.48030954599380493,0.8439494371414185
1772701679912703200,4.803703125,-0.5250318646430969,-0.4650120735168457,0.7752931118011475
1772701679922751200,4.813751220703125,-0.31641635298728943,-0.39565327763557434,0.7119535803794861
1772701679932799000,4.823799072265625,-0.1355789303779602,-0.2803061604499817,0.7133533358573914
1772701679942847200,4.83384716796875,-0.09758437424898148,-0.1843801885843277,0.8058731555938721
1772701679952895200,4.843895263671875,-0.13974007964134216,-0.3491124212741852,0.9275628328323364
1772701679962943000,4.85394287109375,-0.1980322152376175,-0.5940771102905273,1.0075403451919556
1772701679972991200,4.8639912109375,-0.22304195165634155,-0.7920721769332886,1.0263712406158447
1772701679983039200,4.874039306640625,-0.25439080595970154,-0.8831861615180969,0.9888150095939636
1772701679993088300,4.884088134765625,-0.3355639576911926,-0.8664727210998535,0.9140174388885498
1772701680003136300,4.89413623046875,-0.4869958460330963,-0.7615320682525635,0.818117082118988
1772701680013184300,4.904184326171875,-0.7234891057014465,-0.724963903427124,0.7218664288520813
1772701680023232300,4.914232177734375,-0.8465640544891357,-0.6095638275146484,0.6477449536323547
1772701680033280300,4.9242802734375,-0.8148996233940125,-0.5045524835586548,0.586976945400238
1772701680043328300,4.934328369140625,-0.7048333883285522,-0.4501051604747772,0.5389683842658997
1772701680053376300,4.944376220703125,-0.6200620532035828,-0.4052673876285553,0.5134278535842896
1772701680063424000,4.954424072265625,-0.5600268840789795,-0.3114076256752014,0.49323081970214844
1772701680073472300,4.96447216796875,-0.48453906178474426,-0.14504098892211914,0.46067580580711365
1772701680083521000,4.97452099609375,-0.40561631321907043,0.00003233365714550018,0.4236679971218109
1772701680093569300,4.9845693359375,-0.32755613327026367,0.09816475957632065,0.3906511962413788
1772701680103617300,4.9946171875,-0.3043633997440338,0.128126859664917,0.37338536977767944
1772701680113665000,5.0046650390625,-0.35473576188087463,0.010714747942984104,0.4242837131023407
1772701680123713300,5.01471337890625,-0.4316284656524658,-0.18936875462532043,0.5087582468986511
1772701680133761300,5.02476123046875,-0.42252472043037415,-0.35894209146499634,0.5634973645210266
1772701680143809000,5.03480908203125,-0.32572782039642334,-0.44930756092071533,0.5653030276298523
1772701680153857300,5.044857177734375,-0.2059742510318756,-0.46701544523239136,0.5268872380256653
1772701680163905300,5.0549052734375,-0.1463434249162674,-0.3992912769317627,0.4395069181919098
1772701680173954300,5.064954345703125,-0.1657208502292633,-0.35877713561058044,0.3377811014652252
1772701680184002000,5.075001953125,-0.21389025449752808,-0.34311240911483765,0.2621198892593384
1772701680194050300,5.08505029296875,-0.24412645399570465,-0.3003827929496765,0.17976084351539612
1772701680204098300,5.095098388671875,-0.27123957872390747,-0.205668643116951,0.10455670207738876
1772701680214146300,5.105146240234375,-0.23565389215946198,0.03187519311904907,0.018352312967181206
1772701680224194300,5.1151943359375,-0.18860375881195068,0.3231123089790344,-0.05574734881520271
1772701680234242300,5.1252421875,-0.1490294486284256,0.5310282111167908,-0.11082551628351212
1772701680244290300,5.135290283203125,-0.1596083641052246,0.6758887767791748,-0.19671978056430817
1772701680254338300,5.14533837890625,-0.19626331329345703,0.6981813311576843,-0.30110451579093933
1772701680264387300,5.15538720703125,-0.17977730929851532,0.508809506893158,-0.4040776193141937
1772701680274435300,5.165435302734375,-0.07615745067596436,0.2502610683441162,-0.4878774583339691
1772701680284483000,5.175483154296875,0.06551721692085266,0.11376588046550751,-0.5495874881744385
1772701680294531300,5.18553125,0.16540120542049408,0.0682162418961525,-0.5978226661682129
1772701680304579300,5.195579345703125,0.1908186972141266,0.04097462072968483,-0.6597605347633362
1772701680314627000,5.205626953125,0.21487556397914886,0.03279871866106987,-0.7032486200332642
1772701680324675300,5.21567529296875,0.2517233192920685,0.06523548811674118,-0.7069883346557617
1772701680334723300,5.225723388671875,0.29726630449295044,0.10988950729370117,-0.6648315787315369
1772701680344771300,5.235771240234375,0.33414730429649353,0.17575789988040924,-0.6087177991867065
1772701680354820400,5.2458203125,0.36822882294654846,0.15961489081382751,-0.5738738179206848
1772701680364868000,5.2558681640625,0.39950019121170044,0.0987575352191925,-0.5845041275024414
1772701680374916400,5.265916259765625,0.4222766160964966,0.0821780264377594,-0.6194085478782654
1772701680384964400,5.27596435546875,0.42316803336143494,0.07390835881233215,-0.6613485813140869
1772701680395012400,5.286012451171875,0.4131295084953308,0.056571703404188156,-0.6915613412857056
1772701680405060400,5.296060302734375,0.40146636962890625,0.04998856037855148,-0.7037690281867981
1772701680415108000,5.306108154296875,0.4046221971511841,0.024554040282964706,-0.7041671872138977
1772701680425156400,5.31615625,0.4151073694229126,0.023021241649985313,-0.7030560970306396
1772701680435204400,5.326204345703125,0.40817490220069885,0.06619401276111603,-0.7122407555580139
1772701680445252000,5.336252197265625,0.39412620663642883,0.14438572525978088,-0.7124975323677063
1772701680455301400,5.34630126953125,0.3814530372619629,0.23133181035518646,-0.6933528780937195
1772701680465349000,5.35634912109375,0.36856916546821594,0.32126861810684204,-0.6609341502189636
1772701680475397400,5.3663974609375,0.35025355219841003,0.36846810579299927,-0.6295637488365173
1772701680485445400,5.3764453125,0.34184467792510986,0.35553112626075745,-0.6181163787841797
1772701680495493000,5.3864931640625,0.3426060676574707,0.3470050096511841,-0.6284337043762207
1772701680505541400,5.396541259765625,0.35574471950531006,0.37949827313423157,-0.662150502204895
1772701680515589000,5.406589111328125,0.3749453127384186,0.4234870374202728,-0.731860339641571
1772701680525637400,5.416637451171875,0.41677138209342957,0.431295245885849,-0.8359493017196655
1772701680535685400,5.426685302734375,0.4606560170650482,0.3797343075275421,-0.9510710835456848
1772701680545734100,5.436734130859375,0.5105909705162048,0.26671794056892395,-1.054573893547058
1772701680555782400,5.446782470703125,0.5579995512962341,0.1322578340768814,-1.1338441371917725
1772701680565830100,5.456830078125,0.5827270150184631,0.03547803685069084,-1.169493317604065
1772701680575878400,5.46687841796875,0.5809658765792847,0.015713118016719818,-1.163041353225708
1772701680585926400,5.476926513671875,0.5878925323486328,-0.015941498801112175,-1.1077238321304321
1772701680595974100,5.48697412109375,0.5851561427116394,-0.06139073893427849,-1.039741039276123
1772701680606022400,5.4970224609375,0.5998138189315796,-0.165432408452034,-0.9551275372505188
1772701680616070100,5.507070068359375,0.632510781288147,-0.30645638704299927,-0.8778223991394043
1772701680626118100,5.5171181640625,0.6742034554481506,-0.44181743264198303,-0.8278064727783203
1772701680636167200,5.527167236328125,0.7153306603431702,-0.543620228767395,-0.82417893409729
1772701680646215200,5.537215087890625,0.7605465650558472,-0.5919623374938965,-0.8990169167518616
1772701680656263400,5.547263427734375,0.8181877732276917,-0.6125770807266235,-1.0056432485580444
1772701680666311200,5.557311279296875,0.9299464821815491,-0.6832797527313232,-1.0183000564575195
1772701680676359200,5.567359130859375,0.898264467716217,-0.6726742386817932,-0.9462612271308899
1772701680686407400,5.577407470703125,0.6903528571128845,-0.6272115111351013,-0.8309837579727173
1772701680696455200,5.587455078125,0.4395134449005127,-0.5831580758094788,-0.740447461605072
1772701680706503400,5.59750341796875,0.30911362171173096,-0.5029497742652893,-0.6908503770828247
1772701680716551400,5.607551513671875,0.3000788390636444,-0.3674963414669037,-0.6939902305603027
1772701680726600200,5.61760009765625,0.3542430102825165,-0.27161842584609985,-0.7345787286758423
1772701680736648400,5.6276484375,0.44708719849586487,-0.20632010698318481,-0.789969801902771
1772701680746696200,5.6376962890625,0.569076418876648,-0.08792658895254135,-0.8341189026832581
1772701680756744400,5.647744384765625,0.7032917737960815,0.1138150542974472,-0.8978736400604248
1772701680766792200,5.657792236328125,0.7959466576576233,0.3406343162059784,-0.999107837677002
1772701680776840200,5.667840087890625,0.86053866147995,0.5070275664329529,-1.1035211086273193
1772701680786888400,5.677888427734375,0.911544919013977,0.570128858089447,-1.1437628269195557
1772701680796936200,5.687936279296875,0.9239168763160706,0.5257834792137146,-1.0832902193069458
1772701680806985500,5.6979853515625,0.9055125117301941,0.3459729254245758,-0.9258013963699341
1772701680817033200,5.708033203125,0.8476148843765259,0.10515499114990234,-0.7262504696846008
1772701680827081200,5.718081298828125,0.7379429936408997,-0.15099133551120758,-0.5460762977600098
1772701680837129500,5.72812939453125,0.6259927153587341,-0.4204518496990204,-0.4263957440853119
1772701680847177200,5.73817724609375,0.5554277896881104,-0.668033242225647,-0.39289242029190063
1772701680857225200,5.74822509765625,0.5057891011238098,-0.8026618957519531,-0.4157194495201111
1772701680867273200,5.758273193359375,0.4793931543827057,-0.8232091069221497,-0.4481157958507538
1772701680877321200,5.7683212890625,0.4787084460258484,-0.7404050230979919,-0.4410618841648102
1772701680887369200,5.778369140625,0.4862249791622162,-0.572087824344635,-0.3952415883541107
1772701680897418200,5.788418212890625,0.48838719725608826,-0.2823963463306427,-0.3727160394191742
1772701680907466200,5.79846630859375,0.4821644425392151,0.07133950293064117,-0.3907186686992645
1772701680917514200,5.80851416015625,0.48563694953918457,0.39652690291404724,-0.4304887354373932
1772701680927562200,5.818562255859375,0.5002574324607849,0.6188458800315857,-0.4639340937137604
1772701680937610500,5.828610595703125,0.5288683176040649,0.7407171726226807,-0.489027738571167
1772701680947658200,5.838658203125,0.5505746603012085,0.8147153854370117,-0.5008918046951294
1772701680957706200,5.848706298828125,0.5753790736198425,0.7993039488792419,-0.5084314346313477
1772701680967754200,5.858754150390625,0.6082504987716675,0.6967562437057495,-0.5171666145324707
1772701680977803300,5.86880322265625,0.6381196975708008,0.5393261313438416,-0.4979700446128845
1772701680987851300,5.878851318359375,0.6560744047164917,0.43361636996269226,-0.4348655641078949
1772701680997899300,5.888899169921875,0.6445264220237732,0.3676477372646332,-0.32051023840904236
1772701681007947300,5.898947265625,0.5886741876602173,0.29487788677215576,-0.1709831953048706
1772701681017995300,5.908995361328125,0.4604291021823883,0.18127675354480743,-0.047270309180021286
1772701681028043300,5.919043212890625,0.30331405997276306,0.000851193442940712,0.038086067885160446
1772701681038091300,5.92909130859375,0.2074602097272873,-0.18022805452346802,0.08524345606565475
1772701681048139300,5.93913916015625,0.1790783405303955,-0.2866874933242798,0.09834135323762894
1772701681058187300,5.949187255859375,0.16872717440128326,-0.3047828674316406,0.06748516857624054
1772701681068236300,5.959236328125,0.14183758199214935,-0.23273228108882904,-0.005879659671336412
1772701681078284300,5.9692841796875,0.11221469938755035,-0.121589794754982,-0.06512753665447235
1772701681088332300,5.979332275390625,0.07293039560317993,-0.02544034644961357,-0.09802929311990738
1772701681098380300,5.98938037109375,0.031789083033800125,0.04528548941016197,-0.08298563212156296
1772701681108428300,5.99942822265625,0.011722372844815254,0.12686359882354736,-0.06468445062637329
1772701681118476300,6.009476318359375,0.023002989590168,0.19605225324630737,-0.04061640053987503
1772701681128524300,6.019524169921875,0.034313980489969254,0.22759565711021423,-0.03060431219637394
1772701681138572300,6.029572265625,0.03184789419174194,0.20692633092403412,-0.029192572459578514
1772701681148620300,6.039620361328125,0.01858621835708618,0.1647433042526245,-0.038388002663850784
1772701681158669800,6.049669921875,-0.0015110606327652931,0.11011814326047897,-0.04551808163523674
1772701681168718000,6.059718017578125,-0.016839735209941864,0.05081409588456154,-0.04419555515050888
1772701681178766000,6.06976611328125,-0.022020116448402405,-0.00962900836020708,-0.017270199954509735
1772701681188813800,6.079813720703125,-0.04238578677177429,-0.027236392721533775,0.011650731787085533
1772701681198862000,6.089862060546875,-0.06466392427682877,-0.011697914451360703,0.05018826946616173
1772701681208910000,6.09991015625,-0.10349736362695694,0.009691938757896423,0.1046338677406311
1772701681218958000,6.1099580078125,-0.14460326731204987,0.004902510438114405,0.19187183678150177
1772701681229006000,6.120006103515625,-0.17648310959339142,-0.03576091304421425,0.294366717338562
1772701681239054800,6.130054931640625,-0.19768373668193817,-0.09457789361476898,0.39916396141052246
1772701681249103000,6.14010302734375,-0.24632352590560913,-0.17712880671024323,0.5006647109985352
1772701681259151000,6.150151123046875,-0.3002285659313202,-0.25533705949783325,0.5791006684303284
1772701681269199000,6.16019921875,-0.35379722714424133,-0.3245166540145874,0.6235674619674683
1772701681279247000,6.1702470703125,-0.4215483069419861,-0.3871379494667053,0.625903844833374
1772701681289294800,6.180294921875,-0.4965357482433319,-0.4375787675380707,0.5940961241722107
1772701681299343000,6.190343017578125,-0.5707798600196838,-0.47659727931022644,0.5363638401031494
1772701681309391000,6.20039111328125,-0.6298592686653137,-0.48340079188346863,0.4805358648300171
1772701681319438800,6.21043896484375,-0.6713681221008301,-0.44920313358306885,0.4392419457435608
1772701681329488100,6.220488037109375,-0.7138699293136597,-0.414136677980423,0.4258941113948822
1772701681339536000,6.230535888671875,-0.7576048970222473,-0.40036946535110474,0.44657808542251587
1772701681349584100,6.240584228515625,-0.7982692122459412,-0.3944600522518158,0.4862564504146576
1772701681359632100,6.250632080078125,-0.8500376343727112,-0.4116195738315582,0.5299533605575562
1772701681369680000,6.260679931640625,-0.9103792309761047,-0.46122869849205017,0.597230076789856
1772701681379728100,6.27072802734375,-0.9916642308235168,-0.5310887694358826,0.6583546996116638
1772701681389776000,6.28077587890625,-1.0716712474822998,-0.6241592764854431,0.7117772102355957
1772701681399824100,6.29082421875,-1.1398154497146606,-0.7165541648864746,0.7613242268562317
1772701681409873000,6.300872802734375,-1.1914422512054443,-0.7848358154296875,0.800284206867218
1772701681419921000,6.3109208984375,-1.233144760131836,-0.835682213306427,0.8269714713096619
1772701681429969200,6.32096923828125,-1.2449452877044678,-0.8844043016433716,0.8516615629196167
1772701681440017000,6.331016845703125,-1.2309162616729736,-0.9239192605018616,0.8466910123825073
1772701681450065200,6.341065185546875,-1.2027091979980469,-0.9920788407325745,0.8170076608657837
1772701681460113200,6.351113037109375,-1.1718494892120361,-1.09690523147583,0.7538985013961792
1772701681470161000,6.361160888671875,-1.1387529373168945,-1.2074607610702515,0.6831613183021545
1772701681480209200,6.371209228515625,-1.1303421258926392,-1.2556262016296387,0.5982719659805298
1772701681490257200,6.381257080078125,-1.1292808055877686,-1.2110390663146973,0.5140723586082458
1772701681500306200,6.39130615234375,-1.1431059837341309,-1.08964204788208,0.44373270869255066
1772701681510354000,6.40135400390625,-1.201744556427002,-0.9321725368499756,0.41199859976768494
1772701681520402000,6.41140185546875,-1.2780786752700806,-0.7943702340126038,0.4450388550758362
1772701681530450200,6.4214501953125,-1.3262765407562256,-0.652876079082489,0.4752747118473053
1772701681540498000,6.431497802734375,-1.323262333869934,-0.5100126266479492,0.4912664592266083
1772701681550546000,6.4415458984375,-1.3159220218658447,-0.3855367600917816,0.4982573986053467
1772701681560594200,6.45159423828125,-1.331762433052063,-0.31156691908836365,0.5021783709526062
1772701681570642000,6.461641845703125,-1.3646332025527954,-0.3189038038253784,0.48096662759780884
1772701681580691200,6.471691162109375,-1.4234625101089478,-0.329545795917511,0.3649798333644867
1772701681590739000,6.481739013671875,-1.4558100700378418,-0.4557608366012573,0.2791127860546112
1772701681600787000,6.491786865234375,-1.4925154447555542,-0.6425203084945679,0.19426634907722473
1772701681610835200,6.501835205078125,-1.5490832328796387,-0.848994791507721,0.14840278029441833
1772701681620883000,6.511883056640625,-1.6145520210266113,-1.0442577600479126,0.11806059628725052
1772701681630931200,6.52193115234375,-1.6717016696929932,-1.2203301191329956,0.09366810321807861
1772701681640979000,6.53197900390625,-1.691733956336975,-1.405102014541626,0.048922739923000336
1772701681651027000,6.54202685546875,-1.6772494316101074,-1.5942072868347168,-0.024336159229278564
1772701681661075200,6.5520751953125,-1.6549290418624878,-1.6669012308120728,-0.09860799461603165
1772701681671124000,6.5621240234375,-1.613662838935852,-1.7087188959121704,-0.16747674345970154
1772701681681172200,6.572172119140625,-1.5500622987747192,-1.653624176979065,-0.22935129702091217
1772701681691220000,6.582219970703125,-1.4712097644805908,-1.5542874336242676,-0.2560434937477112
1772701681701268000,6.59226806640625,-1.3587676286697388,-1.3714617490768433,-0.25875380635261536
1772701681711316200,6.602316162109375,-1.2203948497772217,-1.0028080940246582,-0.21026723086833954
1772701681721364000,6.612364013671875,-1.1156495809555054,-0.44240573048591614,-0.09288732707500458
1772701681731412000,6.622411865234375,-1.041640281677246,0.15560197830200195,0.0487893782556057
1772701681741460000,6.6324599609375,-0.9996770620346069,0.7730060815811157,0.19790136814117432
1772701681751509000,6.642509033203125,-1.0485485792160034,1.2589753866195679,0.3628668189048767
1772701681761557000,6.652556884765625,-1.0841481685638428,1.4394935369491577,0.46002134680747986
1772701681771605000,6.66260498046875,-1.087893009185791,1.4819989204406738,0.46373072266578674
1772701681781653000,6.672653076171875,-1.0567177534103394,1.5496753454208374,0.397883802652359
1772701681791701000,6.682700927734375,-1.007897973060608,1.6449580192565918,0.3072590231895447
1772701681801749000,6.6927490234375,-0.9568535089492798,1.6995285749435425,0.23681680858135223
1772701681811797200,6.70279736328125,-0.8796321749687195,1.6670615673065186,0.23876431584358215
1772701681821845000,6.712844970703125,-0.7902604937553406,1.6303991079330444,0.26884499192237854
1772701681831894000,6.72289404296875,-0.7802190780639648,1.6246432065963745,0.2976210415363312
1772701681841942000,6.73294189453125,-0.8171507716178894,1.5384113788604736,0.3709935247898102
1772701681851990000,6.742989990234375,-0.8725652694702148,1.3580704927444458,0.47930607199668884
1772701681862038000,6.7530380859375,-0.9430263638496399,1.1815398931503296,0.5830284953117371
1772701681872086000,6.7630859375,-0.98918616771698,0.9877377152442932,0.6819434762001038
1772701681882134000,6.773134033203125,-1.0012459754943848,0.8011789917945862,0.7628872990608215
1772701681892182000,6.78318212890625,-0.9827019572257996,0.6370240449905396,0.8160542249679565
1772701681902230000,6.79322998046875,-0.9524431228637695,0.5205270051956177,0.8508580327033997
1772701681912278000,6.803278076171875,-0.9070348143577576,0.44457948207855225,0.8538137078285217
1772701681922327000,6.8133271484375,-0.8621765375137329,0.4009590148925781,0.8358701467514038
1772701681932375000,6.823375,-0.8377599120140076,0.3756488859653473,0.8042160868644714
1772701681942423000,6.833423095703125,-0.8352586627006531,0.35507169365882874,0.7834354043006897
1772701681952471000,6.843470947265625,-0.8376485705375671,0.33071908354759216,0.7807831168174744
1772701681962519000,6.85351904296875,-0.8442433476448059,0.30873173475265503,0.8037970662117004
1772701681972567000,6.863567138671875,-0.8502524495124817,0.2954079508781433,0.8417742848396301
1772701681982615000,6.873614990234375,-0.8359883427619934,0.29208195209503174,0.889310896396637
1772701681992662800,6.883662841796875,-0.8160614967346191,0.2848685085773468,0.9284029603004456
1772701682002712000,6.893712158203125,-0.7950617074966431,0.27560123801231384,0.9559400081634521
1772701682012759800,6.903759765625,-0.7714042067527771,0.26088711619377136,0.9752786159515381
1772701682022808000,6.91380810546875,-0.7478099465370178,0.24789409339427948,1.0122374296188354
1772701682032856000,6.92385595703125,-0.7302117943763733,0.23525314033031464,1.0687217712402344
1772701682042904000,6.933904052734375,-0.7267427444458008,0.21566691994667053,1.1384180784225464
1772701682052952000,6.9439521484375,-0.7339327931404114,0.1725907027721405,1.2086267471313477
1772701682063000000,6.954,-0.7586022019386292,0.12054480612277985,1.2669124603271484
1772701682073048000,6.964048095703125,-0.7744941711425781,0.08390212804079056,1.2936023473739624
1772701682083097000,6.97409716796875,-0.7680644989013672,0.055903516709804535,1.3111430406570435
1772701682093145000,6.98414501953125,-0.7462818622589111,0.042937636375427246,1.3316086530685425
1772701682103193000,6.994193115234375,-0.7361834645271301,0.06717133522033691,1.3290294408798218
1772701682113240800,7.00424072265625,-0.7234119176864624,0.08590040355920792,1.305224061012268
1772701682123289000,7.0142890625,-0.7065865993499756,0.10879214107990265,1.2823851108551025
1772701682133337000,7.024337158203125,-0.6793045401573181,0.11989768594503403,1.2702909708023071
1772701682143384800,7.034384765625,-0.6515754461288452,0.11448906362056732,1.2670656442642212
1772701682153433000,7.04443310546875,-0.6511939764022827,0.11023557186126709,1.2666019201278687
1772701682163481300,7.0544814453125,-0.6730087399482727,0.1249506026506424,1.2636165618896484
1772701682173529000,7.064529052734375,-0.7092365026473999,0.13218601047992706,1.252178430557251
1772701682183577300,7.074577392578125,-0.733823835849762,0.13357990980148315,1.2302254438400269
1772701682193625000,7.084625,-0.761979877948761,0.14055658876895905,1.2026851177215576
1772701682203673000,7.094673095703125,-0.7866500616073608,0.13531948626041412,1.1567171812057495
1772701682213721300,7.104721435546875,-0.801359236240387,0.14015206694602966,1.085778832435608
1772701682223769000,7.11476904296875,-0.8110619187355042,0.16004641354084015,1.0100513696670532
1772701682233817000,7.124817138671875,-0.7963079810142517,0.18522006273269653,0.9530408978462219
1772701682243866000,7.1348662109375,-0.7701219320297241,0.2137470543384552,0.9381799697875977
1772701682253914000,7.1449140625,-0.749065101146698,0.2495141178369522,0.9400925636291504
1772701682263962400,7.15496240234375,-0.7389323115348816,0.2941311001777649,0.9659587740898132
1772701682274010000,7.165010009765625,-0.7343823313713074,0.35994672775268555,1.0043448209762573
1772701682284058000,7.17505810546875,-0.738365650177002,0.42655184864997864,1.0290800333023071
1772701682294106400,7.1851064453125,-0.75847989320755,0.4599307179450989,1.0430488586425781
1772701682304154000,7.195154052734375,-0.7884458303451538,0.44584205746650696,1.0430582761764526
1772701682314202400,7.205202392578125,-0.8483187556266785,0.3742479085922241,1.035608172416687
1772701682324250000,7.21525,-0.8994975686073303,0.2767772972583771,1.0503126382827759
1772701682334299100,7.225299072265625,-0.9002988338470459,0.23018008470535278,1.0885878801345825
1772701682344347100,7.23534716796875,-0.8572307229042053,0.25746017694473267,1.1420398950576782
1772701682354395100,7.24539501953125,-0.7979797124862671,0.3212128281593323,1.1914570331573486
1772701682364443400,7.255443359375,-0.7322675585746765,0.4305342435836792,1.2329094409942627
1772701682374491100,7.2654912109375,-0.6666911840438843,0.6458333134651184,1.2930498123168945
1772701682384539100,7.2755390625,-0.585274875164032,0.9365677237510681,1.379873275756836
1772701682394587400,7.28558740234375,-0.4876540005207062,1.1582859754562378,1.4341262578964233
1772701682404635100,7.29563525390625,-0.37801963090896606,1.1996686458587646,1.4186540842056274
1772701682414684400,7.305684326171875,-0.28336748480796814,1.00124192237854,1.296264886856079
1772701682424732200,7.315732177734375,-0.22462612390518188,0.7323542237281799,1.1240901947021484
1772701682434780200,7.3257802734375,-0.2535230815410614,0.5958555340766907,1.0064839124679565
1772701682444828200,7.335828125,-0.343850314617157,0.6001712083816528,0.9790677428245544
1772701682454876200,7.345876220703125,-0.43487441539764404,0.6159312129020691,0.9788254499435425
1772701682464924200,7.355924072265625,-0.5428320169448853,0.6477615833282471,0.9400032162666321
1772701682474972200,7.36597216796875,-0.6982437372207642,0.7574337720870972,0.8612593412399292
1772701682485020200,7.376020263671875,-0.868320107460022,0.9519995450973511,0.7042537331581116
1772701682495069200,7.386069091796875,-0.9686827063560486,1.1641782522201538,0.5049058794975281
1772701682505117200,7.3961171875,-0.9411147236824036,1.3323843479156494,0.2621363401412964
1772701682515165200,7.406165283203125,-0.8279101848602295,1.4461288452148438,0.02861127257347107
1772701682525213200,7.416213134765625,-0.7156720757484436,1.565141201019287,-0.14521484076976776
1772701682535261200,7.42626123046875,-0.6464575529098511,1.7594656944274902,-0.18879666924476624
1772701682545309200,7.43630908203125,-0.6258902549743652,1.9451351165771484,-0.10523946583271027
1772701682555357200,7.446357177734375,-0.6278918981552124,2.0496699810028076,0.024685773998498917
1772701682565405200,7.4564052734375,-0.6140676736831665,2.149327516555786,0.15585045516490936
1772701682575454200,7.4664541015625,-0.5627335906028748,2.1869781017303467,0.2628635764122009
1772701682585502200,7.476502197265625,-0.5006707310676575,2.136547565460205,0.32997018098831177
1772701682595550200,7.48655029296875,-0.4171317219734192,1.9297791719436646,0.3278718590736389
1772701682605598200,7.49659814453125,-0.3527633845806122,1.548019528388977,0.3071844279766083
1772701682615646200,7.506646240234375,-0.3526349663734436,1.0646191835403442,0.36129701137542725
1772701682625694200,7.516694091796875,-0.4058566391468048,0.5687209963798523,0.530559778213501
1772701682635742200,7.5267421875,-0.4858241677284241,0.19819457828998566,0.7671104073524475
1772701682645790200,7.536790283203125,-0.5847083926200867,-0.08177794516086578,1.0094093084335327
1772701682655839200,7.546839111328125,-0.6615544557571411,-0.2701883316040039,1.1800249814987183
1772701682665887200,7.55688720703125,-0.7106906175613403,-0.36190149188041687,1.2882415056228638
1772701682675935200,7.566935302734375,-0.7379900813102722,-0.403436541557312,1.3193855285644531
1772701682685983200,7.576983154296875,-0.7630112767219543,-0.4784705638885498,1.3360086679458618
1772701682696031000,7.587031005859375,-0.7939212322235107,-0.48162615299224854,1.3242416381835938
1772701682706079200,7.597079345703125,-0.8159477114677429,-0.5048920512199402,1.3333709239959717
1772701682716127200,7.607127197265625,-0.8228626251220703,-0.47774434089660645,1.3584058284759521
1772701682726175200,7.61717529296875,-0.8266522884368896,-0.3911322057247162,1.3666422367095947
1772701682736224300,7.627224365234375,-0.8248938918113708,-0.37063130736351013,1.3626489639282227
1772701682746272000,7.63727197265625,-0.8267676830291748,-0.3245365023612976,1.3403223752975464
1772701682756320300,7.6473203125,-0.8239524364471436,-0.2518993318080902,1.3010873794555664
1772701682766368300,7.6573681640625,-0.823849618434906,-0.18153835833072662,1.243646502494812
1772701682776416300,7.667416259765625,-0.8184599280357361,-0.11680065095424652,1.1731036901474
1772701682786464300,7.67746435546875,-0.8232964873313904,-0.030025536194443703,1.0769050121307373
1772701682796512000,7.687511962890625,-0.8262680768966675,0.07579012215137482,0.9711772799491882
1772701682806560300,7.697560302734375,-0.8299126029014587,0.18593500554561615,0.871147632598877
1772701682816609000,7.707609130859375,-0.8355193138122559,0.2889159619808197,0.7755869030952454
1772701682826657300,7.7176572265625,-0.8344921469688416,0.35395702719688416,0.6900099515914917
1772701682836705300,7.727705322265625,-0.8260677456855774,0.38749566674232483,0.6246139407157898
1772701682846753000,7.7377529296875,-0.8072269558906555,0.40489089488983154,0.5927090048789978
1772701682856801300,7.74780126953125,-0.8019797801971436,0.42342865467071533,0.590034008026123
1772701682866849300,7.757849365234375,-0.7941498160362244,0.44285348057746887,0.6172429919242859
1772701682876897000,7.76789697265625,-0.7822193503379822,0.43170371651649475,0.6289299726486206
1772701682886945300,7.7779453125,-0.7581853866577148,0.41005995869636536,0.6373130679130554
1772701682896994000,7.787994140625,-0.7391040325164795,0.37270793318748474,0.6463263034820557
1772701682907042300,7.798042236328125,-0.7362483739852905,0.3170984387397766,0.6626967787742615
1772701682917090300,7.80809033203125,-0.7442479729652405,0.24919478595256805,0.6649869680404663
1772701682927138000,7.818137939453125,-0.75054532289505,0.17067521810531616,0.6517750024795532
1772701682937186300,7.828186279296875,-0.7387107610702515,0.09244498610496521,0.6128246188163757
1772701682947234000,7.838234130859375,-0.7153295278549194,0.013962425291538239,0.5665332674980164
1772701682957282300,7.8482822265625,-0.69169020652771,-0.024656737223267555,0.5101560950279236
1772701682967330300,7.858330322265625,-0.6803185343742371,-0.009178711101412773,0.4823244512081146
1772701682977379000,7.868379150390625,-0.6706196069717407,0.07220976799726486,0.4695127010345459
1772701682987427300,7.87842724609375,-0.6546278595924377,0.15446841716766357,0.47195908427238464
1772701682997475000,7.88847509765625,-0.6515274047851562,0.19381661713123322,0.4745303690433502
1772701683007523300,7.8985234375,-0.6235788464546204,0.2127290666103363,0.506338357925415
1772701683017571300,7.9085712890625,-0.6139560341835022,0.3459112048149109,0.9625623226165771
1772701683027619000,7.918619140625,-0.6538386940956116,0.3329080641269684,0.848787784576416
1772701683037667300,7.928667236328125,-0.6533503532409668,0.22963479161262512,0.539883017539978
1772701683047715000,7.938715087890625,-0.5888538956642151,0.12996067106723785,0.10877981781959534
1772701683057764400,7.948764404296875,-0.5204112529754639,0.0457892119884491,-0.08913080394268036
1772701683067812000,7.95881201171875,-0.48589077591896057,-0.04728027805685997,0.022980019450187683
