time,seconds_elapsed,z,y,x
1772702147245492500,0.060492431640625,0.0025070143848657605,-0.01568169938698411,0.008460260233469307
1772702147255541500,0.07054150390625,0.007148702710866928,0.005478851536195725,0.01323143157447921
1772702147265591300,0.08059130859375,-0.005274725532531738,0.016255882545746864,-0.008014037136198022
1772702147275640600,0.090640625,0.004002221378684044,0.007168357259407639,0.0002019979786593467
1772702147285690600,0.100690673828125,0.0008615852653980255,0.013686854041647165,0.007846336436073761
1772702147295739400,0.110739501953125,-0.00033317747712135315,0.014205726816598326,0.01736234366701683
1772702147305789400,0.12078955078125,-0.012906243324279785,0.012408175875339657,0.0024197333936346694
1772702147315838500,0.13083837890625,0.008790040177106856,0.000028440643195062873,0.008000136475008912
1772702147325888500,0.140888427734375,0.013726327535510062,-0.0006476319874636828,0.019061037343682256
1772702147335937500,0.1509375,0.002809212201833725,0.004635788308177143,0.005791874424566049
1772702147345987600,0.160987548828125,0.007895137163996696,0.010225826867576688,0.012215258535568136
1772702147356036400,0.171036376953125,0.010589198553562164,-0.0038350115856155753,-0.005654687593714334
1772702147366086400,0.18108642578125,-0.0022808044135570523,-0.005904858395922929,-0.0004844293659436516
1772702147376135700,0.1911357421875,-0.0024321955829858777,0.004341171009466052,0.014658174158679321
1772702147386185500,0.201185546875,0.010585691422224043,0.012186258486658334,0.03823488741207402
1772702147396234500,0.211234375,0.009537643674015998,-0.00036715281195938583,0.012557699314667842
1772702147406284500,0.221284423828125,0.004305003717541694,-0.012981591849122195,0.009522937011939939
1772702147416333300,0.231333251953125,0.00729892483651638,0.0023528284701518714,0.015350099662307184
1772702147426383600,0.241383544921875,0.008048281899094581,0.010950341749843209,-0.0018762901497189886
1772702147436433700,0.25143359375,-0.0006295300751924514,0.0016100107462145388,0.008177406437788158
1772702147446482400,0.261482421875,0.0013145897299051284,0.01469999487325549,0.00852438411139883
1772702147456532500,0.271532470703125,-0.013500117564201355,0.0031940650672651824,-0.010690519486588891
1772702147466581500,0.28158154296875,-0.0007785831570625305,-0.003031093057896942,0.027559092853870242
1772702147476631300,0.29163134765625,0.008203764721751213,-0.009939886065665631,0.016718762233585583
1772702147486680600,0.3016806640625,0.007305354577302932,-0.011732961761206388,0.0017802801460493356
1772702147496730600,0.311730712890625,-0.00047404725253581996,0.009546484567597508,0.003059752896800637
1772702147506779400,0.321779296875,0.008055880683660506,0.004285312636382877,0.006868472413823474
1772702147516829400,0.331829345703125,0.013441080853343008,0.006585296674445271,0.02313852504881797
1772702147526878700,0.341878662109375,0.005059621477127075,0.012199702490121126,0.0022955019424785858
1772702147536928500,0.351928466796875,0.005955109012126922,0.00033071152539923787,0.008409511860343628
1772702147546977500,0.3619775390625,0.014632920986413955,-0.013252408147137611,0.002484861918562092
1772702147557027600,0.372027587890625,0.0028097967237234113,0.005656199130788445,0.014434971278498415
1772702147567076400,0.382076416015625,-0.0007768295913934707,0.010557963165082037,0.011076785707683301
1772702147577126400,0.39212646484375,0.004762099835276604,0.007620704136788845,0.011831650062440894
1772702147587175700,0.40217578125,-0.000025134441256523132,0.004258041036967188,-0.0003087006229907274
1772702147597225700,0.412225830078125,0.00326864640712738,0.006864058816898614,0.003693472806632053
1772702147607274500,0.4222744140625,0.0025210429102182387,-0.010401877554226667,0.00998762963095214
1772702147617324500,0.432324462890625,0.010751111117005347,-0.011452829645574092,0.032763515929435376
1772702147627373600,0.44237353515625,-0.00286649534702301,0.0030822204569354653,0.0096836120329448
1772702147637423600,0.452423583984375,-0.00047229368686676023,0.020901662524975835,-0.012247057896340265
1772702147647472600,0.46247265625,-0.0015174188256263732,0.014375311229843646,0.0008279136079479939
1772702147657522700,0.472522705078125,0.00326864640712738,-0.005585892107244581,0.007295945144852157
1772702147667571500,0.482571533203125,-0.0033154081583023068,0.0008627360428683459,0.01396343336016871
1772702147677621500,0.49262158203125,0.010606149688363075,-0.010565963808447121,0.007666020566259976
1772702147687670500,0.50267041015625,0.0011795651733875275,-0.012401508672535418,0.013196947066276334
1772702147697720600,0.512720458984375,0.005669277808070182,-0.005270871341321617,0.009244277617475018
1772702147707769600,0.52276953125,0.00013385551273822782,-0.004884264910221099,-0.005363858270843048
1772702147717819400,0.5328193359375,-0.004656301373243332,0.006272760126553476,-0.012215078155766241
1772702147727868700,0.54286865234375,0.0001309329032897949,-0.009258278743363916,-0.007646149105299264
1772702147737918700,0.552918701171875,0.0011760580420494078,-0.004508545199315994,0.008405077713821082
1772702147747968800,0.56296875,0.007311199796199798,0.002812737599480897,0.01786482927945908
1772702147758017500,0.573017578125,-0.0010708441019058226,0.005315989124681801,0.0027757163576083255
1772702147768067600,0.583067626953125,0.0037158056527376174,0.0024090704357251523,0.007286218335281591
1772702147778116400,0.593116455078125,-0.0037660745352506636,-0.0002873838403262198,-0.008751564480375963
1772702147788166400,0.60316650390625,-0.0024187515795230864,0.002966430323850363,0.0005241928374627605
1772702147798215700,0.613215576171875,-0.00047463177442550657,-0.004584880104847252,-0.0037155955901835114
1772702147808265500,0.623265380859375,0.01329378133714199,-0.005720953196380287,0.004865233699476812
1772702147818314500,0.633314453125,0.004462824627757072,0.0038110644544474778,0.012542236884054727
1772702147828364500,0.643364501953125,0.008652093011140822,0.004766575080994516,0.01191967083918862
1772702147838413600,0.65341357421875,-0.0030202246040105817,0.014514336108043788,0.003122888110752683
1772702147848463600,0.663463623046875,0.003708791390061378,0.007673347639478743,0.0010607884987723082
1772702147858512600,0.6735126953125,0.005801379755139351,0.004346523038018494,0.011657400890521238
1772702147868562400,0.6835625,-0.007814473143219947,-0.004252323682233691,0.002495591091841925
1772702147878611500,0.693611572265625,0.0028138883769512177,-0.005922339253686368,0.011486686249403282
1772702147888661500,0.70366162109375,0.007457330268621444,0.02294410987170413,0.0108394880867796
1772702147898710500,0.71371044921875,-0.008403086686134337,0.007775529372319579,0.020779047642170916
1772702147908760600,0.723760498046875,0.008657353708148002,0.002029368669446558,0.013289561819750814
1772702147918809600,0.7338095703125,0.009252396991848945,-0.002914042549487203,0.017566595251555555
1772702147928859400,0.743859375,-0.00930792657136917,0.005405073913931847,0.013916950170206837
1772702147938908700,0.75390869140625,0.006400514692068099,0.004651935725379735,0.03611654583452036
1772702147948958700,0.763958740234375,0.0014659808993339539,0.00045466669863089917,0.016722687206743286
1772702147959007500,0.774007568359375,-0.0013794716596603393,0.003552102991007268,-0.01420001174515346
1772702147969057500,0.7840576171875,-0.00452303038239479,0.00031352292858064174,-0.0023863014814909547
1772702147979106600,0.7941064453125,-0.0007785831570625305,0.0034525333403609693,0.00973188532119384
1772702147989156600,0.804156494140625,0.02496025373339653,-0.008115666313190013,0.01753349441626342
1772702147999205600,0.81420556640625,0.006404606345295906,-0.016315375914331524,0.021169508264481555
1772702148009255700,0.824255615234375,0.0077495912134647365,-0.007829031391534954,0.020288277583697344
1772702148019305500,0.834305419921875,0.012684125006198883,0.0035440110160969195,0.01591957011333434
1772702148029354500,0.8443544921875,0.002059270617365837,0.00446929090116173,0.009344043630943632
1772702148039404500,0.854404541015625,0.010737667113542557,0.009423771503381431,0.008186393461842089
1772702148049453600,0.86445361328125,0.00011515081226825714,0.006351962842606008,0.00654735526725417
1772702148059503600,0.874503662109375,-0.003925064489245415,-0.00021733254510909318,0.009975137758848722
1772702148069552600,0.884552734375,0.0013075754672288893,0.009512564031686634,0.006789406695088837
1772702148079602400,0.8946025390625,0.003252279794216156,-0.0030290837639011443,-0.0028483546188450416
1772702148089651700,0.904651611328125,0.010131517913937568,-0.001218582009524107,0.0032471401115064507
1772702148099701800,0.91470166015625,-0.008124269744753837,0.002523928987048566,0.0005782154464861378
1772702148109750500,0.92475048828125,0.005193476989865302,0.00984543098155409,0.01665864781049313
1772702148119800600,0.934800537109375,-0.006176058286428451,-0.000597399637568742,0.01002943207921926
1772702148129849600,0.944849609375,-0.003487257593870163,0.011690748320985584,0.01044785842068959
1772702148139899400,0.9548994140625,-0.009327215793728827,0.000825052647292614,-0.0056705176337971345
1772702148149948700,0.96494873046875,-0.002443301498889923,0.007813779023475945,-0.0032111942985793575
1772702148159998700,0.974998779296875,-0.001841243952512741,0.007833616235107184,-0.005702524773834739
1772702148170047500,0.985047607421875,0.003249357184767723,0.008323993567936122,0.007780463559052441
1772702148180097500,0.99509765625,-0.007226444122195244,0.004454275995120406,0.004786483074573334
1772702148190146600,1.005146484375,0.0044470425367355345,0.012285700273141265,0.005897538172570057
1772702148200196600,1.015196533203125,-0.0019873744249343872,0.005546089819818735,0.011311345665517728
1772702148210245600,1.02524560546875,0.006546060642600059,-0.0031517237628810105,0.005003822469548322
1772702148220295700,1.035295654296875,0.009988310050964355,0.005500186585169285,0.007389057655248325
1772702148230344400,1.045344482421875,0.006698620855808257,-0.0038859563215635716,-0.00004306054030312225
1772702148240394500,1.05539453125,0.02240881568491459,-0.007559548534080386,0.010323971746116876
1772702148250443500,1.065443603515625,0.0197200149923563,0.0022715799274854362,0.008692429588106461
1772702148260493600,1.07549365234375,-0.0012245733588933945,-0.00033449265137314795,0.020401889459427912
1772702148270542600,1.08554248046875,-0.014388590836524962,0.00022805486852303146,0.0065343702048063276
1772702148280592600,1.095592529296875,-0.000772153416275978,0.0005474047496914863,0.0070952600571559735
1772702148290642400,1.105642333984375,0.004469254368543624,0.009790157130360603,0.005919434910546988
1772702148300691700,1.115691650390625,-0.008550970724225044,0.0191394386254251,0.0008444583173724822
1772702148310741800,1.12574169921875,-0.00032090251743793486,-0.01304082948938012,0.0005151966802543029
1772702148320790500,1.13579052734375,0.00327039997279644,0.00045784503640606996,0.005404637805803213
1772702148330840600,1.145840576171875,-0.0021177228063344955,0.011712576560303568,0.015268542875675483
1772702148340889300,1.155889404296875,-0.0031646015107631683,-0.0026905542582273483,0.014419805675407404
1772702148350939400,1.165939453125,-0.00032031799554824825,0.01611221802504733,0.00392456901561236
1772702148360988700,1.17598876953125,0.0037239889591932293,0.0031029344514012336,0.015572165464749559
1772702148371038700,1.186038818359375,0.0008826280534267425,0.00406518534598872,0.010875212420709431
1772702148381087500,1.19608740234375,0.010014029014110564,0.01842776495842263,-0.0009345386204659007
1772702148391137500,1.206137451171875,-0.015130933636426924,0.00026056889863684774,0.012692596007022074
1772702148401186600,1.2161865234375,0.0068657941162586205,-0.005275565782748163,0.010803302528546192
1772702148411236600,1.226236572265625,0.013749708411097525,0.009934387906640767,0.012324244468531104
1772702148421285600,1.23628564453125,0.005519640204310417,0.0019942973560653624,0.028457267819589467
1772702148431335400,1.24633544921875,0.013450433203577994,-0.0013107903376221655,0.0012685426480718888
1772702148441384400,1.256384521484375,0.01225157880783081,0.013553272523544728,-0.005392150500277057
1772702148451434500,1.2664345703125,-0.006900865429639816,-0.005517959703877568,-0.0022711757853976448
1772702148461483500,1.2764833984375,0.0049181671798229215,-0.003522876896522939,0.006026779158983845
1772702148471533600,1.286533447265625,-0.00031739538609981536,-0.003755480076000094,0.010169169343472458
1772702148481582600,1.29658251953125,0.008511807757616043,-0.0030253939694724974,0.0013918813333730212
1772702148491632400,1.30663232421875,-0.005554126995801926,-0.0009547434415668249,0.01809059400948463
1772702148501681700,1.316681640625,-0.005103460618853569,0.010788958909362554,-0.002252311254723463
1772702148511731700,1.326731689453125,0.015843465819954872,-0.000025499767437577247,-0.002135130598861724
1772702148521780500,1.336780517578125,0.002821487161517143,0.0030890155239030716,0.01836760030298028
1772702148531830500,1.34683056640625,-0.004065934264659881,0.005646481454372406,-0.00010219771586125716
1772702148541879600,1.356879638671875,0.002065115836262703,-0.009310374256782232,0.0010985860587796195
1772702148551928600,1.366928466796875,-0.00032967034578323365,0.004208722002524882,0.00415667672145646
1772702148561977600,1.3769775390625,0.0029670331120491026,0.004147712530288845,0.008068845196510665
1772702148572027600,1.387027587890625,0.004462240105867385,0.003774294374324381,-0.00132433937236201
1772702148582077400,1.397077392578125,-0.00795768100619316,0.00422916200235486,0.008823435556632467
1772702148592126700,1.407126708984375,0.0062567223072052,0.022103402997553347,0.0012407527421368285
1772702148602176800,1.4171767578125,0.004608955100178718,0.0030080775084905323,-0.0038400211208732796
1772702148612225500,1.4272255859375,0.021368951243162154,-0.0034423955388367174,0.0005442583779571578
1772702148622275600,1.437275634765625,-0.0016734861701726913,-0.005016056330036372,-0.00033148327695671465
1772702148632324600,1.44732470703125,-0.006016483810544013,-0.004553717781603336,0.0004883018234628253
1772702148642374400,1.45737451171875,0.014034955093264578,-0.000215542446821928,-0.00489497581719188
1772702148652423700,1.467423583984375,0.0034083471387624737,-0.0027964257854968307,0.005933445169590414
1772702148662473700,1.4774736328125,0.015975567767024038,0.008962620265036822,0.008589268324442673
1772702148672522500,1.4875224609375,0.0017599954098463056,0.007626987747102975,0.01966068602055311
1772702148682572500,1.497572509765625,0.011787468427419661,-0.007874167441204189,0.003280446442775428
1772702148692621800,1.507621826171875,-0.01140636015534401,0.0022852065940387545,0.00781400278576184
1772702148702671600,1.517671630859375,-0.01604571039378643,0.013984302618261425,-0.008224339435610455
1772702148712720600,1.527720703125,0.00729717127084732,0.017164046899229287,-0.00413591706121806
1772702148722770700,1.537770751953125,0.01941664813160896,0.010796027970965951,0.0037552289142506194
1772702148732819500,1.5478193359375,0.01462532220184803,0.016606431282777338,-0.004053663871553727
1772702148742869500,1.557869384765625,0.009983633875846862,0.014784184291679412,0.01352987109835958
1772702148752918800,1.567918701171875,-0.005280570751428603,0.00447084353743121,0.01832887116121128
1772702148762968600,1.577968505859375,0.0008580781340599059,0.007029094919189811,0.02555181728522293
1772702148773017600,1.588017578125,0.02719838804900646,0.024662567694764582,-0.0055865999267203734
1772702148783067600,1.598067626953125,0.014776713371276855,0.01127526285527274,-0.005268010380666237
1772702148793116700,1.60811669921875,0.005199322208762168,-0.0029094211732968688,-0.0038404047133633865
1772702148803166700,1.618166748046875,-0.0018318916022777557,0.005678812821395695,0.009102307296940126
1772702148813215500,1.628215576171875,0.011336802050471306,-0.004654529541265219,0.01722503810515627
1772702148823265500,1.638265625,-0.002728548181056976,-0.00841645762436092,0.010266670334618538
1772702148833314600,1.648314453125,-0.0034767361998558045,-0.0030453225126489997,-0.00420598662274424
1772702148843364600,1.658364501953125,0.01672550935149193,0.003032316900603473,-0.002703160294762347
1772702148853413600,1.66841357421875,0.019572130954265594,-0.005963913373090326,0.016944618295156397
1772702148863463700,1.678463623046875,-0.007060439905524254,0.008581311063561588,-0.004802345080696977
1772702148873513700,1.688513671875,0.010748773029446601,0.005925700254552066,-0.0033157438017311506
1772702148883562500,1.6985625,0.0011719663888216018,0.0005568118988536298,0.0033511553251184523
1772702148893612500,1.708612548828125,-0.0039139585733413695,-0.0016167692805640398,0.0004387156442506239
1772702148903661600,1.71866162109375,0.0008761983126401901,0.019689674653019754,0.008115522466006223
1772702148913711600,1.728711669921875,0.00461713840663433,0.013075407612416892,0.016980600640701594
1772702148923760600,1.7387607421875,0.009852116450667381,0.004796056903805583,0.010811136491841171
1772702148933810700,1.748810791015625,0.010745850419998168,0.0069317172256298356,-0.0073710447912337254
1772702148943859500,1.758859375,0.005658171892166137,-0.0008523973119445145,-0.004043165310425684
1772702148953909800,1.76890966796875,0.009849193841218948,-0.014525478556565939,0.0075099098392296575
1772702148963958500,1.77895849609375,0.006402852779626846,-0.0035375630090013145,-0.00552095309527358
1772702148974008600,1.789008544921875,0.00909399155974388,-0.001221175825409591,0.01454211231424706
1772702148984057600,1.7990576171875,0.003705868780612945,0.014392536359280348,0.02086361608650768
1772702148994107400,1.809107421875,0.001911386579275131,0.007876304599363356,-0.00222857190282084
1772702149004156700,1.81915673828125,0.0074491469621658325,0.005886062363907695,-0.008408872539526782
1772702149014206700,1.829206787109375,0.015375848308205604,-0.0035293431699275966,0.005422273927193601
1772702149024255500,1.83925537109375,0.015227379748225212,-0.007299911217205226,-0.005595949993666726
1772702149034305500,1.849305419921875,0.001613280415534973,-0.01444684209609404,0.004444478403602261
1772702149044354600,1.8593544921875,0.011790391036868094,0.030356468487437813,0.010571847843250725
1772702149054404600,1.869404541015625,0.0161298815459013,0.0033893867099657653,0.009782259234983938
1772702149064453600,1.87945361328125,0.006102408528327941,0.014389138825796543,-0.00600806760864798
1772702149074503700,1.889503662109375,0.01657587174773216,0.0072518160254694515,0.006479993686045054
1772702149084552400,1.899552490234375,0.005203413861989975,0.0005164981547743082,0.0016064533825265242
1772702149094602500,1.9096025390625,0.005053776258230209,0.007418331698793917,0.0025574293978512285
1772702149104651800,1.91965185546875,0.014029109874367713,0.005565689569432288,-0.01799648370195646
1772702149114701600,1.92970166015625,0.009542319849133491,-0.013659198849741368,0.002687122475414071
1772702149124750600,1.93975048828125,0.00011807342171669006,-0.010066325456928461,0.013291349634749348
1772702149134800600,1.949800537109375,0.006107669225335121,-0.0034907281925901767,0.02320642320285551
1772702149144849700,1.959849609375,-0.006309913799166679,-0.0019196794835850595,0.0071290413124603215
1772702149154899700,1.969899658203125,-0.0021188918501138685,-0.01214174349149689,-0.0036460763012175447
1772702149164948700,1.97994873046875,-0.0078057053148746485,0.0052253516991622746,0.004012687973771244
1772702149174998500,1.98999853515625,-0.006903788039088248,0.014632592192851006,0.005924978735344484
1772702149185047600,2.000047607421875,0.0008761983126401901,-0.013477631737757474,0.006350494688015897
1772702149195097600,2.01009765625,0.02092646817266941,-0.0075660148074850435,-0.008080259356379974
1772702149205147400,2.0201474609375,-0.01049567505121231,0.002696399477124214,0.007084478368237614
1772702149215196700,2.03019677734375,-0.002267360410094261,-0.013847159169893711,0.01480440966237802
1772702149225246700,2.040246826171875,0.014490297645330429,0.0028710071253590284,0.01759464088581735
1772702149235295500,2.05029541015625,0.0011719663888216018,0.012747509098611772,0.007382321953785139
1772702149245345500,2.060345458984375,-0.003615852409601211,0.001821808599680662,0.011347143064683768
1772702149255394800,2.070394775390625,-0.001070259580016136,0.0055120962186716495,0.012562281874951441
1772702149265444600,2.080444580078125,0.009702478846907616,0.010052516127284616,-0.01761587090351386
1772702149275493600,2.09049365234375,0.004613631275296211,0.012516239359695463,-0.008688671295018865
1772702149285543700,2.100543701171875,-0.0027186113089323043,0.006069200378470123,0.011305680826422759
1772702149295592400,2.110592529296875,0.012843114960193634,-0.007797028818074613,0.010548170140141155
1772702149305642500,2.120642578125,0.007458499312400817,-0.006390650885179638,-0.0003547385716694407
1772702149315691800,2.13069189453125,0.006407528954744338,0.009630381725076586,0.0012220663079759106
1772702149325741600,2.140741455078125,0.0025187048226594923,-0.0024644356184639034,0.00954487713240087
1772702149335790600,2.15079052734375,-0.00047580081820487974,-0.0028460736135020853,0.012975173524778802
1772702149345840600,2.160840576171875,-0.018137714236974717,-0.00028804142745211716,0.008204885816469323
1772702149355889700,2.1708896484375,0.01388414844572544,-0.006219952227082103,0.013292879438132512
1772702149365939700,2.180939697265625,0.012687047615647316,0.0023063407136127353,0.002497874380473513
1772702149375988700,2.19098876953125,0.005203998383879661,-0.006916610988043248,0.006832672731368802
1772702149386038500,2.20103857421875,0.004606617012619972,0.009800020937249064,0.011673883951152673
1772702149396087600,2.211087646484375,0.010596212816238402,-0.007262958473991602,0.01760830865156604
1772702149406137600,2.2211376953125,-0.0033154081583023068,0.004657799210585654,0.006521620321087539
1772702149416186600,2.2311865234375,-0.010798457390069962,0.00828678509639576,-0.003064333173795603
1772702149426236700,2.241236572265625,0.004019172513484955,0.013684497687779367,0.0167995107360417
1772702149436285400,2.251285400390625,0.00027706337571144104,0.0034095709814690052,0.003663979567377828
1772702149446335500,2.26133544921875,0.0041653029859066,-0.020898484187200663,-0.006402284240757581
1772702149456384800,2.271384765625,0.010001754054427147,-0.009995178183168172,0.006649979958089534
1772702149466434800,2.281434814453125,0.009704232412576674,-0.0027353980469517407,0.00993154521229444
1772702149476483600,2.291483642578125,0.015838789644837377,0.00685775694027543,0.003755025701562408
1772702149486533600,2.30153369140625,0.002220014137029648,-0.0011328582211397587,0.002569533110887278
1772702149496582400,2.31158251953125,0.0028179800301790237,0.004856445321533829,0.004875186554621905
1772702149506632400,2.321632568359375,-0.0004769698619842529,-0.0035571810249239205,0.0021058679717592893
1772702149516681700,2.331681640625,-0.0028717560440301893,0.003937138519529253,0.012514385329326614
1772702149526731500,2.3417314453125,0.00041910219490528107,0.001126629409752786,-0.0011308671934530138
1772702149536781600,2.351781494140625,0.004312017980217933,0.010028148871008306,0.012212797150423284
1772702149546830600,2.36183056640625,-0.003017301994562149,-0.0013254947164095937,-0.007677669904858339
1772702149556880600,2.371880615234375,0.0014753332495689392,0.004068363683763891,0.005517404864740092
1772702149566930000,2.381929931640625,-0.00046761751174926756,-0.0020186463460326195,0.014384229755238629
1772702149576980000,2.39197998046875,0.003425298273563385,0.01196940086558461,0.020082425413827876
1772702149587028700,2.40202880859375,0.011353753185272215,0.0003644676645286381,0.0052916081686737015
1772702149597078800,2.412078857421875,0.013300795599818229,-0.008964538227487355,-0.008085704999766312
1772702149607127800,2.4221279296875,0.004774959316849708,-0.011953472644090652,0.0037318914211471564
1772702149617177600,2.432177490234375,0.009561024549603461,-0.010071129496209323,0.020922002060106023
1772702149627227000,2.442226806640625,0.0005775076270103454,-0.005528700293600559,0.011574492397019638
1772702149637277000,2.45227685546875,-0.0013677812218666075,0.008548924897611141,0.019666382825688923
1772702149647325700,2.46232568359375,-0.0040606735676527025,-0.017840393524523823,0.005274364772927947
1772702149657375700,2.472375732421875,0.0041740708142519,-0.009521477990504354,0.01536988892487716
1772702149667425000,2.482425048828125,-0.0036047464936971663,-0.0010859868721105157,0.013712013599078636
1772702149677474800,2.492474853515625,0.008067571121454238,-0.005184015041776001,0.00159891396346502
1772702149687523800,2.50252392578125,0.008216624203324318,0.008596746094711125,0.009846330597274936
1772702149697574000,2.512573974609375,-0.0033089784175157544,0.0009661416184157133,0.0015165260597714222
1772702149707622700,2.52262255859375,-0.003013210341334343,0.00799291671635583,0.01619949673298979
1772702149717672700,2.532672607421875,0.0014759177714586257,0.0045906522585079075,-0.00551852367616957
1772702149727722000,2.542721923828125,-0.016630232283473014,-0.007227594899665564,0.023709386022621765
1772702149737771800,2.552771728515625,-0.0040618426114320755,-0.01600384401343763,0.008674569704430177
1772702149747820800,2.56282080078125,0.003866612300276756,-0.008572579767834395,0.005627507325843908
1772702149757870800,2.572870849609375,0.008802315136790275,-0.007877309246361255,0.02282283071274869
1772702149767919900,2.582919921875,-0.0030202246040105817,0.015188326379470526,-0.0016749771576491184
1772702149777970000,2.592969970703125,0.007457914790511131,0.002018902074359357,-0.009918039560038595
1772702149788018700,2.603018798828125,0.009554594808816909,0.003896331585105508,0.011752091153361835
1772702149798068700,2.61306884765625,0.002972293809056282,0.013812964639347046,0.008175075200095307
1772702149808117800,2.62311767578125,0.0037216508716344833,-0.010183047171775251,-0.00015042990491492673
1772702149818167800,2.633167724609375,-0.002264437800645828,0.0037690702099353072,0.01830161097823875
1772702149828216800,2.643216796875,0.002969371199607849,-0.012236235108226537,0.00818383617857471
1772702149838267000,2.653266845703125,0.007602291697263717,0.002201565164886415,0.005896305196708999
1772702149848315600,2.663315673828125,0.009095745125412941,0.004726261336915194,0.007307955243054312
1772702149858365700,2.67336572265625,0.0038560909062623975,-0.003119794254656881,0.009637443936814087
1772702149868415700,2.683415771484375,0.006990297278761863,0.00004385740803554654,0.009923976110480725
1772702149878464800,2.69346484375,0.008482581663131714,0.0006890599763952196,0.008420544711011462
1772702149888514800,2.703514892578125,-0.0007955342918634414,0.019705694206058978,0.003264134628791362
1772702149898563800,2.713563720703125,0.011026420927047729,0.0057733227044343945,0.008274914278800134
1772702149908614000,2.72361376953125,0.00938157632946968,0.0015156652599573135,0.0011958176218671724
1772702149918663000,2.733662841796875,-0.002441547933220863,-0.0015666099959053099,0.00610039466775488
1772702149928713000,2.743712890625,0.0008528174370527267,0.0019327398945577442,-0.0024477561950101514
1772702149938761700,2.75376171875,0.00893324804008007,0.00252091504605487,-0.0044450332427397364
1772702149948811800,2.763811767578125,0.002198386827111244,-0.0010391703220084308,0.0005143769796355628
1772702149958860800,2.77386083984375,0.007438625568151474,0.0037973099237307902,0.0038799741053488104
1772702149968910600,2.78391064453125,0.0066904375493526454,-0.0032388905896805226,0.0056901470661628985
1772702149978960000,2.7939599609375,0.0039987142473459246,-0.015167338390368967,0.015890618013485798
1772702149989010000,2.804010009765625,-0.007221767947077751,-0.003579173661023378,0.003352132572652772
1772702149999058700,2.81405859375,0.005499766460061073,0.0011040522517636417,-0.0051597939159721135
1772702150009108700,2.824108642578125,0.015673369950056075,0.00010282105365768074,-0.005389504168753046
1772702150019157800,2.83415771484375,0.018513561812043187,0.016680336769204586,0.013907442556344903
1772702150029207800,2.844207763671875,0.0004068272352218628,-0.00516145615009591,0.01609358410652494
1772702150039256800,2.8542568359375,0.001602174499630928,-0.00014656886383891104,-0.0009649360420182347
1772702150049307000,2.864306884765625,0.01416647251844406,0.007070358511339873,0.0044564565357635725
1772702150059355600,2.874355712890625,0.006235679519176483,0.010946377960778773,-0.004439265655656345
1772702150069405700,2.88440576171875,0.003991115462779998,0.011244301461428402,0.005965872434736229
1772702150079455000,2.894455078125,-0.007832008799910545,0.004582067093253136,-0.007063588560547214
1772702150089504800,2.9045048828125,0.000848141261935234,0.01546372752105817,0.00907747196649434
1772702150099553800,2.9145537109375,0.006086041915416717,0.0076504051553085445,0.018383969199180138
1772702150109603800,2.924603759765625,0.014765607455372809,-0.008371266775764524,0.00689027553696651
1772702150119652900,2.93465283203125,-0.007379004335403442,-0.003211491126101464,0.019807490063121075
1772702150129703000,2.944702880859375,0.010128010782599449,0.0062216875264421104,-0.0027531232165987603
1772702150139752000,2.954751953125,0.007734978166222572,0.014103307621739804,0.010706781068223063
1772702150149801700,2.9648017578125,0.005938742399215698,0.00455165368868038,-0.003768837314494885
1772702150159850800,2.974850830078125,-0.012616904988884925,-0.014711246919631956,0.01266742959972471
1772702150169900800,2.98490087890625,0.004594342052936554,0.002068074978329241,0.010498577111063058
1772702150179949800,2.99494970703125,-0.0022889877200126646,-0.013197061230707912,0.002440013563260436
1772702150189999900,3.004999755859375,0.01461830793917179,-0.004780877600982785,0.007559397837030701
1772702150200050000,3.0150498046875,-0.00438449869453907,-0.0004744308450259268,0.001985161918250378
1772702150210098700,3.0250986328125,-0.00573299069404602,0.004949676562938839,-0.001572226885939017
1772702150220148700,3.035148681640625,0.008636310920119286,0.0037422187356278298,-0.010327017653151414
1772702150230198000,3.045197998046875,-0.0009369885891675948,0.00856688067940995,0.0008350123523036018
1772702150240247800,3.055247802734375,0.007594108390808105,-0.002761153542716056,-0.0024939334242953916
1772702150250296800,3.065296875,-0.005572831696271896,-0.0032614677476696667,0.008398659389477689
1772702150260347000,3.075346923828125,-0.0027250410497188567,-0.00002992021422833204,0.0035380744656547903
1772702150270395600,3.085395751953125,0.013887655577063559,0.008667564574908465,-0.01862884505505208
1772702150280445700,3.09544580078125,0.009397358420491218,0.0004881305768154561,0.0013703613380203023
1772702150290495000,3.105494873046875,-0.005863923597335815,0.0063946694731712335,-0.0053422446606564335
1772702150300544800,3.115544677734375,0.008353986847400664,0.007789521365053951,0.00015143455191282554
1772702150310593800,3.12559375,0.0052080900371074676,-0.004770538870058953,0.019528488175361416
1772702150320643800,3.135643798828125,0.0035620763957500455,0.0024288528484292327,0.0074056297641363926
1772702150330692900,3.14569287109375,-0.0022755437165498734,0.0036985257243737574,-0.015444810474745463
1772702150340743000,3.155742919921875,-0.0013759645283222197,-0.008649681858345866,0.003912853461643681
1772702150350791700,3.165791748046875,0.004313187023997306,-0.002620228968374431,-0.0018135408115456811
1772702150360841700,3.175841796875,0.008061725902557373,-0.005041117706056684,-0.0030996739152353253
1772702150370890800,3.185890869140625,0.007011924588680267,0.0025351992997340858,0.002294474462594371
1772702150380940800,3.19594091796875,-0.002265606844425201,0.0017809468663297593,0.0031286739641451277
1772702150390989800,3.20598974609375,0.004465162715315819,0.007445237972028553,0.014632379847008268
1772702150401040000,3.216039794921875,0.006706219640374184,-0.018280556773766873,0.0061660209496039895
1772702150411088600,3.226088623046875,-0.009300912308692932,-0.006927059316821396,-0.0007101507134852
1772702150421138700,3.236138671875,0.005216857865452766,0.01974615408061072,-0.009661210688180289
1772702150431188000,3.24618798828125,0.0068657941162586205,0.0007653948819264769,-0.016091145554266405
1772702150441238000,3.256238037109375,0.013746785801649094,0.0023577786399051545,-0.0028697353335912336
1772702150451286800,3.266286865234375,0.014193360525369644,0.00904098273087293,0.012103941364912316
1772702150461336800,3.2763369140625,0.008956044393777847,-0.011143873294256626,0.016973017839156092
1772702150471385600,3.286385498046875,-0.00001987374424934387,-0.006750058782100677,0.016240189502981957
1772702150481435600,3.296435546875,0.004470423412322998,-0.010208747868612408,0.0027832786095561457
1772702150491485000,3.30648486328125,-0.0034568624556064603,-0.010647869938239454,0.002511752208776306
1772702150501534700,3.31653466796875,0.002679448342323303,0.0045584670219570396,-0.009063107797713018
1772702150511583700,3.326583740234375,0.007915595430135727,-0.009000011399667709,-0.003519577544450294
1772702150521633800,3.3366337890625,-0.0022626842349767686,0.016405209622252732,0.030372873916255774
1772702150531682800,3.346682861328125,-0.005703764599561691,0.006537603341508657,0.01238036313651828
1772702150541732900,3.35673291015625,0.01539689109623432,0.0004705218548886478,0.017409742455719968
1772702150551783400,3.366783447265625,0.010306289958953857,0.009687756201811134,0.008134850504272617
1772702150561832200,3.376832275390625,0.012403554499149321,0.004514755744393915,-0.003805678176565561
1772702150571882200,3.38688232421875,0.0031289456754922864,0.007989190389309078,-0.009448227807914373
1772702150581931000,3.396930908203125,0.01016015948653221,0.004922989485412836,0.002389333688793704
1772702150591981000,3.40698095703125,-0.003606500059366226,0.007279233755357563,0.007939172668545507
1772702150602030300,3.4170302734375,-0.0015068974316120147,0.001078150625526905,0.011503950194746721
1772702150612080400,3.427080322265625,0.021837737798690793,0.005949300325848162,-0.0007862641400191932
1772702150622129200,3.437129150390625,0.011665303352475166,-0.001658909655548632,0.006362717132060788
1772702150632179200,3.44717919921875,0.005528992554545403,0.0055265631354413924,0.008749294891476165
1772702150642228200,3.457228271484375,-0.0006079027652740478,0.001735646419879049,0.007643121464573778
1772702150652278300,3.4672783203125,0.02243921082317829,0.010753814530745148,0.012362685915932524
1772702150662327300,3.477327392578125,0.003586626315116882,0.006933415992371738,-0.002042262400349136
1772702150672377000,3.487377197265625,-0.0013525836527347563,0.0036856297101825475,0.0038224489315645768
1772702150682426000,3.497426025390625,0.009418401208519936,0.0042665531369857485,0.012754703741089906
1772702150692476200,3.50747607421875,0.00582885228395462,-0.011074187325220555,-0.001193568582565058
1772702150702525200,3.517525146484375,0.012714520144462584,-0.0035481757345609366,-0.008948829201702029
1772702150712575200,3.5275751953125,0.005681552767753601,0.005425130321271717,-0.014412275389500427
1772702150722624300,3.537624267578125,-0.010477554872632026,0.017454389881622047,-0.01159529543974204
1772702150732674000,3.547674072265625,0.0025409166544675824,-0.015298855815548448,0.005323674674215726
1772702150742723300,3.557723388671875,0.009874912804365157,0.0022748495968058706,0.013128532889008056
1772702150752773400,3.5677734375,0.0025450083076953888,0.016095303422864526,0.003909446795005351
1772702150762822100,3.577822265625,0.0013473229557275771,0.01028882736749947,0.005138917808013502
1772702150772872200,3.5878720703125,0.007632102313637733,0.014457436555344611,0.0016955039224470965
1772702150782921200,3.597921142578125,-0.006731354081630707,-0.004749423016794025,-0.004577954890427645
1772702150792971000,3.607970947265625,0.013618775507807731,-0.0165524908721447,0.0009627943172818049
1772702150803020300,3.618020263671875,0.004191606470942497,-0.013094842965248972,0.020951703078625723
1772702150813070300,3.6280703125,-0.0007464344531297683,-0.002331438622251153,0.018264484705089123
1772702150823119000,3.638119140625,0.017956512451171875,0.0020998948886990546,-0.0015015933521208352
1772702150833169200,3.648169189453125,0.00897591813802719,0.009634491644613444,0.006228313630050979
1772702150843218400,3.658218505859375,-0.006433247917890549,0.019655571454018354,-0.006613463323004543
1772702150853268200,3.668268310546875,0.010029811105132102,0.013191855332627891,0.004862580518086906
1772702150863317200,3.678317138671875,0.007188450199365615,-0.00003885243935510516,0.004037820131739135
1772702150873367300,3.6883671875,0.0035942250996828075,-0.012981098658777772,-0.00946221295078285
1772702150883416000,3.698416015625,0.0053892918229103085,0.009039484893530608,-0.007680457800277508
1772702150893466000,3.708466064453125,0.004344166684150695,-0.004200118570961058,0.002342510288825724
1772702150903516400,3.718516357421875,0.003747369834780693,0.006047974927350879,0.008178123390418476
1772702150913565200,3.728565185546875,0.008538695764541625,-0.01546763651119545,0.012720655341015663
1772702150923615200,3.738615234375,-0.0014864391654729843,-0.02117132804552093,0.008082316599437036
1772702150933664300,3.748664306640625,0.004350596424937248,-0.021209212370496243,0.007049107944045681
1772702150943714000,3.758714111328125,-0.010912439158558844,0.0015202683698385953,0.006055014306202065
1772702150953763300,3.768763427734375,-0.005672200417518616,0.00199603265542537,0.0017164005800033918
1772702150963813400,3.7788134765625,0.009596095862984657,0.0013449666018597781,-0.016609271693835033
1772702150973862100,3.788862060546875,0.01109480998814106,-0.006488722698483616,-0.012823617958568501
1772702150983912200,3.798912109375,-0.004912906482815742,0.0008260938269086182,-0.01973384487159783
1772702150993961200,3.808961181640625,0.01588964304924011,0.0035345856006257234,-0.004364017595513724
1772702151004011300,3.81901123046875,0.014244798451662063,-0.011199896064121275,-0.007706877733033616
1772702151014060300,3.829060302734375,0.006612111616134643,-0.008626903770957142,0.010278484069998376
1772702151024110300,3.8391103515625,0.002269113975763321,0.00004895370826125145,0.015985397324583026
1772702151034159000,3.8491591796875,0.01423836871087551,0.011641009161435067,-0.014117991450929547
1772702151044209200,3.859209228515625,0.013041267880797385,0.014038297827821225,-0.003292972564208321
1772702151054258400,3.869258544921875,0.004212649258971214,0.0011719663888216018,0.001517519290326163
1772702151064308200,3.87930810546875,0.0018178630769252776,-0.013593038278352468,0.02149248172470834
1772702151074357200,3.889357177734375,-0.002973462852835655,-0.006279829188156873,0.015759036656224634
1772702151084407300,3.8994072265625,-0.008812836530804634,-0.004911792237963527,0.00038155579664744436
1772702151094456300,3.909456298828125,-0.005968553015589714,0.0021896737976931035,-0.01720334229657892
1772702151104506400,3.91950634765625,0.007946575090289116,0.005993614391610026,-0.011328879038919694
1772702151114555100,3.92955517578125,0.007941898915171624,0.019946078833192587,-0.000037891174841206515
1772702151124605200,3.939605224609375,0.012433365115523337,0.00832552793789655,0.012198706976277753
1772702151134654200,3.949654296875,0.0003156418204307556,-0.006314425577502697,-0.012052679251844528
1772702151144704300,3.959704345703125,-0.00043254619836807247,-0.0036231041342951356,0.0002322766692028381
1772702151154753300,3.969753173828125,0.0016600421667098998,0.0009505421904847025,-0.014800813482783268
1772702151164803300,3.97980322265625,0.005700841990113258,0.001407985368091613,-0.004209007413603831
1772702151174852000,3.98985205078125,0.0018108488142490385,0.008407178339362144,0.011159790099307428
1772702151184902100,3.999902099609375,0.006598083090782165,0.0014349099076353012,-0.0028396712721791115
1772702151194951200,4.009951171875,0.003158171769976616,-0.006130173318088054,0.0014565623337286524
1772702151205001200,4.020001220703125,0.013480828341841698,0.0024821722045540806,0.00780599529253086
1772702151215050200,4.03005029296875,0.018267478096485136,-0.004632080247439444,0.007766581164172385
1772702151225100300,4.040100341796875,0.008389642682671547,0.007255560618825256,0.0009493777132825926
1772702151235149000,4.050149169921875,0.0003121346890926361,0.0042893494906835255,0.011513284278672653
1772702151245199000,4.06019921875,0.0012087912678718567,-0.00042553193569183347,0.009484570913063362
1772702151255249200,4.070249267578125,-0.007020107895135879,-0.0015166333743371068,-0.004093397660320624
1772702151265298200,4.080298095703125,-0.003279167801141739,0.013131667844299226,0.0021957838780712335
1772702151275348200,4.09034814453125,-0.01121112984418869,-0.005655779005680233,-0.004364275607129093
1772702151285397200,4.100397216796875,0.013777180939912795,0.014328403348196296,-0.010989911141828634
1772702151295447000,4.110447021484375,-0.004780220013856888,0.0015641805768013,-0.005430272287270054
1772702151305496300,4.120496337890625,0.006289455533027648,0.0005465827657841146,0.022977409353107214
1772702151315546400,4.13054638671875,0.01302665483355522,-0.006469908400159329,0.00776598522583954
1772702151325595100,4.14059521484375,0.002404723054170608,0.009323891325481235,0.011908300061803311
1772702151335645200,4.150645263671875,0.01871054568886757,0.02030437248526141,0.006606038068374618
1772702151345694200,4.160694091796875,0.00838555102944374,0.030472167288977652,-0.0031000963236321693
1772702151355744000,4.170743896484375,-0.003135375416278839,-0.0027898681805469095,0.007525118824804667
1772702151365793300,4.180793212890625,0.0050970308780670165,-0.013365768861118702,0.002278194614651147
1772702151375843300,4.19084326171875,0.005545359167456626,0.0031369645851664243,0.006702758174808696
1772702151385892000,4.20089208984375,-0.016749474748969078,0.00009514920385554432,-0.006474819754005875
1772702151395942100,4.210942138671875,0.006744798085093498,-0.0010238448887132108,-0.01617630537035875
1772702151405991400,4.220991455078125,0.003900514569878578,0.007718867281638085,0.003759163020562846
1772702151416041200,4.231041259765625,-0.005229132825136184,-0.002518102034460753,0.002680347958044149
1772702151426090200,4.24109033203125,-0.0043301381587982175,0.005393876666482537,0.012599362482328434
1772702151436140300,4.251140380859375,-0.005381108516454697,-0.0019736564268358053,0.016938286735781002
1772702151446189000,4.26118896484375,-0.0017903905481100081,-0.009592935791518539,-0.003762172394979279
1772702151456239000,4.271239013671875,-0.0038829789131879806,-0.014932798982132225,-0.0022054878547554833
1772702151466288400,4.281288330078125,0.0034510172367095944,-0.01366062362184748,0.009049759692372754
1772702151476338200,4.291338134765625,0.010037994411587715,0.005249810286983847,0.014860229219554457
1772702151486387200,4.30138720703125,0.022160978403687477,0.004260598320234566,0.017172150290582795
1772702151496437200,4.311437255859375,0.017221183913946152,0.008647599499113857,0.003480259314214345
1772702151506486300,4.321486328125,0.0018079262048006056,0.0016578684759326278,0.0036350251842406575
1772702151516536300,4.331536376953125,0.010036825367808342,-0.005939582649432122,-0.004895256661693565
1772702151526585300,4.34158544921875,0.00270049113035202,-0.0006845664643682539,0.00630606189124519
1772702151536635100,4.35163525390625,0.00045183542072772977,-0.006344765916839241,0.008601004428009037
1772702151546684200,4.36168408203125,0.00329261180460453,0.0051354814586229616,0.015401809299946763
1772702151556734200,4.371734130859375,0.018556231909990308,0.004944123604986817,0.0099047325538937
1772702151566783000,4.381782958984375,0.0017985738545656202,-0.013704006105847657,0.01947177813561866
1772702151576833000,4.3918330078125,-0.003144727766513824,-0.0025587080394849178,0.020980298985447732
1772702151586882000,4.401882080078125,0.0038870705664157865,0.006461926023103296,-0.004792677636630833
1772702151596932000,4.41193212890625,0.008225976553559302,0.006191529850196093,-0.00433587834641803
1772702151606982000,4.42198193359375,0.013615852898359298,-0.0021302534943446515,-0.0018648577235406264
1772702151617031200,4.43203125,0.0028378537744283673,0.00011394523587077855,-0.00354278945667902
1772702151627081200,4.442081298828125,0.008522913673520087,-0.0010317542005330324,-0.0009612736470531671
1772702151637130000,4.4521298828125,0.000893149447441101,0.01132386950366199,-0.0060710521255503405
1772702151647180000,4.462179931640625,-0.00015606734454631804,0.0068846449472010135,-0.00017899612898472696
1772702151657229000,4.47222900390625,0.009724106156826019,-0.0015132541071623564,0.0089301130847889
1772702151667279000,4.482279052734375,0.006432663396000861,-0.004379457193240523,0.00444121330085909
1772702151677328100,4.492328125,0.004787234276533127,-0.005455488926917314,0.01798543258497957
1772702151687378200,4.502378173828125,0.01540916605591774,-0.006127268974948674,0.010186736966203898
1772702151697427000,4.512427001953125,-0.008082768690586089,0.0027999877157621083,0.004800621197780128
1772702151707477000,4.52247705078125,0.00718085141479969,0.0006585187076590955,0.01477338661974063
1772702151717526000,4.532526123046875,0.008825111490488051,-0.007634970124159008,0.017081816542451268
1772702151727576000,4.542576171875,0.002388356441259384,0.004115636891592294,-0.005154151909763459
1772702151737625000,4.552625,-0.006741290953755378,-0.0024005400693975385,-0.012542449229897465
1772702151747675100,4.562675048828125,-0.00599134936928749,-0.0026125023196451364,0.009156083310791291
1772702151757724200,4.57272412109375,-0.011531447839736938,0.0031969146114774047,0.003294497801014222
1772702151767774200,4.582774169921875,-0.0012093757897615432,0.005576649354863911,0.002302395190857351
1772702151777823000,4.592822998046875,0.008367430850863456,-0.00654680956127122,0.004973676209745463
1772702151787873000,4.602873046875,0.0040308629512786865,0.009035283642448485,-0.010364459020132197
1772702151797922000,4.612922119140625,-0.00180208098590374,-0.005786364849098027,-0.003073276815365534
1772702151807971800,4.622971923828125,0.0035807810962200162,-0.0187759208089672,-0.0007295107177924364
1772702151818021000,4.633021240234375,0.005225625693798065,-0.00004811345804482698,0.007918817150394898
1772702151828071200,4.6430712890625,0.001785129851102829,0.0014020305513404308,0.014164769185124895
1772702151838120000,4.653119873046875,-0.0022556699723005292,0.004118559501040727,0.0066347823889576826
1772702151848170000,4.663169921875,0.0026788638204336165,0.009502901154197751,0.006674333514634053
1772702151858219300,4.67321923828125,-0.0006119944185018539,0.010177896072622388,-0.01526764554324327
1772702151868269000,4.68326904296875,0.008216624203324318,0.00960219681020826,-0.029352584107941945
1772702151878318000,4.693318115234375,0.016898527830839154,0.008770933617837727,-0.02547895754498895
1772702151888368000,4.7033681640625,0.007020107895135879,-0.008081599646806716,0.0034065958563820457
1772702151898417000,4.7134169921875,0.014801263290643692,-0.009722334324847906,0.026021786584262734
1772702151908467000,4.723467041015625,0.016600421667098998,0.0012390585419721901,0.012216973285330458
1772702151918516200,4.73351611328125,0.0038800563037395476,-0.009955357629433274,0.024919389716756994
1772702151928566000,4.74356591796875,0.0014858546435832975,-0.005144779009930789,-0.001035288731334731
1772702151938615000,4.753614990234375,0.009864975932240486,0.004140022414177656,-0.002489832637913059
1772702151948665000,4.7636650390625,0.00014203881919384003,0.005348411823250353,0.008190023890766314
1772702151958714000,4.773714111328125,0.0034364041894674297,0.006190981860924512,0.0033410494896350426
1772702151968764200,4.78376416015625,-0.006588146218657494,-0.00044516821792349215,-0.0009120664937538094
1772702151978813200,4.793813232421875,-0.013023147702217101,-0.023108744115196166,-0.019389983886969275
1772702151988863000,4.803863037109375,0.012718027275800705,-0.014565098180901258,-0.007608120933140162
1772702151998912000,4.813912109375,0.01152092644572258,-0.0054430313041433686,0.011613931641553062
1772702152008962000,4.823962158203125,0.006436755049228668,0.002510777244530618,-0.015778686638188082
1772702152019012000,4.83401220703125,0.0010527239233255386,0.005981302899308503,-0.0173934374916018
1772702152029061000,4.84406103515625,0.006444353833794593,-0.002158109615650028,-0.008098315602878573
1772702152039111200,4.854111083984375,0.010335516053438186,0.008453519965428858,0.00442665048596682
1772702152049160000,4.864159912109375,-0.009264087429642676,-0.011250055348780005,0.0025031282276147975
1772702152059210000,4.8742099609375,-0.005374094253778458,-0.0022445092574693262,0.01298539580798242
1772702152069259300,4.88425927734375,-0.00043429976403713225,-0.0053099977753125124,0.015215467831434215
1772702152079309000,4.89430908203125,0.00315232655107975,0.003240772019512951,0.0012756231261184438
1772702152089358000,4.904358154296875,-0.010018705189228058,-0.0007998999397270381,-0.0051433519545360466
1772702152099408100,4.914408203125,-0.010466448956727981,0.012210169085208326,-0.00287134048549924
1772702152109457000,4.924456787109375,0.021855273455381394,-0.0014081314985640346,0.00955323168550385
1772702152119507200,4.934507080078125,0.005393967998027801,0.010779990151617675,0.01578904820199823
1772702152129556200,4.94455615234375,0.008089198431372641,0.012352481899037957,0.011226165299827697
1772702152139606000,4.95460595703125,-0.0001432078629732132,0.0015295841874554753,-0.004016519332095049
1772702152149655000,4.964655029296875,0.006740121909976005,-0.008641790812835096,-0.0007565174557268619
1772702152159705000,4.974705078125,0.01272913319170475,-0.007738850623741745,0.0020766624268726444
1772702152169754000,4.984754150390625,0.001954056677222252,-0.006472831009607762,0.00425338541144738
1772702152179804200,4.99480419921875,0.006738368344306946,0.019273896926362066,0.00042208873643539844
1772702152189853000,5.00485302734375,0.0035971477091312405,0.027612247813213614,0.020306575858790893
1772702152199903000,5.014903076171875,-0.001343231302499771,0.02473977938313037,-0.0023607172323740085
1772702152209952000,5.024951904296875,0.0059866731941699974,0.006883932561147958,-0.0013659591575386001
1772702152220002000,5.035001953125,0.005389876344799995,0.00605743687544018,0.00392367853304604
1772702152230051000,5.045051025390625,-0.0005944587618112564,-0.010016768960468471,0.006541681295004673
1772702152240101000,5.05510107421875,0.0018009119421243667,-0.03248637492191046,0.019524517536431085
1772702152250150000,5.06514990234375,0.012424597287178039,-0.019296912475768476,0.009216695490805431
1772702152260200000,5.075199951171875,0.009580313771963118,-0.003986585418134928,0.023521361770387737
1772702152270249200,5.085249267578125,0.011524433577060698,0.0029981406363658604,-0.003494000145199243
1772702152280299000,5.095299072265625,0.003894669350981712,0.009217088216450064,-0.0004478921812609769
1772702152290348000,5.10534814453125,0.019157704934477805,0.007116627072170376,0.007817863826837856
1772702152300398000,5.115398193359375,0.008087444865703583,-0.0009286043533124029,-0.004657196422386914
1772702152310447000,5.125447021484375,0.008536942198872566,0.004267594316601753,-0.0018267701858771033
1772702152320497200,5.1354970703125,0.0052495910912752144,-0.0026704065193422135,0.01035359284953447
1772702152330546200,5.145546142578125,0.007050503033399581,-0.008283150100894272,0.028476924651418812
1772702152340596000,5.155595947265625,0.009295067089796065,-0.007846165189426392,0.007069020504201762
1772702152350645000,5.16564501953125,0.0006155015498399734,-0.00586989668039605,0.006388675840513315
1772702152360695000,5.175695068359375,0.010343114838004111,0.01592480569416657,-0.000014327636163216083
1772702152370744000,5.185744140625,0.00480886158645153,0.009990337611269206,-0.004683894916356075
1772702152380794000,5.195794189453125,0.0028659108251333234,0.0023747480410151183,0.014346107968245632
1772702152390843100,5.205843017578125,0.005562310302257538,-0.010902721482142805,0.010254555205139331
1772702152400893000,5.215892822265625,0.001977437552809715,-0.001753657000605017,0.0069371628690161734
1772702152410942000,5.22594189453125,-0.015079495710134505,-0.012486994998902082,0.01026290519166505
1772702152420992300,5.2359921875,-0.005953939968347549,-0.006996982747875154,0.020753283013252074
1772702152431042000,5.2460419921875,0.0010807809740304947,-0.0016758242577314376,0.016679848145437427
1772702152441091000,5.256091064453125,-0.0038590135157108305,0.011281491666659713,-0.0014991296836873516
1772702152451141000,5.26614111328125,0.005418517917394638,0.003347684726398438,0.011836280571785755
1772702152461190000,5.27618994140625,0.005265957704186439,0.007964932730887084,0.013481031554529909
1772702152471240000,5.286239990234375,-0.004761515313386917,-0.003322130160033703,0.018425856129126623
1772702152481289200,5.296289306640625,-0.0005716624081134796,-0.007787676467839628,0.014797571212926413
1772702152491339000,5.306339111328125,0.010200491496920585,0.01757405247222632,0.011383102577342652
1772702152501388000,5.316387939453125,0.010202245062589644,0.017502265877649185,0.01130679278798634
1772702152511437000,5.32643701171875,0.01469020413160324,0.017067107597086576,-0.00272357974499464
1772702152521487000,5.336487060546875,0.003317746245861053,0.020216310609318316,-0.005432747372146695
1772702152531536100,5.3465361328125,0.013790624943375587,0.007408230429887771,0.003509912383672781
1772702152541586200,5.356586181640625,-0.011647183173894881,-0.008331080895848572,0.003207771648920607
1772702152551635000,5.366635009765625,0.010346621969342232,-0.008636913708318024,-0.008885739653522615
1772702152561685200,5.376685302734375,0.0045113399446010585,-0.010037848281115293,-0.014200596267043146
1772702152571734500,5.386734619140625,0.005557049605250358,-0.0060961431843228634,-0.00014873798803891985
1772702152581784600,5.39678466796875,0.009001052579283714,-0.003945248760748654,-0.022499297846807164
1772702152591833300,5.406833251953125,0.0027168577432632444,-0.0015754874221049248,0.000039959834341425445
1772702152601883400,5.41688330078125,-0.00192015440762043,-0.0007359678580425679,0.0037952846467145715
1772702152611932400,5.426932373046875,0.006607435441017151,-0.010236585723608731,0.02523641064352123
1772702152621982500,5.436982421875,0.0004699555993080139,0.005119224443566054,0.025403558787796644
1772702152632031500,5.447031494140625,0.0063064066678285595,-0.0035772922311909493,0.004108818991738371
1772702152642081500,5.45708154296875,-0.0017740239351987839,-0.004492342983186245,0.016788888877327553
1772702152652130300,5.46713037109375,0.005257189875841141,0.0032303784896619615,0.004829662345885299
1772702152662180400,5.477180419921875,0.0015144962161779403,0.007929203830379991,-0.012513554212264716
1772702152672229600,5.487229736328125,0.006750058782100677,0.017879410360660403,-0.006967069383512717
1772702152682279400,5.497279541015625,0.01333820500075817,0.001397116914205253,0.015277262754959518
1772702152692328400,5.507328369140625,0.007496493235230445,-0.021846706556435672,0.01675364631729899
1772702152702378500,5.51737841796875,0.008393734335899353,-0.0010155885170213877,0.005965740003995597
1772702152712427300,5.52742724609375,0.009141337832808493,-0.003524119005538523,0.006036184024857357
1772702152722477300,5.537477294921875,-0.002080313405394554,0.004814816403202712,0.0024724316952517253
1772702152732526600,5.547526611328125,0.0028577275186777115,-0.010002155913226306,0.00711676178619964
1772702152742576400,5.557576416015625,0.006903203517198562,-0.0054477074792608614,0.007390361413056962
1772702152752625400,5.56762548828125,0.0034632921963930127,0.00766063428837806,0.017687273905600886
1772702152762675500,5.577675537109375,0.0058580783784389495,-0.0101759598438628,0.0009123633212759159
1772702152772724500,5.587724365234375,0.009897124636173248,0.004080072387866676,0.016410568500671067
1772702152782774500,5.5977744140625,0.016326865422725677,0.004130213406216353,0.00579189040758647
1772702152792823600,5.607823486328125,0.008252280038595199,-0.006725125270243734,0.0024792975441669113
1772702152802873300,5.617873291015625,0.012144026780128478,-0.0021270386239513753,0.02518159345005406
1772702152812922400,5.62792236328125,0.017384850043058394,-0.0037416342137381433,0.02016679064547643
1772702152822972400,5.637972412109375,-0.00281856455206871,-0.0005143792629241943,0.002894225887453649
1772702152833021400,5.648021484375,-0.0011725509107112884,-0.007738101705070584,-0.006265380537696182
1772702152843071500,5.658071533203125,0.0015226795226335524,-0.009913235520757735,0.009119749338796827
1772702152853120300,5.668120361328125,0.009005728754401206,0.011134995868057012,0.0002510042025591247
1772702152863170300,5.67817041015625,-0.00012274959683418273,-0.0018505780364386736,0.008659100423951167
1772702152873220400,5.688220458984375,0.004065934264659881,-0.0022329649501480163,-0.013185946181649342
1772702152883269600,5.69826953125,0.014842179822921752,0.012778050367347896,0.007148837424896191
1772702152893319400,5.7083193359375,-0.002068038445711136,-0.008107866599224507,0.0034234921922557987
1772702152903368400,5.718368408203125,0.0024228432327508924,-0.007887684509903192,-0.0031178717256290837
1772702152913418500,5.72841845703125,0.006019990941882133,0.007445877292845398,-0.00293849200415425
1772702152923467500,5.738467529296875,-0.0038549218624830245,0.0008181114498525858,0.020902007301559205
1772702152933517600,5.748517578125,-0.0013087445110082625,-0.003326386210042983,0.003979093948134687
1772702152943566300,5.75856640625,-0.0005623100578784942,-0.021958788628783074,-0.003375255436624866
1772702152953616400,5.768616455078125,0.005723638343811035,-0.007338288732524961,0.002608556796889752
1772702152963665400,5.77866552734375,0.00019172317981719968,-0.00545755301984027,-0.0023030619111377745
1772702152973715500,5.788715576171875,-0.001457213070988655,-0.0075797145392745725,0.0046659254348254756
1772702152983764500,5.798764404296875,0.009767360776662825,0.00010762509293854236,0.0034927945688017644
1772702152993814500,5.808814453125,0.010067220506072044,0.01627957394858822,-0.006224680917838122
1772702153003863300,5.81886328125,-0.010581015247106551,0.0042403044508770105,-0.005512105351826176
1772702153013913300,5.828913330078125,-0.008038929548859595,-0.0013732428482733667,0.00450493075341219
1772702153023962600,5.838962646484375,-0.0005547112733125686,-0.002665255420189351,-0.003457490359980147
1772702153034012400,5.849012451171875,-0.00025426702201366424,-0.0004867058047093451,-0.003012333558499813
1772702153044061400,5.8590615234375,0.003032499563694,-0.004299816085770726,0.014809903254825622
1772702153054111500,5.869111572265625,-0.004898293435573578,-0.0024995069318450988,0.001610287024138961
1772702153064160300,5.87916015625,-0.0025029227316379545,0.001005962172150612,0.004441363997908774
1772702153074210300,5.889210205078125,-0.008186229065060615,0.011219550612661987,0.000037012108718045055
1772702153084259600,5.899259521484375,0.00004442366361618042,-0.011361899959109722,0.0072160848416737275
1772702153094309400,5.909309326171875,0.00003974748849868774,-0.007439082225877791,0.016757030151051004
1772702153104358400,5.9193583984375,-0.0005588029265403748,0.0009420118241570889,0.0026595677482080643
1772702153114408400,5.929408447265625,0.00003682487905025482,-0.005538637165725231,-0.012070187509071547
1772702153124458500,5.93945849609375,-0.0010129764348268508,0.0075762256742455064,-0.0005545971088809892
1772702153134507500,5.949507568359375,0.0052688803136348725,-0.02489659564634785,-0.0038089432793087324
1772702153144557600,5.9595576171875,0.0025748189240694043,0.001915989689156413,0.008206029744073749
1772702153154606300,5.9696064453125,-0.0022147534400224684,-0.0013571136973798273,-0.00016291036057518795
1772702153164656400,5.979656494140625,0.006909048736095428,-0.0001369059863500297,0.018624698602897113
1772702153174705400,5.989705322265625,0.0004728782087564468,-0.007713241258449852,0.010193563999212346
1772702153184755200,5.999755126953125,-0.0011766425639390945,-0.00455826609255746,0.003338295843545347
1772702153194804500,6.009804443359375,0.008998714491724968,0.011131854062899946,0.004324420804064721
1772702153204854500,6.0198544921875,0.0034679683715105056,0.013117566253710538,-0.0020461531241773626
1772702153214903300,6.0299033203125,0.011097148075699805,0.006638853492587804,0.011559434108494315
1772702153224953300,6.039953369140625,0.007056932774186134,-0.006381645594816654,0.012247404956212267
1772702153235002600,6.050002685546875,-0.00042377837002277374,-0.011530845051538199,-0.004798853932379279
1772702153245052400,6.060052490234375,0.0127443307608366,0.0009117445500567555,-0.008009815335518214
1772702153255101400,6.070101318359375,0.0037649054914712906,-0.009340002210065722,0.014385357699822634
1772702153265151500,6.0801513671875,0.017681202641129493,-0.007569047014787793,-0.0024336180718033573
1772702153275200300,6.0902001953125,0.006757073044776916,0.0065449281314387915,0.004383631044859066
1772702153285250300,6.100250244140625,0.00571077886223793,0.00934033100362867,-0.0008095399843296036
1772702153295299600,6.110299560546875,-0.00326864640712738,-0.0033485797755420208,0.00963018536225427
1772702153305349400,6.120349365234375,0.006607435441017151,0.0027925350616686043,0.0010412298483541236
1772702153315398400,6.1303984375,0.015884382352232933,0.0038646578052081164,0.007612577912549022
1772702153325448400,6.140448486328125,-0.007009586501121521,0.0011300269432365894,0.012245580608595628
1772702153335497500,6.15049755859375,-0.0013186813831329346,-0.0005700184402987361,-0.006554853587120306
1772702153345547500,6.160547607421875,-0.0016138649374246596,0.0003318257702514529,0.006298376341711264
1772702153355596500,6.170596435546875,0.0031762919485569,0.00293839153945446,0.024759529829793608
1772702153365646300,6.180646240234375,0.0025783260554075238,-0.008905117924138903,-0.002790802045597229
1772702153375695400,6.1906953125,0.006619125878810883,-0.01238943464225158,0.001101549767423421
1772702153385745400,6.200745361328125,-0.005053776258230209,-0.005339735326450318,-0.005212932892295066
1772702153395794400,6.21079443359375,0.00811199478507042,-0.0026928740794770418,-0.0011890636540949344
1772702153405844500,6.220844482421875,0.00018237082958221434,0.01089607254564762,-0.007673089627863373
1772702153415893500,6.2308935546875,-0.00864566327035427,-0.012615991673432289,-0.008777998112863861
1772702153425943300,6.240943359375,0.0006324526846408844,0.00294507700856775,0.007341282123920973
1772702153435992600,6.25099267578125,0.01664601437449455,0.007654222813900559,0.021096655374113468
1772702153446042600,6.261042724609375,0.0007803367227315903,-0.009829575825296342,0.01711547221688088
1772702153456091400,6.27109130859375,0.007810966011881828,0.0030006979196332394,0.0022391275461646726
1772702153466141400,6.281141357421875,0.011703297275304794,-0.0027741591547615825,-0.0047843847323209045
1772702153476190200,6.291190185546875,-0.014633505508303642,-0.008137092693708837,0.004779313548270147
1772702153486240500,6.301240478515625,0.0072153382062911985,-0.019745368629321455,-0.006210793956380803
1772702153496289500,6.31128955078125,0.014850363129377365,-0.014654383899550883,0.0024933945681783368
1772702153506339600,6.321339599609375,0.01215747078359127,-0.01929917749809101,0.014175797469215467
1772702153516389400,6.331389404296875,-0.0005599719703197479,0.001711187832057476,0.007016315352718811
1772702153526438400,6.3414384765625,0.010813654959201812,0.007959946028515696,0.00925506387297064
1772702153536488400,6.351488525390625,-0.007443886265158653,0.006838778245169669,0.008402881190157495
1772702153546537500,6.361537353515625,0.0024281039297580718,0.009234824802540242,0.004584962303237989
1772702153556586800,6.371586669921875,0.011108253991603851,0.0009825812965631483,0.003028115649521351
1772702153566635800,6.3816357421875,0.0013800561815500258,0.012305537484772503,-0.001487327364750672
1772702153576685600,6.391685546875,0.006016483810544013,-0.005547295396216213,-0.0008499678928405046
1772702153586734800,6.40173486328125,0.00017535656690597534,-0.00968110726531595,0.012465748998185153
1772702153596785000,6.411784912109375,-0.001917231798171997,-0.0011014584358781576,0.00465013192736078
1772702153606833700,6.421833740234375,0.0039233109235763544,-0.014297789014223962,0.009728325674217194
1772702153616883700,6.4318837890625,0.0021305822879076003,-0.00678781524291262,-0.0024190826563746668
1772702153626932700,6.4419326171875,-0.0040068975538015365,0.005551752375625074,-0.00941025671797106
1772702153636982800,6.451982666015625,0.003022562691569328,-0.0034403497122228142,-0.016859693657793103
1772702153647031800,6.46203173828125,-0.0014624737679958342,0.010154569995962082,-0.001289784082211554
1772702153657081900,6.472081787109375,-0.0032592940568923947,-0.00278257992323488,0.008901055953663308
1772702153667130600,6.482130615234375,-0.00819908854663372,0.0053774917872622605,0.004885621183668263
1772702153677180700,6.4921806640625,-0.0007166238367557525,0.020610095699876544,0.007406125237769447
1772702153687229700,6.502229736328125,0.01125379994213581,0.0010296718413010239,0.014100040235708001
1772702153697279700,6.51227978515625,0.010953940212726592,-0.00300853416621685,-0.014380507994769141
1772702153707328800,6.522328857421875,-0.004754501050710678,0.0031239589731208977,0.017152655572246295
1772702153717378600,6.532378662109375,-0.006401099213957786,0.0029888065524399277,0.0010759609517292119
1772702153727427800,6.542427734375,0.005717793124914169,0.003651873571053147,-0.007237556887965183
1772702153737478000,6.552477783203125,0.014997078123688697,0.0007325520582497119,-0.017534825573535636
1772702153747526700,6.562526611328125,0.0019797756403684614,0.009247483354713768,0.006537448077881708
1772702153757576700,6.57257666015625,0.006019990941882133,-0.0046631877717562015,0.008795894529158249
1772702153767625700,6.582625732421875,0.0075134443700313564,-0.0035049576473422345,0.007989299987163394
1772702153777675500,6.592675537109375,0.010201660540699958,-0.015243052241392432,0.006716005815449171
1772702153787724800,6.602724853515625,-0.014035539615154266,-0.0057062305512838064,-0.000081759999319911
1772702153797774800,6.61277490234375,0.010212181934714317,-0.005371938829310238,0.013289826681232079
1772702153807823600,6.62282373046875,0.01635141534209251,-0.011233889665268362,0.010316304462892003
1772702153817873700,6.632873779296875,-0.008190320718288421,0.010214921881072222,0.0010416728063486517
1772702153827923000,6.6429228515625,0.017697569254040715,0.0021085713854990897,0.0035801691748667507
1772702153837972700,6.65297265625,0.008418868777155876,0.009797573251836002,-0.010219319494976661
1772702153848021800,6.663021728515625,0.01575111136138439,-0.002623717833403498,0.001229676508984994
1772702153858071800,6.67307177734375,-0.002354454171657562,-0.01597200583675876,0.002805440209014341
1772702153868120600,6.68312060546875,0.0046831893801689145,-0.011108527986239642,0.010989673679810947
1772702153878170600,6.693170654296875,0.011266659423708915,-0.00465014562709257,0.007875962106068618
1772702153888220000,6.703219970703125,-0.012229951497912407,0.01436648860257119,0.014135657255072145
1772702153898269700,6.713269775390625,-0.0013087445110082625,-0.004845759530737996,0.007223327433213126
1772702153908318700,6.723318603515625,0.012160393393039703,-0.001170961741823703,0.020579054390930104
1772702153918368800,6.73336865234375,0.008123100700974464,0.0004923500942066311,0.0001234368667122908
1772702153928418600,6.74341845703125,0.0066296472728252405,-0.010815499856416135,0.0016116798302042298
1772702153938467800,6.7534677734375,0.0036368951976299283,-0.010836286916118114,0.006251269813952967
1772702153948518000,6.763517822265625,0.006028174248337745,-0.019512473188899458,-0.002629174893232994
1772702153958566700,6.773566650390625,0.006028174248337745,-0.0009418108947575091,-0.00898710168574471
1772702153968616700,6.78361669921875,-0.010131517913937568,0.009022332829330116,0.0004608795269974507
1772702153978665700,6.793665771484375,-0.00938332989513874,-0.0012956658337265252,0.0032847139092278665
1772702153988715800,6.8037158203125,0.006627893707156181,0.0073569203677587205,0.004638124112447258
1772702153998764800,6.813764892578125,0.003188566908240318,0.016802099985349924,0.002355024993815459
1772702154008814800,6.82381494140625,0.002893383353948593,-0.0033198286050930615,-0.005386485661182086
1772702154018863600,6.833863525390625,-0.0008475567400455475,-0.012452325544320046,0.011053671976865733
1772702154028913700,6.84391357421875,0.009774375039339065,-0.00693984573315829,0.003769997225119732
1772702154038963000,6.853962890625,0.007675941455364227,-0.015899452057201415,0.002086706613563001
1772702154049012700,6.8640126953125,-0.006087210959196091,-0.008432312780618668,-0.013356487292831298
1772702154059061800,6.874061767578125,0.004089315140247345,-0.0002490793902426958,0.0008756480400799773
1772702154069111800,6.88411181640625,0.007079729127883911,0.005230575863551348,-0.0025677544290432703
1772702154079160600,6.89416064453125,0.007530980026721954,-0.0014458696930669248,0.0036135280217742547
1772702154089210600,6.904210693359375,0.003190320473909378,0.006401574137993156,0.0065833764287061055
1772702154099259600,6.914259765625,-0.006535539248585701,0.008460095836687833,0.01822357730596559
1772702154109309700,6.924309814453125,0.004239537265896797,-0.014481000094022601,0.00727214186086785
1772702154119358700,6.934358642578125,0.012019523617625236,0.0075526621355675155,-0.009968251360335852
1772702154129408800,6.94440869140625,0.0015431377887725828,0.014803363916184753,-0.007048037081677466
1772702154139457800,6.954457763671875,-0.010131517913937568,0.0005571589587256312,0.006589886084594763
1772702154149507800,6.9645078125,-0.002499415600299835,-0.005592394913267344,0.0009269033032818696
1772702154159556600,6.974556640625,-0.002199555870890617,-0.007431392109766602,0.005391024838981684
1772702154169606700,6.984606689453125,-0.007881693160533904,-0.0021909889719448983,0.017754080647672525
1772702154179655700,6.99465576171875,-0.004143675675988197,-0.0012157689979299903,-0.009546854460355825
1772702154189705700,7.004705810546875,0.001841243952512741,-0.0019418913153931498,-0.0002563448146684095
1772702154199754800,7.014754638671875,0.007975216662883759,-0.005468275343254208,0.020217073227721264
1772702154209804800,7.0248046875,-0.007436872002482414,-0.009676010965090244,0.0019936945678666234
1772702154219853600,7.034853515625,0.002437456279993057,0.0014604096750728784,-0.0012868888722267
1772702154229903600,7.044903564453125,0.00003974748849868774,-0.012731416480336337,0.005213727476738859
1772702154239953000,7.054952880859375,0.006471826362609863,-0.0032303236907348033,0.01202111050322419
1772702154250002700,7.065002685546875,0.012758943808078765,0.004460486540198326,-0.0035403394879773256
1772702154260051700,7.0750517578125,0.010815408524870871,-0.00982572163408622,-0.004988339489337522
1772702154270101800,7.085101806640625,0.009620061260461806,-0.009296016937866806,0.020464488100551532
1772702154280150500,7.095150634765625,0.01141454346179962,0.00972775941863656,0.013483906214917078
1772702154290200800,7.105200927734375,0.0018348142117261886,-0.008692552885692565,0.0016389765457948669
1772702154300249900,7.115249755859375,-0.0023550386935472485,-0.00808614795776084,-0.0005362143521080724
1772702154310299600,7.125299560546875,0.009019172757863998,-0.007738119971379637,0.005521610682399478
1772702154320348700,7.1353486328125,0.0009364040672779082,-0.005002173935156316,0.004275830138695892
1772702154330398700,7.145398681640625,-0.062248658642172806,0.000995641707535833,-0.020308669634466057
1772702154340448500,7.155448486328125,-0.031633740147948265,0.0011722769160754979,-0.0102273384046508
1772702154350497800,7.165497802734375,-0.081720836353302,0.009500106408912688,-0.020740311650536022
1772702154360547800,7.1755478515625,-0.02439209845662117,-0.002949570520594716,-0.015889158992050213
1772702154370596600,7.1855966796875,0.11515022774636745,-0.012596355391200631,0.012861760295159183
1772702154380645600,7.195645751953125,0.3328314401626587,-0.03236530582550913,0.05605469480629544
1772702154390696000,7.205696044921875,0.24359423682987688,-0.016190872751828282,0.07682798627782612
1772702154400745700,7.215745849609375,-0.4306295510917902,0.04200478417249396,-0.07928794665057212
1772702154410794800,7.225794677734375,-0.15698387486934662,0.032871118189487604,-0.029998640626249833
1772702154420844800,7.2358447265625,0.3235702753424644,-0.016186068712547422,0.08822548727327957
1772702154430893600,7.2458935546875,-0.3080857059627771,0.02288733818316832,-0.07835740606850013
1772702154440943600,7.255943603515625,0.17961071721911429,-0.03514492660667747,0.05134972741915844
1772702154450993000,7.265992919921875,-0.09947685779631137,0.0010306582219898701,-0.016338596959714777
