time,seconds_elapsed,z,y,x
1772702147240467500,0.055467529296875,-0.0008053398923948407,0.009414007887244225,0.0012985573848709464
1772702147250516500,0.0655166015625,-0.0019630161114037037,0.005274923052638769,-0.0033742249943315983
1772702147260566500,0.07556640625,-0.00141041015740484,0.006524212192744017,0.0015355786308646202
1772702147270615600,0.085615478515625,0.0025390577502548695,0.004500475712120533,0.0004953479510731995
1772702147280665300,0.095665283203125,-0.00006258428766159341,0.005059206858277321,-0.00036432043998502195
1772702147290714600,0.105714599609375,-0.004088218789547682,0.0059899818152189255,-0.0014255901332944632
1772702147300764700,0.1157646484375,-0.0008594020619057119,0.006999319884926081,0.0025843314360827208
1772702147310814500,0.125814453125,-0.001377386855892837,0.00839907769113779,0.0007661914569325745
1772702147320863500,0.135863525390625,-0.0005877596559002995,0.007104248274117708,0.0015299860388040543
1772702147330913500,0.14591357421875,-0.0009259810904040933,0.005501291714608669,-0.0038988678716123104
1772702147340962300,0.15596240234375,-0.0026285399217158556,0.006398244295269251,0.001645300886593759
1772702147351012400,0.166012451171875,-0.0011920308461412787,0.005311941262334585,-0.000862864195369184
1772702147361061600,0.1760615234375,-0.0025952504947781563,0.00863396842032671,-0.00040613205055706203
1772702147371111400,0.186111328125,-0.0016887104138731956,0.007604922633618116,0.0007321029552258551
1772702147381160400,0.196160400390625,-0.00253453035838902,0.00424374733120203,0.0023574302904307842
1772702147391210500,0.20621044921875,-0.001141963410191238,0.007905594073235989,0.0020817930344492197
1772702147401259500,0.216259521484375,-0.0015371765475720167,0.005568669643253088,-0.0013395700370892882
1772702147411309600,0.2263095703125,-0.0009898969437927008,0.007754059974104166,0.000651675509288907
1772702147421358600,0.236358642578125,0.0007912251749075949,0.007813714444637299,0.0003158508916385472
1772702147431408400,0.246408447265625,-0.0002079928817693144,0.008636897429823875,-0.00042637207661755383
1772702147441457400,0.25645751953125,-0.0006167881074361503,0.0065319351851940155,-0.0004146541759837419
1772702147451507500,0.266507568359375,-0.0014713965356349945,0.00600383011624217,-0.001213868847116828
1772702147461556500,0.276556396484375,-0.00040187101694755256,0.00777536490932107,0.0003677825443446636
1772702147471606500,0.2866064453125,-0.0005960154230706394,0.007370830979198217,-0.002579005202278495
1772702147481655300,0.2966552734375,-0.0013630058383569121,0.0073351445607841015,-0.0004809668753296137
1772702147491705300,0.306705322265625,-0.0007837683078832924,0.009326922707259655,-0.00239258399233222
1772702147501754600,0.316754638671875,-0.0031380027066916227,0.007737015374004841,-0.002100701443850994
1772702147511804700,0.3268046875,-0.0016144082183018327,0.008565524592995644,-0.0006407565670087934
1772702147521853400,0.336853515625,0.00245090713724494,0.008474444970488548,0.0015835155500099063
1772702147531903500,0.346903564453125,-0.0012652678415179253,0.007611314300447702,0.001100684516131878
1772702147541952300,0.3569521484375,-0.0002817624481394887,0.008019044063985348,-0.00022849922243040055
1772702147552002600,0.36700244140625,-0.0036192359402775764,0.006854976527392864,0.0011073424248024821
1772702147562051600,0.377051513671875,-0.0026429209392517805,0.00857244897633791,-0.004278901033103466
1772702147572101600,0.3871015625,-0.0012591425329446793,0.0073354109190404415,-0.0015867113834246993
1772702147582151700,0.397151611328125,-0.0008013451588340104,0.007256315089762211,-0.0013701963471248746
1772702147592200400,0.407200439453125,-0.0006250438746064901,0.008611864410340786,-0.001957956003025174
1772702147602250500,0.41725048828125,-0.001315068919211626,0.007844340987503529,0.00005619269722956233
1772702147612299500,0.427299560546875,0.00046312372433021665,0.008477107621729374,-0.00021305288828443736
1772702147622349600,0.437349609375,-0.0019973707385361195,0.00887844618409872,-0.001740375766530633
1772702147632398600,0.447398681640625,-0.00042317630141042173,0.007312507834285498,-0.0007121292874217033
1772702147642448600,0.45744873046875,0.0012575446162372828,0.006259227637201548,-0.002156095113605261
1772702147652497400,0.467497314453125,-0.0008886968716979027,0.005976932588964701,0.000291616132017225
1772702147662547700,0.477547607421875,-0.0008056062506511807,0.006901315413415432,-0.0008783105295151472
1772702147672596500,0.487596435546875,-0.0020985708106309175,0.005393167492002249,-0.0031827439088374376
1772702147682646500,0.497646484375,-0.0016559535870328546,0.008767925202846527,-0.000999484327621758
1772702147692695600,0.507695556640625,-0.002525209216400981,0.00896633043885231,-0.0005954828229732811
1772702147702745600,0.51774560546875,-0.0002814961189869791,0.009239837527275085,-0.000809068325906992
1772702147712794600,0.527794677734375,-0.00017363809456583112,0.007480286993086338,0.0006601976347155869
1772702147722844700,0.5378447265625,-0.002026133006438613,0.00872158631682396,-0.0012173309223726392
1772702147732893400,0.5478935546875,-0.0006636597099713981,0.007395065855234861,0.0008016114588826895
1772702147742943500,0.557943603515625,0.0005717806634493172,0.007930627092719078,-0.0009709885343909264
1772702147752992500,0.567992431640625,0.00010892329009948298,0.00675217853859067,-0.0011153318919241428
1772702147763042600,0.57804248046875,-0.0013187973527237773,0.007127950433641672,0.000045806369598722085
1772702147773091600,0.588091552734375,-0.00138031633105129,0.008733304217457771,0.0001560612436151132
1772702147783141600,0.5981416015625,-0.0018783274572342634,0.007920773699879646,-0.0012578109744936228
1772702147793190400,0.6081904296875,0.0011552792275324464,0.005886384751647711,0.0014197311829775572
1772702147803240400,0.618240478515625,0.0008908273885026574,0.006943659856915474,-0.0034847462084144354
1772702147813289700,0.628289794921875,0.00033342777169309556,0.005911951418966055,-0.0000351537273672875
1772702147823339500,0.638339599609375,-0.0012159993639215827,0.004089550115168095,0.0003635214816313237
1772702147833388500,0.648388427734375,-0.0026109630707651377,0.007733020931482315,-0.00061279337387532
1772702147843438600,0.6584384765625,-0.0015635418239980936,0.006480802316218615,0.001466602785512805
1772702147853487600,0.668487548828125,-0.0015451660146936774,0.007802529260516167,-0.00036751621519215405
1772702147863537700,0.67853759765625,-0.0021438447292894125,0.006459231022745371,-0.002475142013281584
1772702147873587700,0.688587646484375,-0.001181111903861165,0.006327404174953699,-0.00239258399233222
1772702147883636500,0.698636474609375,-0.0031140341889113188,0.007166832685470581,-0.0032730249222368
1772702147893686500,0.7086865234375,-0.0008130630594678223,0.006749249063432217,-0.0019345202017575502
1772702147903735600,0.718735595703125,0.000016777914424892515,0.006096241995692253,-0.0009339706157334149
1772702147913785300,0.728785400390625,0.00012090751260984689,0.004810467828065157,0.003242398612201214
1772702147923834600,0.738834716796875,-0.0009438242996111512,0.005534048657864332,0.002644518855959177
1772702147933884700,0.748884765625,-0.002118278294801712,0.008681639097630978,0.001056209672242403
1772702147943933400,0.758933349609375,0.002525475574657321,0.0062304651364684105,-0.0032676986884325743
1772702147953983500,0.7689833984375,0.0008311725687235594,0.00660650385543704,0.001883121207356453
1772702147964032800,0.77903271484375,-0.000026897927455138415,0.007122091483324766,0.0016165387351065874
1772702147974082600,0.78908251953125,0.0008346347021870315,0.007045392412692308,-0.002094309777021408
1772702147984131600,0.799131591796875,-0.0011086739832535386,0.0072925337590277195,-0.0009142631897702813
1772702147994181600,0.809181640625,0.0002695118892006576,0.007434480357915163,-0.0014588796766474843
1772702148004230400,0.81923046875,-0.0015393070643767715,0.005313538946211338,0.000520647969096899
1772702148014280400,0.829280517578125,-0.0014386395923793316,0.006941263098269701,0.0019747340120375156
1772702148024329700,0.839329833984375,0.0007621967233717442,0.00694978516548872,0.00024501082953065634
1772702148034379500,0.849379638671875,0.0004964132094755769,0.007768973242491484,0.000577107013668865
1772702148044428500,0.859428466796875,0.001315068919211626,0.00755112711340189,-0.0021992383990436792
1772702148054478600,0.869478515625,-0.0008434231276623905,0.006730873137712479,-0.0005882922559976578
1772702148064527600,0.879527587890625,-0.0021813951898366213,0.009349559433758259,0.0028072381392121315
1772702148074577700,0.88957763671875,-0.0006772418855689466,0.007183876819908619,0.00007004113285802305
1772702148084626700,0.899626708984375,-0.002447977662086487,0.007773234508931637,0.0016495619202032685
1772702148094676500,0.909676513671875,-0.0025244103744626045,0.006592388730496168,-0.001404284848831594
1772702148104725500,0.9197255859375,-0.0020535634830594063,0.007241401355713606,-0.0007209177128970623
1772702148114775600,0.929775634765625,-0.001823732745833695,0.006473878398537636,-0.002380067016929388
1772702148124824600,0.939824462890625,-0.0003504719934426248,0.007506652269512415,0.0014623417519032955
1772702148134874600,0.94987451171875,0.0008053398923948407,0.0037468012887984514,0.0008596684201620519
1772702148144923400,0.95992333984375,-0.0012839100090786815,0.008684301748871803,-0.0028093685396015644
1772702148154973400,0.969973388671875,-0.0008016114588826895,0.005346295889467001,-0.002270611235871911
1772702148165023500,0.9800234375,-0.0038956720381975174,0.006806773599237204,-0.001677525113336742
1772702148175072800,0.99007275390625,-0.0024799355305731297,0.009828928858041763,-0.0000577905957470648
1772702148185122600,1.00012255859375,-0.0014919028617441654,0.007348726503551006,-0.0012977584265172482
1772702148195171600,1.010171630859375,-0.000928377965465188,0.00890640914440155,-0.0006713828770443797
1772702148205221600,1.0202216796875,0.00021544973424170166,0.006785468198359013,-0.0041521345265209675
1772702148215270400,1.0302705078125,0.00017417073831893504,0.007345264777541161,-0.0007379619055427611
1772702148225320700,1.04032080078125,-0.0032570459879934788,0.009341304190456867,-0.002114816103130579
1772702148235369500,1.050369384765625,-0.0032344090286642313,0.006086388137191534,0.00021518341964110732
1772702148245419500,1.06041943359375,-0.005634449888020754,0.007231547497212887,-0.004760134033858776
1772702148255468500,1.070468505859375,-0.0014444985426962376,0.008946090936660767,-0.002662095706909895
1772702148265518600,1.0805185546875,-0.0014777880860492587,0.007288805674761534,-0.002371278591454029
1772702148275567600,1.090567626953125,-0.0011147991754114628,0.0065742796286940575,0.000990695902146399
1772702148285617700,1.10061767578125,0.00018562232435215265,0.009588977321982384,-0.0025220136158168316
1772702148295666400,1.11066650390625,-0.00019121496006846428,0.006795321591198444,0.0022357236593961716
1772702148305716500,1.120716552734375,-0.0027515781112015247,0.007763114292174578,-0.0005579322460107505
1772702148315765500,1.130765625,0.0013046825770288706,0.0049470881931483746,0.0004780374001711607
1772702148325815600,1.140815673828125,-0.00112465291749686,0.006627808790653944,0.0006122607155703008
1772702148335864600,1.150864501953125,-0.002017344580963254,0.007498396094888449,-0.0011611381778493524
1772702148345914600,1.16091455078125,-0.0013036173768341541,0.006870955694466829,0.00044288369826972485
1772702148355963400,1.17096337890625,-0.001499625970609486,0.004756938200443983,-0.0024224112275987864
1772702148366013400,1.181013427734375,0.0003944141499232501,0.007830758579075336,-0.0007131945458240807
1772702148376062700,1.191062744140625,-0.0016618125373497605,0.007682420779019594,-0.001969940261915326
1772702148386112500,1.201112548828125,-0.0021113541442900896,0.006942860782146454,0.001606152392923832
1772702148396161500,1.21116162109375,-0.0032296155113726854,0.007780425250530243,-0.0003251719754189253
1772702148406211600,1.221211669921875,-0.0012777847005054355,0.00987233780324459,-0.0006601976347155869
1772702148416261600,1.23126171875,0.0014213290996849537,0.009850233793258667,-0.00205249828286469
1772702148426310700,1.241310546875,-0.0014282532501965761,0.00734340026974678,-0.0006540723843500018
1772702148436360700,1.251360595703125,0.0004719121498055756,0.007595069240778685,0.0007781756576150656
1772702148446409500,1.261409423828125,0.00031132352887652814,0.009475793689489365,-0.0013901700731366873
1772702148456459500,1.27145947265625,-0.0014064153656363487,0.009862218052148819,0.0009478190331719816
1772702148466508500,1.281508544921875,-0.00016112125013023615,0.006373210810124874,-0.0022953785955905914
1772702148476558300,1.291558349609375,-0.001193362521007657,0.007814513519406319,-0.0007091998122632504
1772702148486607600,1.301607666015625,0.0010881676571443677,0.00711809704080224,-0.0007936219917610288
1772702148496657700,1.31165771484375,-0.0015433018561452627,0.006156695540994406,-0.0022186795249581337
1772702148506706400,1.32170654296875,-0.00036964676110073924,0.007950601167976856,0.0013771206140518188
1772702148516756500,1.331756591796875,0.0001882854849100113,0.009063802659511566,0.001415736391209066
1772702148526805800,1.3418056640625,0.00007616640505148098,0.007361243478953838,0.0005169195355847478
1772702148536855600,1.35185546875,-0.0009901633020490408,0.00814794097095728,-0.0010269149206578732
1772702148546904600,1.361904541015625,-0.00017550231132190675,0.007395065855234861,-0.0002969424531329423
1772702148556953600,1.37195361328125,-0.001612544059753418,0.006874151527881622,-0.002852511825039983
1772702148567002600,1.382002685546875,-0.0015627428656443954,0.007011304143816233,0.0008703210623934865
1772702148577052700,1.392052734375,0.0012170645641162992,0.007483482826501131,-0.00035366779775358737
1772702148587101700,1.402101806640625,0.0007643272401764989,0.007044593803584576,0.000508663768414408
1772702148597151500,1.4121513671875,-0.00025007082149386406,0.006461894139647484,-0.00010626012954162434
1772702148607200500,1.422200439453125,0.0000125168571685208,0.007266168482601643,0.0001984054979402572
1772702148617250600,1.43225048828125,-0.0025939189363271,0.007820372469723225,-0.0011835087789222598
1772702148627299600,1.442299560546875,0.000330231967382133,0.007242466323077679,0.003482881933450699
1772702148637349600,1.452349609375,0.0010064085945487022,0.007476292084902525,-0.0005701828049495816
1772702148647398700,1.462398681640625,-0.00046339002437889576,0.006317284423857927,0.0011398328933864832
1772702148657448400,1.472448486328125,-0.001413339632563293,0.007434746716171503,0.000559530162718147
1772702148667497700,1.482497802734375,-0.001976065570488572,0.005832589231431484,-0.000009853695701167453
1772702148677547800,1.4925478515625,-0.0018298579379916191,0.007187871728092432,-0.0011147991754114628
1772702148687596500,1.502596435546875,-0.0014855111949145794,0.007631021551787853,-0.000024767397917457856
1772702148697646600,1.512646484375,-0.003519367426633835,0.007652859669178724,-0.0005909554311074317
1772702148707695400,1.5226953125,-0.0006815029191784561,0.004416053649038076,-0.0006852313526906073
1772702148717745700,1.53274560546875,-0.00006657902849838138,0.005684783682227135,-0.00009720538218971342
1772702148727795700,1.542795654296875,0.0008005462004803121,0.006481867749243975,0.001008539111353457
1772702148737844700,1.5528447265625,-0.00017603494052309543,0.006590791046619415,0.001434112200513482
1772702148747894500,1.56289453125,-0.0020564929582178593,0.008582036942243576,-0.00025007082149386406
1772702148757943600,1.572943603515625,-0.0008756473544053733,0.006903978530317545,-0.0015331818722188473
1772702148767993600,1.58299365234375,-0.0018016285030171275,0.00808935146778822,-0.0021758025977760553
1772702148778042600,1.593042724609375,-0.0025542378425598145,0.007786017842590809,0.0010335728293284774
1772702148788092700,1.6030927734375,0.0007384945638477802,0.0059569585137069225,0.0003046656202059239
1772702148798141700,1.6131416015625,-0.0006625944515690207,0.008566590026021004,-0.0014479606179520488
1772702148808191500,1.62319140625,-0.0006894923863001168,0.0079146483913064,0.0006242449744604528
1772702148818240800,1.63324072265625,-0.0005041363765485585,0.00683233980089426,0.0002644518972374499
1772702148828290800,1.643290771484375,-0.0021576930303126574,0.00774607015773654,-0.0001757686259225011
1772702148838339600,1.653339599609375,-0.002600310370326042,0.007980428636074066,-0.00014913702034391463
1772702148848389600,1.6633896484375,-0.0012956279097124934,0.009035040624439716,-0.0015552861150354147
1772702148858438400,1.6734384765625,-0.0029704899061471224,0.006625145673751831,-0.0009539442835375667
1772702148868488400,1.683488525390625,-0.0021489046048372984,0.007370031904429197,-0.0024533038958907127
1772702148878537700,1.693537841796875,-0.001252750982530415,0.006192914675921202,-0.0000013315805063029984
1772702148888587800,1.703587890625,-0.0031012510880827904,0.007053115870803595,-0.0010719223646447062
1772702148898636500,1.713636474609375,-0.0026847326662391424,0.008740228600800037,-0.0022003035992383957
1772702148908686600,1.7236865234375,-0.0011944277212023735,0.009710684418678284,-0.001651159836910665
1772702148918735600,1.733735595703125,-0.0022208099253475666,0.007211573887616396,0.000645550258923322
1772702148928785700,1.74378564453125,-0.00016218650853261352,0.006825681775808334,0.0015076154377311468
1772702148938834700,1.753834716796875,-0.002909503411501646,0.008559665642678738,-0.0012383698485791683
1772702148948884500,1.763884521484375,0.0000250337143370416,0.0059814597479999065,-0.001998702296987176
1772702148958933500,1.77393359375,0.0003534014686010778,0.006208627484738827,0.0031784826423972845
1772702148968983600,1.783983642578125,-0.0020130835473537445,0.009747968055307865,0.0006021407316438854
1772702148979032600,1.794032470703125,-0.004790227860212326,0.005504221189767122,0.0010522148804739118
1772702148989082600,1.80408251953125,-0.004408863373100758,0.009977266192436218,-0.002252501668408513
1772702148999131600,1.814131591796875,-0.0020090886391699314,0.007903995923697948,-0.0019941749051213264
1772702149009181400,1.824181396484375,0.0009733853512443602,0.006441920530050993,0.003260508179664612
1772702149019230700,1.834230712890625,0.0004293015517760068,0.006461894139647484,-0.00019121496006846428
1772702149029280800,1.84428076171875,-0.0001893507578643039,0.00697801448404789,-0.0017100156983360648
1772702149039329500,1.85432958984375,-0.00285011506639421,0.0070579093880951405,-0.001728657865896821
1772702149049379600,1.864379638671875,-0.0030421288684010506,0.010175672359764576,-0.003466370515525341
1772702149059429600,1.8744296875,-0.002472212305292487,0.0076211681589484215,-0.0007422229973599315
1772702149069478400,1.884478515625,-0.0015510249650105834,0.007167099043726921,0.0005060005933046341
1772702149079528400,1.894528564453125,-0.0009523464250378311,0.005681854207068682,-0.0007792409160174429
1772702149089577700,1.90457763671875,-0.0034679684322327375,0.005918608978390694,-0.0008431567694060504
1772702149099627500,1.91462744140625,-0.0012476909905672073,0.007877630181610584,0.0011526161106303334
1772702149109676500,1.924676513671875,-0.0029550434555858374,0.0072989254258573055,-0.002752376953139901
1772702149119726600,1.9347265625,0.0003944141499232501,0.007071491796523333,-0.0025031049735844135
1772702149129775600,1.944775634765625,-0.002257827902212739,0.005805691238492727,-0.002261290093883872
1772702149139825700,1.95482568359375,-0.0013627394801005721,0.00697828084230423,-0.0010069411946460605
1772702149149874700,1.964874755859375,0.00010519486386328936,0.006328469607979059,-0.002240517409518361
1772702149159924500,1.974924560546875,0.0012833772925660014,0.005072522908449173,0.00024580975878052413
1772702149169973500,1.984973388671875,-0.0012431635987013578,0.007911984808743,-0.0020477045327425003
1772702149180023600,1.9950234375,-0.00020240024605300277,0.011034541763365269,-0.0007629956235177815
1772702149190072600,2.005072509765625,-0.0027920580469071865,0.005017395596951246,0.0008040083339437842
1772702149200122600,2.01512255859375,0.000218645524000749,0.007138337008655071,-0.0014583469601348042
1772702149210171600,2.025171630859375,-0.001686846255324781,0.006277336739003658,-0.00035473305615596473
1772702149220221400,2.035221435546875,-0.00019813918333966285,0.005876531358808279,0.0012780509423464537
1772702149230270700,2.045270751953125,-0.001404018490575254,0.007924235425889492,-0.0006021407316438854
1772702149240320800,2.05532080078125,-0.001029311795718968,0.006587328854948282,0.00011052118497900665
1772702149250369500,2.06536962890625,-0.0016085492679849267,0.004545216914266348,-0.0018112158868461847
1772702149260419600,2.075419677734375,-0.0011140003334730864,0.0049039446748793125,-0.0012231898726895452
1772702149270468600,2.085468505859375,-0.0002031991898547858,0.005340436939150095,-0.00024767397553659976
1772702149280518700,2.0955185546875,-0.0003992078418377787,0.008866994641721249,-0.0022855247370898724
1772702149290567700,2.105567626953125,-0.0006101301987655461,0.00478436890989542,-0.0001483380765421316
1772702149300617700,2.11561767578125,-0.0036128442734479904,0.007794273551553488,-0.0007544735562987626
1772702149310666500,2.12566650390625,-0.00270736962556839,0.005869606975466013,0.0033574472181499004
1772702149320716500,2.135716552734375,-0.0012924320762977004,0.01056236308068037,-0.0024080302100628614
1772702149330765600,2.145765625,-0.001600293442606926,0.008706938475370407,0.0014024205738678575
1772702149340815600,2.155815673828125,-0.0019765980541706085,0.009948504157364368,0.001630120910704136
1772702149350865700,2.16586572265625,-0.0025220136158168316,0.004819256253540516,0.00020186760229989886
1772702149360914700,2.175914794921875,0.00047830372932367027,0.00669385539367795,-0.0001691107318038121
1772702149370964500,2.185964599609375,-0.001252484624274075,0.0079146483913064,-0.0004948153509758413
1772702149381013500,2.196013427734375,0.0005350290448404849,0.00794607400894165,-0.001424791174940765
1772702149391063800,2.206063720703125,-0.0017054883064702153,0.006055229343473911,-0.0006612628931179643
1772702149401112600,2.216112548828125,-0.003035471076145768,0.007678692229092121,-0.0019105518003925681
1772702149411162600,2.22616259765625,-0.0011744539951905608,0.007786550559103489,0.0018495653057470918
1772702149421211600,2.236211669921875,-0.0011760519118979573,0.008491755463182926,-0.002088717184960842
1772702149431261400,2.246261474609375,0.0009656621841713786,0.007392934989184141,0.00035420042695477605
1772702149441310700,2.256310791015625,0.0011092065833508968,0.009015066549181938,0.00020373181905597448
1772702149451360800,2.26636083984375,-0.0007209177128970623,0.006959904916584492,-0.0011669971281662583
1772702149461409500,2.276409423828125,-0.0011398328933864832,0.007901065982878208,-0.0010492854053154588
1772702149471459600,2.28645947265625,-0.00042024682625196874,0.00818123109638691,-0.0015747271245345473
1772702149481508600,2.296508544921875,-0.0011251855175942183,0.006601976230740547,0.0006596649764105678
1772702149491558700,2.30655859375,0.00009054747351910919,0.008383098058402538,0.00038402783684432507
1772702149501607700,2.316607666015625,-0.0012844426091760397,0.008760734461247921,0.000830107310321182
1772702149511657700,2.32665771484375,-0.0008753810543566942,0.00839961040765047,-0.00112465291749686
1772702149521706500,2.33670654296875,-0.0020333235152065754,0.006996390409767628,-0.00038216362008824944
1772702149531756500,2.346756591796875,-0.0015568839153274894,0.006421413738280535,-0.002657302189618349
1772702149541805600,2.3568056640625,-0.0013156015193089843,0.006981210317462683,-0.0030178942251950502
1772702149551855900,2.36685595703125,-0.0003605920064728707,0.007327687460929155,-0.0024943165481090546
1772702149561905000,2.37690478515625,-0.002537726191803813,0.007900533266365528,-0.0024282701779156923
1772702149571954700,2.38695458984375,0.0012652678415179253,0.007125020958483219,-0.0016650082543492317
1772702149582003700,2.397003662109375,-0.00047351003740914166,0.009187906049191952,0.0016373114194720984
1772702149592054000,2.407053955078125,0.0000250337143370416,0.005368399899452925,0.000012250540748937055
1772702149602102800,2.417102783203125,-0.0031079088803380728,0.007477357517927885,-0.0021582257468253374
1772702149612152800,2.42715283203125,0.0011342403013259172,0.007278685458004475,0.00035420042695477605
1772702149622201900,2.437201904296875,-0.00006178533658385277,0.008685367181897163,0.002296177437528968
1772702149632251600,2.447251708984375,-0.0005954828229732811,0.006726345978677273,-0.0009129316313192248
1772702149642301000,2.457301025390625,-0.0030541131272912025,0.009600695222616196,-0.0035228293854743242
1772702149652351000,2.46735107421875,-0.0013899037148803473,0.008021441288292408,-0.0046546729281544685
1772702149662399700,2.477399658203125,-0.0037910097744315863,0.006906642112880945,-0.0019326560432091355
1772702149672449800,2.48744970703125,-0.0019441075855866075,0.007487477269023657,-0.0008399609941989183
1772702149682498800,2.497498779296875,-0.0016429040115326643,0.008074970915913582,0.0005874933558516204
1772702149692548900,2.507548828125,-0.002046372974291444,0.005233377683907747,0.0009076052810996771
1772702149702599000,2.517598876953125,0.0002069276088150218,0.0072778863832354546,0.0008519452530890703
1772702149712648000,2.52764794921875,0.00037683729897253215,0.0049092709086835384,-0.0008532768115401268
1772702149722697700,2.53769775390625,-0.0016053534345701337,0.0059479037299752235,-0.001062334980815649
1772702149732746800,2.547746826171875,-0.0005507417372427881,0.005744970869272947,0.0007371630053967237
1772702149742796800,2.557796875,-0.00028868665685877204,0.008293350227177143,0.0021310613956302404
1772702149752845800,2.567845703125,-0.0008420915110036731,0.007384945638477802,0.0026469158474355936
1772702149762896000,2.577895751953125,-0.0015254586469382048,0.008317052386701107,0.0016929714474827051
1772702149772945000,2.58794482421875,0.0005017395596951246,0.006470416206866503,-0.0020703414920717478
1772702149782994700,2.59799462890625,-0.001463939668610692,0.0067817396484315395,-0.00043888893560506403
1772702149793044000,2.6080439453125,-0.0008306399104185402,0.008207063190639019,-0.0015813850332051516
1772702149803094000,2.618093994140625,-0.0025531724095344543,0.006928213406354189,-0.0012708604335784912
1772702149813142800,2.628142822265625,0.0013992248568683863,0.006083991378545761,-0.00002902845517382957
1772702149823192800,2.63819287109375,-0.0025273398496210575,0.005708485841751099,0.001734516816213727
1772702149833241600,2.64824169921875,-0.0024029703345149755,0.006945257540792227,0.0012373046483844519
1772702149843291600,2.658291748046875,-0.002517752582207322,0.008291485719382763,-0.00034168356796726584
1772702149853341000,2.6683408203125,-0.0009435579413548112,0.008472314104437828,-0.00105301383882761
1772702149863391000,2.678390869140625,-0.0011536814272403717,0.007056844420731068,0.0026378610637038946
1772702149873439700,2.688439697265625,0.0007757788407616317,0.004963333252817392,0.001306014135479927
1772702149883489800,2.69848974609375,-0.0037763623986393213,0.008172974921762943,-0.0010399643797427416
1772702149893538800,2.708538818359375,-0.002666356973350048,0.007385744713246822,-0.0011028150329366326
1772702149903588900,2.7185888671875,0.00004820321555598639,0.008893360383808613,-0.0013313142117112875
1772702149913638000,2.728637939453125,-0.0015004249289631844,0.007960454560816288,0.0014242585748434067
1772702149923687700,2.738687744140625,-0.0013528858544304967,0.007065632846206427,-0.0024109596852213144
1772702149933736700,2.74873681640625,-0.00020586235041264445,0.009034241549670696,0.0001816275907913223
1772702149943786800,2.758786865234375,-0.0005400890368036926,0.010386061854660511,0.00041278995922766626
1772702149953835800,2.768835693359375,0.001333178486675024,0.005977198481559753,-0.0036719664931297302
1772702149963885800,2.7788857421875,-0.004388622939586639,0.007712780963629484,-0.0008849684381857514
1772702149973934800,2.788934814453125,-0.0015550197567790747,0.009891779161989689,-0.0016567525453865528
1772702149983984600,2.798984619140625,-0.0010641991393640637,0.005257346201688051,0.0004069310089107603
1772702149994034000,2.809033935546875,-0.001439971150830388,0.007910653948783875,-0.0012602078495547175
1772702150004084000,2.819083984375,-0.0006825681775808334,0.008345281705260277,-0.0000780306218075566
1772702150014134000,2.829134033203125,0.002192580606788397,0.0065010422840714455,0.0010956244077533484
1772702150024182800,2.839182861328125,-0.0010381002211943269,0.009411345236003399,-0.0009763148264028132
1772702150034231800,2.849231689453125,0.00034940673504024744,0.006852579768747091,0.00025726135936565697
1772702150044281600,2.859281494140625,-0.001591505017131567,0.009192965924739838,0.0014950985787436366
1772702150054332000,2.869331787109375,-0.0015243934467434883,0.00697961263358593,-0.0015614113071933389
1772702150064381000,2.879380859375,0.0012064119800925255,0.008837966248393059,0.00030866035376675427
1772702150074430700,2.8894306640625,-0.0011265170760452747,0.007796403951942921,0.001079911831766367
1772702150084479700,2.899479736328125,-0.0015390408225357533,0.007423295173794031,-0.0016564861871302128
1772702150094529800,2.90952978515625,-0.000045540054998127744,0.006536462344229221,-0.0008737831376492977
1772702150104578800,2.919578857421875,-0.0007605988066643476,0.0062794676050543785,-0.0011499529937282205
1772702150114628900,2.92962890625,0.00011211907985853031,0.006852047052234411,-0.0016402408946305513
1772702150124678000,2.939677978515625,0.0008226504432968795,0.010428672656416893,0.0007329019135795534
1772702150134727700,2.949727783203125,0.0002820287481881678,0.0076123797334730625,-0.000758734589908272
1772702150144776700,2.959776611328125,-0.0015672702575102448,0.006094910204410553,-0.0005962817813269794
1772702150154826800,2.96982666015625,-0.000627973407972604,0.008733304217457771,0.0003938815207220614
1772702150164875800,2.979875732421875,-0.0013704627053812146,0.0070736221969127655,-0.0020540961995720863
1772702150174925800,2.98992578125,-0.0019342538435012102,0.009398828260600567,-0.0009022789890877903
1772702150184974800,2.999974853515625,-0.00458729499951005,0.009779127314686775,-0.001204814063385129
1772702150195024600,3.010024658203125,-0.0016724651213735342,0.007966047152876854,-0.001234641415067017
1772702150205074000,3.020073974609375,-0.0020596887916326523,0.008821188472211361,0.0014503574930131435
1772702150215124000,3.0301240234375,-0.0017475662752985954,0.006440588738769293,-0.0019342538435012102
1772702150225172700,3.0401728515625,-0.002255431143566966,0.006480802316218615,-0.00044607947347685695
1772702150235222800,3.050222900390625,-0.0023811322171241045,0.009808422066271305,-0.002192314248532057
1772702150245271800,3.060271728515625,-0.0003147856332361698,0.007529288996011019,-0.0014514228096231818
1772702150255321900,3.07032177734375,-0.0010096043115481734,0.008143147453665733,-0.0033249566331505775
1772702150265371000,3.080370849609375,0.0013550163712352514,0.006432333029806614,-0.0015267902053892612
1772702150275421000,3.0904208984375,-0.00013022858183830976,0.007741542998701334,0.0010610034223645926
1772702150285469700,3.1004697265625,0.0003217098710592836,0.007601194549351931,-0.001597630325704813
1772702150295519700,3.110519775390625,-0.004553472623229027,0.008868060074746609,-0.0026354643050581217
1772702150305568800,3.12056884765625,-0.0014591459184885025,0.005449892953038216,0.000862864195369184
1772702150315618800,3.130618896484375,-0.0026583673898130655,0.004728176165372133,-0.0014351775171235204
1772702150325667800,3.140667724609375,-0.0008234494016505778,0.006731139495968819,0.00019920444174204022
1772702150335718000,3.1507177734375,-0.0046331011690199375,0.009127452038228512,-0.003641606541350484
1772702150345766700,3.1607666015625,-0.0025004418566823006,0.005322860088199377,-0.001469532260671258
1772702150355817000,3.17081689453125,0.00021731393644586205,0.008011587895452976,-0.004487692844122648
1772702150365867000,3.180866943359375,-0.00032197617110796273,0.005368133541196585,0.0025856629945337772
1772702150375915800,3.190915771484375,-0.001603755634278059,0.007154582068324089,-0.0026117621455341578
1772702150385965800,3.2009658203125,-0.0003890878288075328,0.003737214021384716,-0.0014759238110855222
1772702150396014800,3.211014892578125,-0.00130947632715106,0.006214752793312073,0.002153964713215828
1772702150406064600,3.221064697265625,0.0009416937828063965,0.007476558443158865,-0.0022714100778102875
1772702150416114000,3.231114013671875,-0.00276089902035892,0.005665076430886984,-0.0014205301413312554
1772702150426164000,3.2411640625,-0.002679938916116953,0.007178017869591713,-0.0016727314796298742
1772702150436212700,3.251212646484375,-0.0002969424531329423,0.006882673595100641,0.0007637945818714797
1772702150446262800,3.2612626953125,-0.00012064119800925255,0.007282946724444628,0.0004058657505083829
1772702150456311800,3.271311767578125,-0.0013582120882347226,0.005829127039760351,-0.0002798982313834131
1772702150466361900,3.28136181640625,-0.0002335592289455235,0.0066062374971807,-0.0015779229579493403
1772702150476411000,3.291410888671875,-0.0015574166318401694,0.0046333675272762775,-0.00009960222087102011
1772702150486461000,3.3014609375,-0.0005171858938410878,0.007752728182822466,-0.002121740486472845
1772702150496509700,3.311509765625,-0.0008354336023330688,0.008477107621729374,0.00033875409280881286
1772702150506559700,3.321559814453125,-0.0018010957865044475,0.007246194873005152,0.0010290454374626279
1772702150516608800,3.33160888671875,0.0003414172388147563,0.005604888778179884,0.0012546151410788298
1772702150526658800,3.341658935546875,-0.001568069215863943,0.0049553439021110535,0.00013981595111545175
1772702150536707800,3.351707763671875,-0.0004215783847030252,0.007957525551319122,-0.0013574132462963462
1772702150546757600,3.361757568359375,0.0007113303290680051,0.00794420950114727,0.0026229473296552896
1772702150556807200,3.37180712890625,0.0010879012988880277,0.0056919739581644535,-0.0014093448407948017
1772702150566857200,3.381857177734375,0.0003121224872302264,0.006934871431440115,-0.0026724820490926504
1772702150576906200,3.39190625,-0.0009723200928419828,0.007505054119974375,0.0013811152894049883
1772702150586956300,3.401956298828125,-0.0018077536951750517,0.00999431125819683,-0.0008972189389169216
1772702150597005000,3.412005126953125,-0.0015076154377311468,0.008761799894273281,-0.003748665563762188
1772702150607055000,3.42205517578125,-0.0043444144539535046,0.009812416508793831,0.00001704423084447626
1772702150617104400,3.4321044921875,-0.0009896307019516826,0.007754059974104166,-0.0025963156949728727
1772702150627154200,3.442154296875,-0.001112668658606708,0.008919458836317062,-0.001567802974022925
1772702150637203200,3.452203125,-0.000021837920940015465,0.0059806606732308865,0.001234907773323357
1772702150647253200,3.462253173828125,-0.0017174725653603673,0.007722367998212576,-0.0010061422362923622
1772702150657302000,3.472302001953125,0.0012599414912983775,0.009460879489779472,-0.0014927018200978637
1772702150667352300,3.482352294921875,-0.0028503811918199062,0.007434480357915163,-0.0010258496040478349
1772702150677401300,3.4924013671875,-0.002499909373000264,0.006874950136989355,0.0011712582781910896
1772702150687451100,3.502451171875,-0.001306014135479927,0.006947654765099287,-0.0018426411552354693
1772702150697500200,3.512500244140625,-0.0011619371362030506,0.0068033114075660706,-0.0005467469454742968
1772702150707550200,3.52255029296875,-0.00169563468080014,0.00812237523496151,0.000627973407972604
1772702150717600300,3.532600341796875,0.0021584921050816774,0.007982026785612106,-0.00321922916918993
1772702150727649300,3.542649169921875,-0.00041731735109351575,0.0059660132974386215,0.0008146609761752188
1772702150737699300,3.55269921875,0.000009853695701167453,0.005008607171475887,-0.0008799084462225437
1772702150747748000,3.562748046875,0.0003605920064728707,0.008554605767130852,-0.0014002900570631027
1772702150757798100,3.572798095703125,-0.0009369000908918679,0.005815012380480766,0.001136370818130672
1772702150767847400,3.582847412109375,-0.0014298511669039726,0.007109308615326881,-0.002635996788740158
1772702150777897200,3.592897216796875,-0.0010929612908512354,0.007015299052000046,-0.002326803747564554
1772702150787946200,3.6029462890625,0.0006191849242895842,0.007387608755379915,0.0001304948964389041
1772702150797996300,3.612996337890625,0.0014737932942807674,0.007173224352300167,-0.00030067088664509356
1772702150808045000,3.623045166015625,-0.0018218684708699584,0.008621185086667538,-0.0011550129856914282
1772702150818095000,3.63309521484375,-0.0015417039394378662,0.007245928514748812,0.001534779672510922
1772702150828144400,3.643144287109375,0.0003813646617345512,0.010247577913105488,0.0006181196658872068
1772702150838194200,3.653194091796875,-0.001461010193452239,0.008459797129034996,-0.0022184131667017937
1772702150848243200,3.6632431640625,-0.0007185208378359675,0.0100185452029109,-0.002043177140876651
1772702150858293200,3.673293212890625,-0.0024202808272093534,0.008569786325097084,-0.0011528824688866735
1772702150868342300,3.68334228515625,-0.0010791128734126687,0.01077115535736084,0.00025246766745112836
1772702150878392300,3.693392333984375,-0.0007712514488957822,0.00720464950427413,0.00012357067316770554
1772702150888441300,3.70344140625,-0.00012650014832615852,0.005453887395560741,-0.00029827404068782926
1772702150898491100,3.7134912109375,0.00017363809456583112,0.007605188991874456,-0.001059405505657196
1772702150908540200,3.7235400390625,-0.0010157296201214194,0.00467651104554534,-0.000645550258923322
1772702150918590200,3.733590087890625,0.000669252360239625,0.007464574184268713,0.0014500912511721253
1772702150928639200,3.74363916015625,-0.003736681304872036,0.007991347461938858,0.0007265103631652892
1772702150938689300,3.753689208984375,-0.0009651295840740204,0.008954612538218498,0.000018375811123405583
1772702150948738300,3.76373828125,0.001942509668879211,0.007256315089762211,-0.002537992550060153
1772702150958788000,3.7737880859375,-0.0005331648280844092,0.004847485572099686,-0.002304699504747987
1772702150968837400,3.78383740234375,0.00023675501870457083,0.006301571615040302,-0.0007243797881528735
1772702150978887400,3.793887451171875,-0.0027750139124691486,0.007406517397612333,-0.002834135899320245
1772702150988936200,3.803936279296875,-0.0010157296201214194,0.00583685003221035,-0.002674346324056387
1772702150998986200,3.813986328125,0.00018855179951060563,0.010366620495915413,-0.00138084904756397
1772702151009035000,3.824034912109375,0.0024370586033910513,0.00965901929885149,-0.00038935415796004236
1772702151019085000,3.8340849609375,-0.0035920715890824795,0.007053382229059935,0.0004727110790554434
1772702151029134300,3.84413427734375,-0.0018698053900152445,0.007380152121186256,-0.0002817624481394887
1772702151039184400,3.854184326171875,0.0006617955514229834,0.006932208314538002,0.0002306297537870705
1772702151049233200,3.864233154296875,-0.0006801713607273996,0.007208111695945263,0.00031878036679700017
1772702151059283200,3.874283203125,-0.0016468988033011556,0.0062432484701275826,0.0006191849242895842
1772702151069332200,3.884332275390625,-0.0008884305134415627,0.005723133217543364,0.000892691605258733
1772702151079382300,3.89438232421875,0.00019893812714144588,0.007111971732228994,0.001996305538341403
1772702151089432300,3.904432373046875,-0.0022543659433722496,0.008813465014100075,-0.0016189356101676822
1772702151099481300,3.9144814453125,-0.003148122690618038,0.005903162993490696,-0.000494016392622143
1772702151109531100,3.92453125,-0.0029646309558302164,0.008615059778094292,0.001987783471122384
1772702151119580200,3.934580078125,-0.0029379993211477995,0.007894141599535942,-0.00105301383882761
1772702151129630200,3.944630126953125,-0.0034141724463552237,0.0087807085365057,-0.001377919572405517
1772702151139679200,3.95467919921875,-0.0025949841365218163,0.006548979319632053,-0.00023702133330516517
1772702151149729300,3.964729248046875,-0.0011891013709828258,0.007574562914669514,0.00048389637959189713
1772702151159778000,3.974778076171875,-0.0009925601771101356,0.004787032026797533,-0.0012333098566159606
1772702151169828000,3.984828125,-0.0011113371001556516,0.008928247727453709,-0.0015385081060230732
1772702151179877400,3.99487744140625,-0.0025419872254133224,0.006450176239013672,0.0013470269041135907
1772702151189927400,4.004927490234375,-0.0017944378778338432,0.007795072626322508,-0.0014743260107934475
1772702151199976200,4.01497607421875,-0.0023039006628096104,0.007504787761718035,0.0003110571997240186
1772702151210026200,4.025026123046875,-0.00036698358599096537,0.00732422573491931,0.0017896442441269755
1772702151220075000,4.035074951171875,0.00013262542779557407,0.005819539539515972,0.0029862024821341038
1772702151230125300,4.045125244140625,-0.004739627707749605,0.00956767238676548,-0.002246110001578927
1772702151240174300,4.05517431640625,-0.0001978728687390685,0.00643765926361084,0.0013648699969053268
1772702151250224000,4.06522412109375,-0.0028911277186125517,0.006445382256060839,-0.00130894361063838
1772702151260273200,4.075273193359375,-0.001216531964018941,0.00686136819422245,-0.002154231071472168
1772702151270323200,4.0853232421875,-0.0016500946367159486,0.006443251855671406,-7.989483492565341e-7
1772702151280372200,4.095372314453125,-0.0006498112925328314,0.002660498023033142,-0.00038509309524670243
1772702151290422300,4.10542236328125,-0.0015009575290605426,0.007889348082244396,-0.0009576727170497179
1772702151300471300,4.11547119140625,0.0005062668933533132,0.006304767448455095,0.0021228056866675615
1772702151310521000,4.12552099609375,-0.003060770919546485,0.003674097126349807,-0.0022708773612976074
1772702151320570000,4.135570068359375,0.0002511360798962414,0.005856025032699108,-0.0010008158860728145
1772702151330620400,4.145620361328125,-0.000431432097684592,0.006110623013228178,0.002502838848158717
1772702151340669200,4.155669189453125,-0.0018839201657101512,0.00746111199259758,-0.0006141249323263764
1772702151350719200,4.16571923828125,-0.002049835165962577,0.007935155183076859,-0.0006412891671061516
1772702151360768300,4.175768310546875,-0.0008623315370641649,0.008412925526499748,-0.0023470439482480288
1772702151370818000,4.185818115234375,-0.00027031084755435586,0.006952448282390833,0.000011717908819264267
1772702151380867300,4.195867431640625,0.0004697816038969904,0.006744455546140671,-0.0010748518398031592
1772702151390917400,4.20591748046875,-0.0025723471771925688,0.008931709453463554,-0.001862082164734602
1772702151400966100,4.215966064453125,-0.003460245206952095,0.006482400465756655,0.0001968075957847759
1772702151411016200,4.22601611328125,-0.002147573046386242,0.0060110208578407764,0.00040613205055706203
1772702151421065200,4.236065185546875,-0.0014721954939886928,0.004907939583063126,-0.001145425601862371
1772702151431115300,4.246115234375,-0.0002383529208600521,0.010063286870718002,0.0012024171883240342
1772702151441165300,4.256165283203125,0.0024612934794276953,0.007444334216415882,0.0005608617211692035
1772702151451214300,4.26621435546875,-0.00031185615807771683,0.008420382626354694,-0.0007107976707629859
1772702151461264100,4.27626416015625,-0.0008484831196255982,0.005937783978879452,-0.0017627463676035404
1772702151471313200,4.286313232421875,-0.0005328985280357301,0.004954278469085693,-0.001811482128687203
1772702151481363200,4.29636328125,-0.0008093346259556711,0.006935137789696455,-0.0011414308100938797
1772702151491412200,4.306412109375,-0.0004396878939587623,0.00968538410961628,-0.0010032127611339092
1772702151501462300,4.316462158203125,-0.0014682007022202015,0.007164435926824808,-0.0003731088654603809
1772702151511511300,4.32651123046875,-0.0006937534781172872,0.007051251363009214,-0.0005456816870719194
1772702151521561000,4.33656103515625,-0.0009454221581108868,0.008019843138754368,0.0011140003334730864
1772702151531610400,4.3466103515625,-0.0006554039428010583,0.009461145848035812,0.0013978932984173298
1772702151541660400,4.356660400390625,-0.0024346618447452784,0.005398227367550135,-0.00010812433902174234
1772702151551709200,4.366709228515625,-0.000005858954409632133,0.010130664333701134,-0.0013824469642713666
1772702151561759000,4.376759033203125,-0.0026905916165560484,0.008469385094940662,-0.0027776770293712616
1772702151571808000,4.38680810546875,-0.0011092065833508968,0.007108243182301521,0.002217081608250737
1772702151581858000,4.396858154296875,0.0007451524725183845,0.007890946231782436,0.00028762139845639467
1772702151591907000,4.406906982421875,-0.0019430422689765692,0.007473895326256752,0.00049082055920735
1772702151601957000,4.41695703125,-0.0012064119800925255,0.004597414750605822,-0.0036245621740818024
1772702151612006000,4.427005859375,-0.0031521173659712076,0.006691192276775837,0.0016671388875693083
1772702151622056000,4.437055908203125,-0.0007387608638964593,0.007000651676207781,0.0017749968683347106
1772702151632105200,4.447105224609375,-0.0017121462151408195,0.0075969332829117775,-0.001184041379019618
1772702151642155300,4.4571552734375,-0.0015670040156692266,0.007387875113636255,-0.00029055087361484766
1772702151652204000,4.4672041015625,-0.0006926882197149098,0.005357214715331793,-0.0035300198942422867
1772702151662254000,4.477254150390625,-0.0009739180095493793,0.007699198555201292,-0.00013129384024068713
1772702151672302800,4.487302734375,-0.00045566685730591416,0.009819607250392437,0.000483363721286878
1772702151682353000,4.497352783203125,-0.0010871023405343294,0.006572947837412357,0.0016620787791907787
1772702151692402200,4.507402099609375,-0.0008474178612232208,0.008883239701390266,-0.0008761800127103925
1772702151702452000,4.517451904296875,0.00048629322554916143,0.006922088097780943,0.00005459480235003866
1772702151712501000,4.5275009765625,-0.0024197481106966734,0.005621400196105242,0.0006085322820581496
1772702151722551000,4.537551025390625,0.0004844290087930858,0.009223858825862408,-0.00003781688792514615
1772702151732600000,4.54760009765625,-0.0027382622938603163,0.008127967827022076,0.00041784998029470444
1772702151742650000,4.557650146484375,-0.0012029499048367143,0.0065535069443285465,-0.00227833422832191
1772702151752699100,4.56769921875,-0.0004964132094755769,0.0075513930059969425,0.0016639430541545153
1772702151762749000,4.5777490234375,-0.00013768543431069702,0.006813963875174522,0.0006966829532757401
1772702151772798000,4.5877978515625,-0.0003504719934426248,0.007661115378141403,-0.0013523531379178166
1772702151782848000,4.597847900390625,-0.0009590042755007744,0.00862997304648161,-0.0023118900135159492
1772702151792897000,4.60789697265625,-0.0017752632265910506,0.00914396345615387,-0.002170742489397526
1772702151802947000,4.617947021484375,-0.0010349043877795339,0.006866161711513996,0.002971288748085499
1772702151812996000,4.62799609375,0.001386175281368196,0.008607602678239346,-0.0010452907299622893
1772702151823046000,4.6380458984375,-0.003689543344080448,0.007424892857670784,0.00028575718170031905
1772702151833096000,4.648095947265625,-0.002216548891738057,0.007714378647506237,0.0014207963831722736
1772702151843145200,4.658145263671875,-0.0004471447318792343,0.006523413117974997,0.0023257385473698378
1772702151853195000,4.668195068359375,-0.002695119008421898,0.00987260416150093,-0.002579005202278495
1772702151863244000,4.678244140625,-0.001231711939908564,0.0068235513754189014,-0.00010652644414221868
1772702151873294000,4.688294189453125,-0.001603755634278059,0.0052173989824950695,-0.0010247844038531184
1772702151883343000,4.698343017578125,-0.0024402544368058443,0.009132511913776398,0.0011408982099965215
1772702151893393200,4.70839306640625,-0.000023968450477696024,0.006898652296513319,0.0000023968450477696024
1772702151903442200,4.718442138671875,0.00041278995922766626,0.005136438645422459,-0.001725728390738368
1772702151913492000,4.728491943359375,-0.0014410364674404263,0.00800572894513607,-0.00045060686534270644
1772702151923541000,4.738541015625,-0.0005904228310100734,0.006357764359563589,-0.0013374395202845335
1772702151933591000,4.748591064453125,-0.0011116034584119916,0.009427856653928757,0.000010918960470007733
1772702151943640000,4.75864013671875,-0.00005299690383253619,0.007754592224955559,-0.0014751249691471457
1772702151953690000,4.768690185546875,-0.0006103964988142252,0.00583764910697937,-0.0010484865633770823
1772702151963739100,4.7787392578125,-0.0020903151016682386,0.006750048138201237,-0.0019382486352697015
1772702151973789000,4.788788818359375,-0.00162426196038723,0.003996605984866619,0.0008727178792469203
1772702151983838200,4.798838134765625,-0.002469282830134034,0.007488809060305357,-0.0031766186002641916
1772702151993888300,4.80888818359375,0.0001728391507640481,0.006976416800171137,-0.000041012681322172284
1772702152003937000,4.81893701171875,-0.0019502328941598535,0.007464574184268713,-0.0011555455857887864
1772702152013987000,4.828987060546875,-0.004454669542610645,0.0060331248678267,-0.0006807039608247578
1772702152024036000,4.8390361328125,-0.00008202536264434457,0.006866161711513996,-0.0037468012887984514
1772702152034086000,4.8490859375,-0.0013848437229171395,0.003912449814379215,0.0011355718597769737
1772702152044135200,4.85913525390625,-0.0027899276465177536,0.005766542628407478,-0.0008040083339437842
1772702152054185200,4.869185302734375,-0.0005984122981317341,0.007114634849131107,0.001275920425541699
1772702152064234000,4.87923388671875,-0.0026881948579102755,0.0065103634260594845,-0.001549959764815867
1772702152074284000,4.889283935546875,-0.0010048106778413057,0.006974286399781704,0.0005632585380226374
1772702152084333000,4.8993330078125,-0.00015765913121867925,0.004805940669029951,0.001047154888510704
1772702152094383000,4.909383056640625,0.00018562232435215265,0.00523577444255352,-0.0005166532355360687
1772702152104432000,4.91943212890625,-0.0017419736832380295,0.008846222423017025,0.00021544973424170166
1772702152114482200,4.929482177734375,-0.003695135936141014,0.005942577496170998,0.0010727213229984045
1772702152124531000,4.939531005859375,-0.0013901700731366873,0.006077866069972515,-0.0030154972337186337
1772702152134581000,4.9495810546875,-0.0012397015234455466,0.007060306146740913,0.0015049523208290339
1772702152144630000,4.959630126953125,-0.001478587044402957,0.008559665642678738,0.0006599313346669078
1772702152154680000,4.96968017578125,-0.003100185887888074,0.008344216272234917,-0.002112152986228466
1772702152164729000,4.97972900390625,-0.0008082693675532937,0.006674414500594139,0.0008317052270285785
1772702152174779100,4.989779052734375,-0.000859934720210731,0.007333280518651009,0.003212837502360344
1772702152184828200,4.999828125,0.00027537086862139404,0.007992146536707878,-0.000006125270374468528
1772702152194878200,5.009878173828125,0.00108257494866848,0.006031527183949947,0.003174754325300455
1772702152204927000,5.019927001953125,-0.0046637277118861675,0.005742840468883514,0.0015582155901938677
1772702152214977000,5.02997705078125,0.0014908375451341271,0.009017730131745338,-0.002207760466262698
1772702152225027000,5.040027099609375,-0.002377936616539955,0.008580438792705536,-0.0009134642314165831
1772702152235075800,5.050075927734375,-0.0013377057621255517,0.005279450677335262,-0.0001704423048067838
1772702152245126000,5.0601259765625,-0.00009880327706923708,0.006205165293067694,-0.0001757686259225011
1772702152255175200,5.070175048828125,0.0015089471125975251,0.005876265000551939,0.00027616979787126184
1772702152265225200,5.08022509765625,-0.001368598430417478,0.003989415243268013,0.0006495449924841523
1772702152275274000,5.09027392578125,-0.0025837989524006844,0.006871754303574562,-0.0013848437229171395
1772702152285324000,5.100323974609375,0.0010135991033166647,0.0068152956664562225,0.001294029993005097
1772702152295373000,5.110373046875,-0.0013073458103463054,0.004944957327097654,-0.0002724413643591106
1772702152305423000,5.120423095703125,0.00015472965606022626,0.008585232309997082,-0.00010466222738614306
1772702152315472100,5.13047216796875,-0.0025297366082668304,0.007014233618974686,-0.002660231664776802
1772702152325522000,5.14052197265625,-0.0012825783342123032,0.006187055725604296,-0.0022623552940785885
1772702152335571000,5.150571044921875,-0.001210673013702035,0.008921856060624123,-0.0015606123488396406
1772702152345621000,5.16062109375,-0.0014908375451341271,0.00657587731257081,-0.0003057308786083013
1772702152355670000,5.170669921875,0.0005704491049982607,0.007267766632139683,-0.00013076121103949845
1772702152365720000,5.180719970703125,0.0013137373607605696,0.006971356924623251,-0.001356347929686308
1772702152375769000,5.19076904296875,-0.0013757890556007624,0.008980711922049522,-0.0022335932590067387
1772702152385819000,5.20081884765625,0.0001685781026026234,0.006617422681301832,-0.001088700257241726
1772702152395868200,5.2108681640625,-0.0008367652189917862,0.007503989152610302,-0.00361790438182652
1772702152405918200,5.220918212890625,-0.0003909520455636084,0.009191634133458138,-0.0008953547803685069
1772702152415967000,5.230967041015625,0.0012420982820913196,0.006788664031773806,0.00070493872044608
1772702152426017000,5.24101708984375,-0.0005597964627668262,0.008700280450284481,-0.003212304785847664
1772702152436066000,5.251066162109375,-0.0024557008873671293,0.005281581077724695,0.002182993106544018
1772702152446116000,5.2611162109375,-0.0011486213188618422,0.005825664848089218,-0.000794420950114727
1772702152456165000,5.2711650390625,0.0006756439688615501,0.007508782669901848,0.0018849853659048676
1772702152466215200,5.281215087890625,-0.0008596684201620519,0.0060238041914999485,0.001344896387308836
1772702152476264000,5.291263916015625,-0.0004308994684834033,0.006225405260920525,0.0008724515791982412
1772702152486314000,5.30131396484375,-0.0023957795929163694,0.006570817437022924,0.0015824503498151898
1772702152496363300,5.31136328125,-0.0019006980583071709,0.008101868443191051,-0.0020844561513513327
1772702152506412000,5.321412109375,-0.0005795038305222988,0.007901065982878208,-0.0014855111949145794
1772702152516462000,5.331462158203125,-0.0005608617211692035,0.006142847239971161,-0.0012950951931998134
1772702152526510800,5.3415107421875,0.0013283847365528345,0.007896538823843002,0.0012373046483844519
1772702152536561000,5.351560791015625,-0.0006554039428010583,0.007545268163084984,-0.002098038326948881
1772702152546610200,5.361610107421875,-0.0017606157343834639,0.007062969263643026,0.0012213257141411304
1772702152556660500,5.371660400390625,-0.0037473340053111315,0.007749265991151333,-0.0010090717114508152
1772702152566709500,5.38170947265625,0.000046339002437889576,0.008159658871591091,0.001041562296450138
1772702152576759300,5.39175927734375,-0.0029257487040013075,0.007417702581733465,-0.0021374530624598265
1772702152586808300,5.401808349609375,-0.0019169433508068323,0.005269596818834543,0.0006732470938004553
1772702152596858600,5.411858642578125,-0.00256382510997355,0.008170312270522118,-0.0009890979854390025
1772702152606907400,5.421907470703125,-0.0009635316673666239,0.00791624654084444,-0.00014887070574332029
1772702152616957400,5.43195751953125,-0.0013512879377231002,0.006658435333520174,0.0007744472241029143
1772702152627006500,5.44200634765625,-0.0015491608064621687,0.007456318475306034,-0.000957939017098397
1772702152637056300,5.45205615234375,-0.00222027744166553,0.007472829893231392,0.0001994707708945498
1772702152647105500,5.46210546875,0.0001531317684566602,0.007928763516247272,0.0014708638191223145
1772702152657155600,5.472155517578125,-0.001418665866367519,0.008139153011143208,-0.00041811628034338355
1772702152667204400,5.482204345703125,0.0022029669489711523,0.0059843892231583595,0.001986984396353364
1772702152677254400,5.49225439453125,-0.0025278725661337376,0.007734884973615408,-0.0035771578550338745
1772702152687304400,5.502304443359375,0.0007821703911758959,0.007752195466309786,0.0031457259319722652
1772702152697353500,5.512353515625,-0.001020523370243609,0.005420598201453686,-0.0015773903578519821
1772702152707403500,5.522403564453125,-0.00012303804396651685,0.007077350746840239,-0.0021880532149225473
1772702152717452500,5.53245263671875,0.0006109291571192443,0.006683202926069498,-0.0018993664998561144
1772702152727502300,5.54250244140625,-0.0015052186790853739,0.006926349364221096,0.0010522148804739118
1772702152737551400,5.55255126953125,-0.003397128311917186,0.011536813341081142,-0.00293400464579463
1772702152747601400,5.562601318359375,-0.001680720946751535,0.00621155695989728,-0.0004069310089107603
1772702152757650400,5.572650390625,-0.0014820491196587682,0.007994011044502258,-0.0006106628570705652
1772702152767700500,5.582700439453125,0.000037017940485384315,0.008578307926654816,-0.0009595369338057935
1772702152777749500,5.59274951171875,-0.003043194068595767,0.007249657064676285,0.0035547874867916107
1772702152787799300,5.60279931640625,-0.0015078817959874868,0.006012884899973869,-0.002728142309933901
1772702152797848600,5.6128486328125,-0.0020034960471093655,0.006670419592410326,0.0009182579233311117
1772702152807898600,5.622898681640625,-0.002145176287740469,0.005839513149112463,-0.0013315805699676275
1772702152817947400,5.632947509765625,-0.001487109111621976,0.007179616019129753,0.0010399643797427416
1772702152827997400,5.64299755859375,-0.0011169298086315393,0.009491239674389362,-0.0022980417124927044
1772702152838046500,5.65304638671875,-0.00347435986623168,0.008342085406184196,-0.0021699436474591494
1772702152848096300,5.66309619140625,0.0008463526028208435,0.008678975515067577,-0.0011504855938255787
1772702152858145500,5.6731455078125,0.0014801849611103535,0.007742075715214014,-0.00039494677912443876
1772702152868195600,5.683195556640625,-0.0012860405258834362,0.00507092522457242,0.0009502158500254154
1772702152878244400,5.693244384765625,-0.0013877731980755925,0.006481068674474955,-0.0009590042755007744
1772702152888294400,5.70329443359375,0.00020932445477228612,0.007695470005273819,0.001469798618927598
1772702152898343400,5.713343505859375,-0.0010077401529997587,0.008393485099077225,-0.0011643340112641454
1772702152908393500,5.7233935546875,-0.002086054068058729,0.007363640237599611,-0.0030828751623630524
1772702152918442500,5.7334423828125,-0.000291616132017225,0.00654525076970458,-0.00005246427463134751
1772702152928492500,5.743492431640625,0.0008852347382344306,0.00785525981336832,-0.0017219999572262168
1772702152938542300,5.753542236328125,-0.001865544356405735,0.009101086296141148,0.001913481275551021
1772702152948591400,5.76359130859375,-0.0014452975010499358,0.0073410035111010075,-0.0009896307019516826
1772702152958641400,5.773641357421875,-0.0014705975772812963,0.009974869899451733,-0.003318032482638955
1772702152968690400,5.7836904296875,-0.0011771172285079956,0.006649380549788475,0.0030154972337186337
1772702152978740500,5.793740478515625,-0.0019233349012210965,0.00965795386582613,-0.002632800955325365
1772702152988789200,5.803789306640625,0.0006018743733875453,0.0037763623986393213,0.0007728493656031787
1772702152998839300,5.81383935546875,-0.0008394283941015601,0.004841360729187727,-0.001193096162751317
1772702153008888600,5.823888671875,0.00152359448838979,0.006880010478198528,0.0018788601737469435
1772702153018938600,5.833938720703125,-0.0022090920247137547,0.0075902752578258514,0.00054142065346241
1772702153028987400,5.8439873046875,0.0014740596525371075,0.007157511543482542,-0.00005299690383253619
1772702153039037400,5.854037353515625,0.0006926882197149098,0.007454720325767994,0.0025507756508886814
1772702153049086200,5.864086181640625,-0.0017174725653603673,0.008291485719382763,-0.0005640574963763356
1772702153059136500,5.874136474609375,0.000013582121027866378,0.010483799502253532,-0.0011147991754114628
1772702153069185500,5.884185546875,-0.0015899071004241705,0.0073410035111010075,-0.0016703346045687795
1772702153079235600,5.894235595703125,-0.00001944107498275116,0.006025668233633041,0.00005406216951087117
1772702153089284400,5.904284423828125,0.0004868258547503501,0.007102650590240955,0.0021574266720563173
1772702153099334400,5.91433447265625,-0.001264735241420567,0.007184409536421299,-0.0008503473363816738
1772702153109383400,5.924383544921875,0.0010940266074612737,0.00893863383680582,0.0008285093936137855
1772702153119433500,5.93443359375,-0.0037441381718963385,0.006877347361296415,-0.001252750982530415
1772702153129482500,5.944482421875,-0.0028210864402353764,0.006726079620420933,0.0005893575726076961
1772702153139532300,5.9545322265625,-0.0013430321123450994,0.005661880597472191,-0.00021172130072955042
1772702153149581300,5.964581298828125,-0.0008916263468563557,0.008261391893029213,-0.0019952403381466866
1772702153159631600,5.974631591796875,-0.0019885823130607605,0.007024353835731745,0.00013502225920092314
1772702153169680400,5.984680419921875,-0.0017241304740309715,0.008246478624641895,-0.00042637207661755383
1772702153179730400,5.99473046875,-0.0010511496802791953,0.00777669670060277,0.002198173198848963
1772702153189779500,6.004779541015625,-0.0013483584625646472,0.008110124617815018,0.0000018642127770363004
1772702153199829200,6.014829345703125,-0.00041731735109351575,0.008704542182385921,-0.003546531544998288
1772702153209878500,6.02487841796875,0.0000010652644277797663,0.00875168014317751,0.0010495517635717988
1772702153219928600,6.034928466796875,0.0000250337143370416,0.008305334486067295,-0.0011680624447762966
1772702153229977300,6.044977294921875,-0.0009507485083304346,0.007820106111466885,-0.0005363606614992023
1772702153240027400,6.05502734375,0.0013342436868697405,0.007506652269512415,0.0013667342718690634
1772702153250076400,6.065076416015625,-0.0016058861510828137,0.0060232714749872684,0.001008539111353457
1772702153260126500,6.07512646484375,-0.0035145736765116453,0.008769789710640907,-0.0016415724530816078
1772702153270175500,6.085175537109375,-0.0031585090328007936,0.005781722720712423,-0.00008868326403899118
1772702153280225500,6.0952255859375,-0.0019414444686844945,0.006275472696870565,-0.0011805793037638068
1772702153290274300,6.1052744140625,-0.000630902883131057,0.00768934516236186,0.00015393071225844324
1772702153300324400,6.115324462890625,-0.0012096078135073185,0.009051019325852394,-0.002034655073657632
1772702153310374400,6.12537451171875,-0.00047111319145187736,0.00959749985486269,-0.0008980178972706199
1772702153320423400,6.13542333984375,-0.001538241864182055,0.008591623976826668,0.0000021305288555595325
1772702153330473500,6.145473388671875,-0.004185956437140703,0.008706672117114067,-0.0033787523861974478
1772702153340522500,6.1555224609375,0.0021787320729345083,0.004568652715533972,-0.002519616624340415
1772702153350572300,6.165572265625,-0.0011358382180333138,0.009647035039961338,-0.0018618159228935838
1772702153360621600,6.17562158203125,-0.0033097765408456326,0.007395864464342594,0.0010077401529997587
1772702153370671600,6.185671630859375,-0.0008407599525526166,0.00583791546523571,0.00044767739018425345
1772702153380720400,6.195720458984375,-0.0018570221727713943,0.010470218025147915,-0.0006450176006183028
1772702153390770400,6.2057705078125,-0.0014583469601348042,0.007438208907842636,0.0002620550512801856
1772702153400819500,6.2158193359375,-0.0007795072160661221,0.005760950036346912,-0.00166633992921561
1772702153410869200,6.225869140625,-0.0016170714516192675,0.006456833798438311,0.0002564624010119587
1772702153420918500,6.23591845703125,0.001418665866367519,0.005934321787208319,0.0018815232906490564
1772702153430968600,6.245968505859375,-0.0026312030386179686,0.00583631731569767,-0.0014468954177573323
1772702153441017300,6.256017333984375,-0.001586178783327341,0.006928213406354189,0.00028069718973711133
1772702153451067400,6.2660673828125,-0.001014131703414023,0.007054447196424007,0.00035366779775358737
1772702153461116700,6.27611669921875,-0.001740109408274293,0.005877329967916012,-0.002368082758039236
1772702153471166500,6.28616650390625,0.00026312030968256295,0.007210774812847376,-0.0011776498286053538
1772702153481215500,6.296215576171875,-0.001714010490104556,0.008431035093963146,-0.001955026527866721
1772702153491265500,6.306265625,-0.0033039175905287266,0.006607568822801113,-0.0034357442054897547
1772702153501314300,6.316314208984375,-0.002672215923666954,0.007289072033017874,0.000009321063771494664
1772702153511364400,6.3263642578125,-0.002700977958738804,0.0065351310186088085,-0.0005787048721686006
1772702153521413400,6.336413330078125,-0.0007984156836755574,0.0062634884379804134,0.0010258496040478349
1772702153531463400,6.34646337890625,0.0029739518649876118,0.005318865180015564,0.0016279903938993812
1772702153541512400,6.356512451171875,-0.0015651397407054901,0.008446748368442059,0.001449025934562087
1772702153551562500,6.3665625,-0.0017635452095419168,0.006140716839581728,-0.002127066720277071
1772702153561610800,6.37661083984375,-0.0015840481501072645,0.006250971462577581,-0.00011984224693151191
1772702153571660800,6.386660888671875,-0.0019829897210001945,0.008315720595419407,0.00043356261448934674
1772702153581709600,6.39670947265625,-0.0009571401169523597,0.008381234481930733,0.002629871480166912
1772702153591759600,6.406759521484375,-0.001272990950383246,0.008225172758102417,-0.0015188007382676005
1772702153601809000,6.416808837890625,-0.0029696908313781023,0.004576642066240311,-0.0024711471050977707
1772702153611859000,6.42685888671875,-0.0014652712270617485,0.007865912280976772,-0.002570749493315816
1772702153621907700,6.43690771484375,-0.0014658038271591067,0.00797456968575716,-0.0011859056539833546
1772702153631957800,6.446957763671875,-0.002810966456308961,0.007929561659693718,0.000046339002437889576
1772702153642006500,6.457006591796875,-0.001484179636463523,0.008900018408894539,-0.004430967383086681
1772702153652056600,6.467056640625,0.00043809000635519624,0.005911418702453375,0.0002205097407568246
1772702153662105900,6.47710595703125,-0.0008761800127103925,0.006095975637435913,0.0007403587806038558
1772702153672155600,6.48715576171875,-0.0031281490810215473,0.007909588515758514,-0.0011851066956296563
1772702153682204700,6.49720458984375,-0.0011520835105329752,0.008979646489024162,-0.0003134540456812829
1772702153692254700,6.507254638671875,-0.0014152037911117077,0.00782569870352745,-0.000049801110435510054
1772702153702304800,6.5173046875,-0.002192846732214093,0.00757988914847374,-0.002567553659901023
1772702153712353800,6.527353759765625,-0.001579787116497755,0.008942628279328346,0.0005906891310587525
1772702153722403800,6.53740380859375,-0.0008862999966368079,0.0083085298538208,0.0024823325220495462
1772702153732452600,6.54745263671875,-0.001600293442606926,0.0065140919759869576,-0.0010897654574364424
1772702153742502700,6.557502685546875,-0.001683916780166328,0.005784385837614536,-0.0005494101205840707
1772702153752551700,6.5675517578125,-0.002287389012053609,0.00794660672545433,-0.0007534082396887243
1772702153762601700,6.577601806640625,-0.0016706009628251195,0.008160457946360111,0.0000125168571685208
1772702153772650800,6.587650634765625,0.0009025452891364694,0.006065615452826023,0.002879942301660776
1772702153782700800,6.59770068359375,-0.0016410398529842496,0.007729558739811182,-0.0030804784037172794
1772702153792749600,6.60774951171875,-0.0007941546500660479,0.006431267596781254,-0.0032631712965667248
1772702153802799600,6.617799560546875,0.0010157296201214194,0.006548180244863033,-0.002180329989641905
1772702153812849000,6.627848876953125,-0.0012905678013339639,0.005292766261845827,0.0005797701887786388
1772702153822898700,6.637898681640625,-0.0005440838285721838,0.006385195069015026,-0.0012743226252496243
1772702153832947700,6.64794775390625,-0.0014138722326606512,0.008763664402067661,0.00005752427750849165
1772702153842997800,6.657997802734375,-0.0014205301413312554,0.005934055428951979,-0.0009632653673179448
1772702153853046500,6.668046630859375,-0.0005075985100120306,0.007300789933651686,0.000014647385796706658
1772702153863096800,6.678096923828125,-0.0023928501177579165,0.009971141815185547,-0.0020820593927055597
1772702153873145900,6.688145751953125,0.00045806370326317847,0.006473079323768616,0.00042876892257481813
1772702153883195600,6.698195556640625,0.0004527373821474612,0.0054216631688177586,0.0006348976166918874
1772702153893244700,6.70824462890625,-0.0011142665753141046,0.011010306887328625,0.0013086773687973619
1772702153903294700,6.718294677734375,-0.002843457041308284,0.006561229936778545,-0.0013907026732340455
1772702153913343700,6.72834375,-0.00008229167724493891,0.007158843334764242,-0.0017057546647265553
1772702153923393800,6.738393798828125,2.6631610694494157e-7,0.005135640036314726,-0.002376604825258255
1772702153933442800,6.74844287109375,-0.000987500068731606,0.008628375828266144,-0.002551840851083398
1772702153943492600,6.75849267578125,-0.0020208065398037434,0.006566822528839111,0.00138031633105129
1772702153953541600,6.768541748046875,-0.0017861821688711643,0.006509298458695412,-0.0007725830073468387
1772702153963592000,6.778592041015625,-0.0009238505735993385,0.006042446009814739,-0.0021462414879351854
1772702153973640700,6.788640625,0.0001603222917765379,0.0065162223763763905,-0.001359543763101101
1772702153983690800,6.798690673828125,-0.004257329273968935,0.008858473040163517,-0.00042637207661755383
1772702153993739800,6.80873974609375,-0.002353435382246971,0.010330401360988617,-0.0005097290268167853
1772702154003789600,6.81878955078125,-0.0038099181838333607,0.010356767103075981,-0.0030716899782419205
1772702154013838800,6.8288388671875,-0.0002644518972374499,0.005879727192223072,-0.0004135889175813645
1772702154023889000,6.838888916015625,-0.002804841147735715,0.007195062469691038,0.00032623723382130265
1772702154033937700,6.848937744140625,-0.0003760383406188339,0.0062304651364684105,0.0010831075487658381
1772702154043987700,6.85898779296875,0.0019022959750145674,0.008871521800756454,-0.0043625240214169025
1772702154054036700,6.86903662109375,-0.00048123320448212326,0.0073266224935650826,-0.002011219272390008
1772702154064086800,6.879086669921875,-0.0010974886827170849,0.007211573887616396,0.0012514194240793586
1772702154074135800,6.8891357421875,-0.003412308171391487,0.0067540425807237625,-0.0016397082945331931
1772702154084185900,6.899185791015625,-0.0009771138429641724,0.007880826480686665,0.0016732640797272325
1772702154094234600,6.909234619140625,-0.0001507349224993959,0.006669620517641306,-0.0017949705943465233
1772702154104284700,6.91928466796875,0.0008950884221121669,0.006669886875897646,-0.0016884441720321774
1772702154114333700,6.929333740234375,-0.003867975203320384,0.007470166776329279,0.00007217166421469301
1772702154124383700,6.9393837890625,-0.00148151651956141,0.008947156369686127,0.0002593918761704117
1772702154134433800,6.949433837890625,-0.0012634035665541887,0.007303985767066479,0.0013070794520899653
1772702154144482600,6.959482666015625,-0.00370072852820158,0.007375091779977083,-0.001862348522990942
1772702154154532600,6.96953271484375,-0.002111886627972126,0.008100803010165691,-0.0012370382901281118
1772702154164582000,6.979581787109375,-0.001978195970878005,0.00589703768491745,-0.002029062481597066
1772702154174632000,6.9896318359375,-0.0008221178431995213,0.011414574459195137,0.0010351707460358739
1772702154184680700,6.9996806640625,-0.0023177489638328552,0.006342317909002304,-0.0016876452136784792
1772702154194730800,7.009730712890625,0.0004543352697510272,0.006774283014237881,0.000041545314161339775
1772702154204779500,7.019779541015625,-0.0005118595436215401,0.005243764258921146,0.0005874933558516204
1772702154214829600,7.02982958984375,-0.0016013587592169642,0.006354035809636116,0.0021781993564218283
1772702154224878800,7.03987890625,0.0004601942200679332,0.006174805108457804,0.002675145398825407
1772702154234929000,7.049928955078125,-0.0013632721966132522,0.009608685038983822,0.0008495483780279756
1772702154244977700,7.059977783203125,-0.0009853695519268513,0.0070078419521451,-0.0013749900972470641
1772702154255027700,7.07002783203125,-0.002692722249776125,0.007018228527158499,-0.0009475527331233025
1772702154265076700,7.08007666015625,-0.0022335932590067387,0.007339938078075647,-0.0015584818320348859
1772702154275126800,7.090126708984375,-0.00008309062832267955,0.007494401652365923,-0.00011345066013745964
1772702154285175800,7.10017578125,-0.0029795446898788214,0.007730890065431595,0.0021728731226176023
1772702154295225600,7.1102255859375,-0.0009307747823186219,0.006435528863221407,-0.00014327807002700865
1772702154305274600,7.120274658203125,0.0004564658156596124,0.0085452850908041,-0.0021901836153119802
1772702154315324700,7.13032470703125,-0.0032535837963223457,0.008645419962704182,-0.001088966615498066
1772702154325373700,7.140373779296875,-0.0031286815647035837,0.035651471465826035,0.014267618767917156
1772702154335423700,7.150423828125,-0.0006980145117267966,0.04818430542945862,0.016565127298235893
1772702154345472800,7.16047265625,-0.0027718180790543556,0.08026421070098877,0.03251266852021217
1772702154355522600,7.1705224609375,-0.00222001108340919,0.08571676909923553,0.039813458919525146
1772702154365571800,7.18057177734375,-0.0028479844331741333,0.05089780315756798,0.021404623985290527
1772702154375622000,7.190621826171875,0.0005185174522921443,-0.05573516711592674,-0.029873743653297424
1772702154385670700,7.200670654296875,0.0027174896094948053,-0.15870442986488342,-0.0825747698545456
1772702154395720700,7.210720703125,-0.0016562198288738728,-0.012705408968031406,-0.010719755664467812
1772702154405769700,7.220769775390625,-0.0030330740846693516,0.04436879605054855,0.01726340875029564
1772702154415819500,7.230819580078125,0.0002364887041039765,-0.0652887225151062,-0.033895380795001984
1772702154425868800,7.240868896484375,0.0001906823308672756,0.05656128004193306,0.018083928152918816
1772702154435918800,7.2509189453125,-0.002080195117741823,-0.025006549432873726,-0.015733422711491585
1772702154445967600,7.260967529296875,-0.0012303803814575076,0.027803935110569,0.007131146267056465
1772702154456017700,7.271017578125,-0.0012626046082004905,-0.004232029430568218,-0.004885036498308182
