time,seconds_elapsed,z,y,x
1772702684304530400,0.057530517578125,0.0015515576815232635,0.00663606496527791,0.004195810295641422
1772702684314580500,0.06758056640625,0.00005752427750849165,0.005024319514632225,0.00011398329661460593
1772702684324630500,0.077630615234375,-0.0004122573300264776,0.00905368197709322,-0.005408880300819874
1772702684334680300,0.087680419921875,-0.0019262643763795495,0.003552390495315194,-0.000333161442540586
1772702684344730400,0.09773046875,-0.003531617810949683,-0.002079928759485483,0.0027808728627860546
1772702684354780400,0.107780517578125,0.0002540655550546944,-0.0040916805155575275,0.002966228872537613
1772702684364830500,0.11783056640625,-0.0015097459545359015,0.002269812161102891,0.0027326694689691067
1772702684374880300,0.12788037109375,-0.0021140172611922026,0.0034139060880988836,0.0006087986403144896
1772702684384929500,0.137929443359375,-0.0007142598042264581,0.0015502260066568851,0.004730040207505226
1772702684394979600,0.1479794921875,0.0012418320402503014,-0.0020333235152065754,0.00017550231132190675
1772702684405029400,0.158029296875,-0.001743038883432746,0.005423261318355799,0.0008101335843093693
1772702684415079400,0.168079345703125,0.002379800658673048,0.008230498991906643,0.0019358517602086067
1772702684425129500,0.17812939453125,-0.0024884575977921486,0.003693005535751581,0.0023526365403085947
1772702684435179500,0.188179443359375,-0.0005257080192677677,0.0036940707359462976,0.0016128103015944362
1772702684445229300,0.198229248046875,-0.003245328087359667,0.0014423680258914828,0.00250523560680449
1772702684455279400,0.208279296875,-0.0035984632559120655,0.001954493811354041,0.001091896090656519
1772702684465329400,0.218329345703125,0.0018580874893814325,0.0018671422731131315,0.004638161510229111
1772702684475379500,0.22837939453125,-0.003743072971701622,0.008764729835093021,0.0025893915444612503
1772702684485429200,0.23842919921875,-0.0004753742541652173,0.004279167391359806,0.004197407979518175
1772702684495479300,0.248479248046875,-0.0008934905636124313,-0.004086354281753302,0.008005994372069836
1772702684505528600,0.258528564453125,-0.0022983080707490444,-0.0008482168195769191,0.003320695599541068
1772702684515578600,0.26857861328125,-0.0006479470757767558,0.0013662016717717052,0.00407516909763217
1772702684525628400,0.27862841796875,0.0010775149567052722,0.005056277383118868,-0.0002348908019484952
1772702684535678500,0.288678466796875,0.000014913702216290403,0.004790227860212326,0.0009941579774022102
1772702684545728500,0.298728515625,-0.0013542174128815532,0.0036429380998015404,0.003946804907172918
1772702684555778600,0.308778564453125,-0.004222175572067499,0.00487145408987999,0.0027182884514331818
1772702684565828400,0.318828369140625,-0.004605138208717108,0.001433845958672464,0.0062970444560050964
1772702684575878400,0.32887841796875,-0.0010426276130601764,0.004348143003880978,0.002995523624122143
1772702684585928400,0.338928466796875,-0.004834436345845461,0.007564709056168795,0.0014378406340256333
1772702684595978500,0.348978515625,-0.003040530951693654,0.0037555897142738104,0.0033955303952097893
1772702684606028300,0.3590283203125,-0.004590224474668503,-0.0036189695820212364,0.006685866042971611
1772702684616078300,0.369078369140625,-0.00205249828286469,0.007071757689118385,0.004965996369719505
1772702684626128400,0.37912841796875,-0.002091913018375635,0.011040933430194855,0.005792641546577215
1772702684636177400,0.389177490234375,-0.0017800568602979183,0.011347729712724686,0.002142246812582016
1772702684646227500,0.3992275390625,-0.002127333078533411,0.008430768735706806,0.003490072675049305
1772702684656277500,0.409277587890625,-0.005371595732867718,0.008039284497499466,0.0025600967928767204
1772702684666327600,0.41932763671875,-0.0030453247018158436,0.0068387314677238464,0.00024820660473778844
1772702684676377300,0.42937744140625,-0.0037238982040435076,0.002549710450693965,0.0022090920247137547
1772702684686427400,0.439427490234375,-0.0017752632265910506,-0.005192098673433065,0.0030131004750728607
1772702684696477400,0.4494775390625,-0.0026349315885454416,0.00031638352083973587,0.0018940401496365666
1772702684706527500,0.459527587890625,0.0006119944155216217,0.008755674585700035,0.00233825552277267
1772702684716577300,0.469577392578125,-0.0017957695527002215,0.013193566352128983,0.002689260058104992
1772702684726627300,0.47962744140625,0.0006149238906800747,0.009329053573310375,0.004168379586189985
1772702684736677400,0.489677490234375,-0.003177683800458908,0.005803028121590614,0.004551342222839594
1772702684746727400,0.4997275390625,0.0008069378091022372,0.005162005312740803,0.0031212246976792812
1772702684756776400,0.5097763671875,-0.0016857809387147427,0.007069094572216272,0.0014924354618415236
1772702684766826500,0.519826416015625,-0.0010482202051207423,0.00637933611869812,0.003355316584929824
1772702684776876500,0.52987646484375,-0.002558765234425664,0.01420476846396923,0.0038892803713679314
1772702684786926600,0.539926513671875,-0.003961452282965183,0.018024273216724396,0.005371862091124058
1772702684796976400,0.549976318359375,-0.005119660869240761,0.012676380574703217,0.0030043120495975018
1772702684807026400,0.5600263671875,-0.002159290947020054,0.005087969359010458,0.0012980246683582664
1772702684817076500,0.570076416015625,-0.005400890484452248,0.008200671523809433,0.0012072109384462237
1772702684827126500,0.58012646484375,-0.006143646314740181,0.0057228668592870235,0.00026844663079828024
1772702684837176300,0.59017626953125,-0.006833671126514673,-0.001210939371958375,-0.000639424950350076
1772702684847226400,0.600226318359375,-0.00765978405252099,-0.00023702133330516517,-0.0012040151050314307
1772702684857276400,0.6102763671875,-0.0035246936604380608,0.00672235107049346,0.0022956449538469315
1772702684867326500,0.620326416015625,-0.0006764429272152483,0.0099623529240489,0.0020754013676196337
1772702684877376300,0.630376220703125,0.0005299690528772771,0.01197011023759842,0.00301709515042603
1772702684887425500,0.640425537109375,0.004017910920083523,0.01122176181524992,0.004303934518247843
1772702684897476000,0.65047607421875,0.0008245146600529552,0.008462993428111076,0.003419232554733753
1772702684907526100,0.660526123046875,0.002231462625786662,0.009855560027062893,0.0017992316279560328
1772702684917576200,0.670576171875,-0.0005880259559489787,0.003683151677250862,-0.0006463492172770202
1772702684927626200,0.680626220703125,-0.00009693906031316146,0.0002162486780434847,0.0018373148050159216
1772702684937676300,0.69067626953125,-0.000964064325671643,-0.0007246461464092135,-0.0005912217311561108
1772702684947726300,0.700726318359375,-0.0006029396899975836,-0.002109756227582693,-0.0009675264009274542
1772702684957776100,0.710776123046875,0.0020421119406819344,-0.000963797967415303,0.00034594463068060577
1772702684967826200,0.720826171875,-0.00006524744821945205,-0.0025092302821576595,-0.000294545607175678
1772702684977876200,0.730876220703125,0.002133458387106657,-0.005579855293035507,-0.002088717184960842
1772702684987926300,0.74092626953125,0.00031638352083973587,0.004758536349982023,-0.0022658174857497215
1772702684997976000,0.75097607421875,-0.0018194715958088636,0.011952000670135021,0.0015472965314984322
1772702685008026000,0.761026123046875,-0.000010120012120751198,0.010293117724359035,-0.000597879639826715
1772702685018075100,0.7710751953125,0.00021225394448265433,0.008270978927612305,-0.000028762138754245825
1772702685028125000,0.781125,-0.0011086739832535386,0.010884338989853859,0.002478603972122073
1772702685038175200,0.79117529296875,0.0007731156656518579,0.008040616288781166,-0.0018751317402347922
1772702685048225300,0.801225341796875,-0.0016849819803610444,0.006533799227327108,-0.0008426241693086922
1772702685058275300,0.811275390625,-0.0029348034877330065,0.007202785462141037,-0.0011656655697152019
1772702685068325000,0.8213251953125,0.0002466087171342224,0.003727093804627657,-0.0015188007382676005
1772702685078375200,0.831375244140625,-0.0019374496769160032,0.007393734063953161,-0.004211523104459047
1772702685088425200,0.84142529296875,-0.003355316584929824,0.009446498937904835,-0.005112736485898495
1772702685098475300,0.851475341796875,-0.000723048229701817,0.005949235521256924,-0.0027917916886508465
1772702685108525000,0.861525146484375,-0.002588326344266534,0.005453355144709349,-0.004116714466363192
1772702685118575000,0.8715751953125,-0.00003914846820407547,0.01188222598284483,0.00019361180602572858
1772702685128625200,0.881625244140625,0.0000428768944402691,0.014646853320300579,-0.0006032059900462627
1772702685138675200,0.89167529296875,-0.0007949535502120852,0.012282232753932476,-0.0017307883827015758
1772702685148724000,0.901723876953125,0.00016591492749284953,0.011603126302361488,-0.0068062408827245235
1772702685158774000,0.91177392578125,-0.0017627463676035404,0.011486480012536049,-0.004973985720425844
1772702685168824300,0.92182421875,-0.0041792988777160645,0.012050537392497063,-0.008329303003847599
1772702685178874400,0.931874267578125,-0.004160656593739986,0.009610815905034542,-0.0032378712203353643
1772702685188924200,0.941924072265625,-0.004472512751817703,0.0067993164993822575,-0.004545483272522688
1772702685198974200,0.95197412109375,-0.004890096373856068,0.008893360383808613,-0.0041404166258871555
1772702685209024300,0.962024169921875,-0.0031065773218870163,0.009064868092536926,-0.003460511565208435
1772702685219074300,0.97207421875,-0.0029763488564640284,0.012967729941010475,-0.003585680155083537
1772702685229124000,0.9821240234375,-0.0041220407001674175,0.016593357548117638,-0.0027395938523113728
1772702685239174100,0.992174072265625,-0.005520999431610107,0.02003016695380211,-0.0016474314033985138
1772702685249224200,1.00222412109375,-0.004520716145634651,0.019641611725091934,-0.0033454629592597485
1772702685259274200,1.012274169921875,-0.00361683894880116,0.016532370820641518,-0.005888249259442091
1772702685269324000,1.022323974609375,-0.006719954311847687,0.013743508607149124,-0.0008167914929799736
1772702685279373000,1.032373046875,-0.004403536673635244,0.01449984684586525,-0.004126301966607571
1772702685289423000,1.042423095703125,-0.006965231616050005,0.01666925847530365,-0.003313771216198802
1772702685299473200,1.05247314453125,-0.00509782275184989,0.013162407092750072,-0.0007629956235177815
1772702685309523200,1.062523193359375,-0.0037862160243093967,0.01302339043468237,-0.002067944500595331
1772702685319573200,1.0725732421875,-0.005042961798608303,0.01709136925637722,-0.001208009896799922
1772702685329623300,1.082623291015625,-0.0011704593198373914,0.022313561290502548,-0.003951864782720804
1772702685339673000,1.092673095703125,-0.005111937876790762,0.019053852185606956,-0.008474444970488548
1772702685349723100,1.10272314453125,-0.006225405260920525,0.015244199894368649,-0.006731938570737839
1772702685359773200,1.112773193359375,-0.00455773388966918,0.019419770687818527,-0.009893110953271389
1772702685369823200,1.1228232421875,-0.004461327567696571,0.01798059791326523,-0.007031544111669064
1772702685379873000,1.132873046875,-0.0025217472575604916,0.01829005777835846,-0.007650196552276611
1772702685389923000,1.142923095703125,-0.0054845139384269714,0.012753346003592014,-0.003260241821408272
1772702685399973000,1.15297314453125,-0.006161755882203579,0.014285195618867874,-0.0024586303625255823
1772702685410022100,1.163022216796875,-0.0041617220267653465,0.01992523856461048,-0.004160123877227306
1772702685420072200,1.173072265625,-0.005320729687809944,0.0216514989733696,-0.0004005394293926656
1772702685430122200,1.183122314453125,-0.0038543930277228355,0.022459503263235092,-0.004203799646347761
1772702685440172300,1.19317236328125,-0.005387574899941683,0.01991298794746399,-0.003954794257879257
1772702685450222300,1.203222412109375,-0.00515721132978797,0.018877284601330757,-0.0031009847298264503
1772702685460272000,1.213272216796875,-0.005696235224604607,0.015541941858828068,-0.005368399899452925
1772702685470322200,1.223322265625,-0.0033364081755280495,0.01828792691230774,-0.004352404270321131
1772702685480372200,1.233372314453125,-0.003117496380582452,0.020980915054678917,-0.003925499506294727
1772702685490422300,1.24342236328125,-0.007927431724965572,0.016760338097810745,-0.004992628004401922
1772702685500472000,1.25347216796875,-0.005471197888255119,0.013188772834837437,-0.005562544334679842
1772702685510522000,1.263522216796875,-0.0023334617726504803,0.0172109454870224,-0.00538544449955225
1772702685520572200,1.273572265625,-0.009553823620080948,0.014720356091856956,-0.007663778495043516
1772702685530622200,1.283622314453125,-0.006354568526148796,0.016406936571002007,-0.009384979493916035
1772702685540671200,1.293671142578125,-0.0065132929012179375,0.021801169961690903,-0.005977198481559753
1772702685550721300,1.30372119140625,-0.008703476749360561,0.020490361377596855,-0.007762848399579525
1772702685560771300,1.313771240234375,-0.0018703379901126027,0.011469968594610691,-0.007255249656736851
1772702685570821000,1.323821044921875,-0.0010151970200240612,0.009987653233110905,-0.005819539539515972
1772702685580871200,1.33387109375,-0.0030128341168165207,0.014809838496148586,-0.00592420157045126
1772702685590921200,1.343921142578125,0.000963797967415303,0.011317902244627476,-0.005786516238003969
1772702685600971300,1.35397119140625,-0.00003382214708835818,0.01613769121468067,-0.00478516798466444
1772702685611021000,1.36402099609375,0.0011321097845211625,0.01435097586363554,-0.0035505264531821012
1772702685621071000,1.374071044921875,0.0007571366732008755,0.015238873660564423,-0.004099137615412474
1772702685631121200,1.38412109375,-0.0024855281226336956,0.014883075840771198,-0.0049795787781476974
1772702685641171200,1.394171142578125,-0.0020540961995720863,0.012111257761716843,-0.0032077773939818144
1772702685651221000,1.404220947265625,-0.0022066952660679817,0.0059926449321210384,-0.003772634081542492
1772702685661271000,1.41427099609375,-0.0026727484073489904,0.003817375050857663,-0.005565473809838295
1772702685671320300,1.4243203125,-0.0014721954939886928,0.002005093963816762,-0.003796336008235812
1772702685681370400,1.434370361328125,-0.0018383801216259599,0.0046517434529960155,-0.006193447392433882
1772702685691420200,1.444420166015625,-0.0021646174136549234,0.012027101591229439,-0.0035236284602433443
1772702685701470200,1.45447021484375,0.0013190637109801173,0.011747736483812332,-0.001978195970878005
1772702685711520300,1.464520263671875,0.0023672839161008596,0.0161235760897398,-0.0021915151737630367
1772702685721570300,1.4745703125,0.00169563468080014,0.015782425180077553,-0.005119394510984421
1772702685731620000,1.4846201171875,0.0010793792316690087,0.013028716668486595,-0.002120941411703825
1772702685741670100,1.494670166015625,0.0011651329696178436,0.005961486138403416,-0.0019771307706832886
1772702685751720200,1.50472021484375,0.0013662016717717052,0.006882673595100641,-0.006376406643539667
1772702685761770200,1.514770263671875,-0.001987783471122384,0.0027337349019944668,-0.006246977020055056
1772702685771820000,1.524820068359375,0.0008074704091995955,-0.00048123320448212326,-0.005137237720191479
1772702685781870000,1.5348701171875,-0.0010772485984489322,0.0021345235873013735,-0.002543585142120719
1772702685791920000,1.544920166015625,-0.0006479470757767558,0.0046845003962516785,-0.004540956113487482
1772702685801969200,1.55496923828125,-0.0010402307379990816,0.005796902813017368,-0.0035654399544000626
1772702685812019200,1.565019287109375,0.0007563377148471773,0.00993039458990097,-0.0014658038271591067
1772702685822069200,1.5750693359375,0.001279382617212832,0.012573049403727055,-0.003763312939554453
1772702685832119300,1.585119384765625,-0.00019281286222394556,0.011480887420475483,-0.00112465291749686
1772702685842169000,1.595169189453125,-0.0019715381786227226,0.0060211410745978355,-0.0036019254475831985
1772702685852219100,1.60521923828125,-0.0001584580895723775,0.010037187486886978,-0.0014138722326606512
1772702685862269200,1.615269287109375,-0.001989913871511817,0.006654706783592701,-0.0011584750609472394
1772702685872319200,1.6253193359375,-0.0033308155834674835,0.0003480751474853605,0.003418966196477413
1772702685882369000,1.635369140625,-0.0006122607155703008,-0.0010527475969865918,-0.0022501046769320965
1772702685892418800,1.645418701171875,-0.0023933828342705965,0.004058124963194132,0.0015070828376337886
1772702685902468600,1.655468505859375,-0.0022533005103468895,0.009456885047256947,0.0003182477375958115
1772702685912518700,1.6655185546875,-0.0006625944515690207,0.011295264586806297,0.0024802018888294697
1772702685922568700,1.675568603515625,0.0005930859479121864,0.009918144904077053,0.0017084177816286683
1772702685932617700,1.68561767578125,-0.003117230022326112,0.006684001535177231,-0.0011544802691787481
1772702685942667800,1.695667724609375,-0.001838912721723318,0.008377239108085632,0.0009185242815874517
1772702685952717800,1.7057177734375,-0.0036762275267392397,0.010313623584806919,0.0065713501535356045
1772702685962768000,1.715767822265625,-0.0026192190125584602,0.00965502392500639,0.005076517816632986
1772702685972817700,1.725817626953125,-0.0004194478678982705,0.010071275755763054,0.0023409186396747828
1772702685982867700,1.73586767578125,-0.003891144646331668,0.009692574851214886,0.002998985582962632
1772702685992917800,1.745917724609375,-0.003438939806073904,0.00863210391253233,0.0031012510880827904
1772702686002967800,1.7559677734375,-0.003564641112461686,0.013136042281985283,0.0015366439474746585
1772702686013017600,1.766017578125,-0.0017768610268831253,0.011900868266820908,0.0006266417913138866
1772702686023067600,1.776067626953125,-0.0014865765115246177,0.008096542209386826,0.0031132353469729424
1772702686033117700,1.78611767578125,-0.0017805894603952765,0.009697102010250092,0.0014620753936469555
1772702686043167700,1.796167724609375,-0.001969940261915326,0.014854047447443008,0.002338788006454706
1772702686053217800,1.8062177734375,-0.003081809962168336,0.014359232038259506,0.0014290522085502744
1772702686063267600,1.816267578125,-0.0016295883106067777,0.006934072356671095,0.0024471788201481104
1772702686073316900,1.82631689453125,-0.0018093516118824482,0.003993676509708166,-0.0013339773286134005
1772702686083367000,1.836366943359375,-0.0008396946941502392,0.010742392390966415,0.0010527475969865918
1772702686093416700,1.846416748046875,-0.0031121699139475822,0.009786850772798061,-0.003454386256635189
1772702686103466800,1.856466796875,-0.0031851406674832106,0.009959423914551735,-0.0010487528052181005
1772702686113516800,1.866516845703125,-0.0034551850985735655,0.011550395749509335,-0.002039981307461858
1772702686123566800,1.87656689453125,-0.0031017838045954704,0.006055495701730251,-0.0032743564806878567
1772702686133616600,1.88661669921875,-0.0027659591287374496,0.008767658844590187,-0.0005523395957425237
1772702686143666700,1.896666748046875,-0.002931075170636177,0.015809856355190277,-0.0046757119707763195
1772702686153716700,1.906716796875,-0.0035167040769010782,0.02057851105928421,-0.0028820729348808527
1772702686163766800,1.916766845703125,-0.002843723399564624,0.01919020526111126,-0.001659948262386024
1772702686173816600,1.926816650390625,-0.001621332485228777,0.012915798462927341,-0.002883404493331909
1772702686183866600,1.93686669921875,-0.003323092358186841,0.007844340987503529,-0.002709500025957823
1772702686193916700,1.946916748046875,-0.0014034858904778957,0.007083741948008537,-0.00433189794421196
1772702686203965700,1.956965576171875,-0.005692773032933474,0.009195362217724323,-0.004945756401866674
1772702686214015700,1.967015625,-0.0033803503029048443,0.008098406717181206,-0.0030804784037172794
1772702686224065800,1.977065673828125,-0.006331399083137512,0.005834985990077257,-0.002020007697865367
1772702686234115800,1.98711572265625,-0.0031579763162881136,0.004726844374090433,-0.003326820908114314
1772702686244165600,1.99716552734375,-0.0009893643436953425,0.0038866172544658184,-0.002100168727338314
1772702686254215700,2.007215576171875,0.0003001382574439049,0.0075487298890948296,-0.00016351809608750045
1772702686264265700,2.017265625,0.004350007511675358,0.013275591656565666,-0.0013664679136127234
1772702686274315800,2.027315673828125,0.0023606258910149336,0.013369867578148842,0.0004902879591099918
1772702686284365800,2.03736572265625,0.00159470085054636,0.007030212786048651,0.0012658004416152835
1772702686294415600,2.04741552734375,0.005030711181461811,0.004496214911341667,-0.0034756914246827364
1772702686304465700,2.057465576171875,-0.0001496696495451033,0.004503405187278986,-0.003288471372798085
1772702686314515700,2.067515625,0.002085787709802389,-0.0020743361674249172,-0.002108957152813673
1772702686324565800,2.077565673828125,0.0005589975044131279,-0.000532365869730711,-0.0010266485624015331
1772702686334615800,2.08761572265625,0.0023345269728451967,-0.004637895151972771,-0.0023667511995881796
1772702686344664800,2.097664794921875,0.0014263890916481614,-0.00666402792558074,-0.0018940401496365666
1772702686354715000,2.10771484375,-0.0008735168376006186,-0.0050099384970963,-0.004265851341187954
1772702686364764700,2.1177646484375,0.0016666061710566282,0.0026815368328243494,-0.003061569994315505
1772702686374814700,2.127814697265625,0.0035300198942422867,0.00896872766315937,-0.004256796557456255
1772702686384864800,2.13786474609375,-0.0003808320325333625,0.006570817437022924,-0.0009496832499280572
1772702686394914800,2.147914794921875,0.005206213798373938,0.003005377249792218,-0.0003448793722782284
1772702686404964600,2.157964599609375,-0.0011044129496440291,0.008885903283953667,-0.0039017973467707634
1772702686415014700,2.1680146484375,0.00126739835832268,0.007439806591719389,-0.0029001825023442507
1772702686425064700,2.178064697265625,-0.001231711939908564,0.0002324939559912309,-0.0010050770360976458
1772702686435114800,2.18811474609375,0.00029108350281603634,-0.002939863596111536,-0.002689526416361332
1772702686445164800,2.198164794921875,-0.0015875103417783976,-0.0010687265312299132,-0.0015049523208290339
1772702686455214800,2.20821484375,-0.0011057445080950856,-0.0008346347021870315,0.0026463831309229136
1772702686465265000,2.218264892578125,0.0005589975044131279,-0.003311907174065709,-0.0037201696541160345
1772702686475315000,2.22831494140625,-0.0005811017472296953,0.0032107068691402674,-0.00037257623625919223
1772702686485364700,2.23836474609375,0.0023350596893578768,0.0018804579740390182,-0.001942776027135551
1772702686495413800,2.248413818359375,-0.001255946815945208,0.0029851372819393873,-0.0008173241512849927
1772702686505463800,2.2584638671875,0.0009898969437927008,0.00418302696198225,0.0023305322974920273
1772702686515513600,2.268513671875,0.0011179950088262558,0.006696784868836403,-0.000012250540748937055
1772702686525563600,2.278563720703125,0.0035273567773401737,0.0057769292034208775,0.004747084807604551
1772702686535613700,2.28861376953125,-0.0004751079250127077,0.00803182739764452,0.0016405072528868914
1772702686545663700,2.298663818359375,0.00018349179299548268,0.0009262474486604333,0.0011267834343016148
1772702686555713800,2.3087138671875,-0.0035428032279014587,-0.0052472264505922794,0.0009126652730628848
1772702686565763600,2.318763671875,-0.0015121428295969963,-0.0003025351034011692,0.0014362427173182368
1772702686575814000,2.32881396484375,0.0006727144937030971,0.001630387152545154,-0.0005954828229732811
1772702686585864000,2.338864013671875,-0.0013752563390880823,0.0036629117093980312,0.0006194512825459242
1772702686595914000,2.3489140625,-0.0031244205310940742,0.0010849718237295747,0.0021797972731292248
1772702686605963800,2.3589638671875,-0.0022066952660679817,0.00358781055547297,0.0037523938808590174
1772702686616012800,2.3690126953125,-0.0022562299855053425,0.006564425770193338,-0.0003094593121204525
1772702686626062800,2.379062744140625,-0.0026051041204482317,0.009523198008537292,-0.0009635316673666239
1772702686636112600,2.389112548828125,-0.001853826455771923,0.00947978813201189,0.0034288198221474886
1772702686646162700,2.39916259765625,-0.002409095410257578,0.010773551650345325,0.005461877211928368
1772702686656212700,2.409212646484375,0.0000250337143370416,0.0028011128306388855,0.005279184319078922
1772702686666262800,2.4192626953125,-0.002171807922422886,0.0004215783847030252,0.003120692213997245
1772702686676312600,2.4293125,-0.0024916534312069416,-0.0004034689045511186,0.001035436987876892
1772702686686362600,2.439362548828125,0.0017622136510908604,-0.0035507925786077976,0.006871754303574562
1772702686696413000,2.449412841796875,0.000007989483492565341,-0.0003683151735458523,0.0013084110105410218
1772702686706463000,2.459462890625,-0.00009960222087102011,0.0037766287568956614,-0.000036485307646216825
1772702686716512800,2.4695126953125,0.0001893507578643039,0.003478354774415493,0.0015339808305725455
1772702686726562800,2.479562744140625,0.0005611280212178826,0.002109756227582693,0.0018192053539678454
1772702686736612900,2.48961279296875,0.0003070624661631882,0.0008700547041371465,-0.0013749900972470641
1772702686746661600,2.49966162109375,-0.0012977584265172482,-0.004132959526032209,-0.002948652021586895
1772702686756711700,2.509711669921875,0.0004340952436905354,-0.003997404593974352,0.0003091930120717734
1772702686766761700,2.51976171875,-0.002290851203724742,0.001996571896597743,-0.0022362563759088516
1772702686776811800,2.529811767578125,-0.0002966761530842632,0.0010527475969865918,0.00279046013019979
1772702686786861600,2.539861572265625,-0.00041971419705078006,0.0036099147982895374,0.0013345100451260805
1772702686796911600,2.54991162109375,-0.002299639629200101,-0.0033630398102104664,-0.0025712819769978523
1772702686806961700,2.559961669921875,0.000284159294096753,-0.005343632772564888,-0.00010093380114994943
1772702686817011700,2.57001171875,0.0009677927591837943,-0.005393966566771269,0.003450657706707716
1772702686827062000,2.58006201171875,-0.0016708672046661377,0.0031758195254951715,0.0009571401169523597
1772702686837111800,2.59011181640625,-0.002469282830134034,0.01577416993677616,-0.0036719664931297302
1772702686847161900,2.600161865234375,-0.003409911412745714,0.01907009817659855,-0.00005273058923194185
1772702686857212000,2.6102119140625,-0.0007816377910785377,0.012634835205972195,0.0016666061710566282
1772702686867262000,2.620261962890625,-0.0020538298413157463,0.008392952382564545,-0.0009784454014152288
1772702686877310700,2.630310791015625,-0.00267727579921484,0.0054328483529388905,-0.0033800839446485043
1772702686887360800,2.64036083984375,-0.0021702100057154894,-0.0008434231276623905,-0.0005387574783526361
1772702686897410600,2.65041064453125,-0.0037835529074072838,-0.0001728391507640481,-0.0021670141723006964
1772702686907460400,2.66046044921875,-0.0013643373968079686,0.002272475278005004,-0.0018279937794432044
1772702686917510400,2.670510498046875,-0.0002492718631401658,0.0020940436515957117,-0.002572613535448909
1772702686927560400,2.680560546875,0.0006226470577530563,0.006343383342027664,-0.0018130800453945994
1772702686937610800,2.69061083984375,0.0032538501545786858,0.0070549799129366875,-0.0015960324089974165
1772702686947660500,2.70066064453125,0.005285309627652168,0.01440983172506094,-0.0035057852510362864
1772702686957710600,2.710710693359375,0.00418249424546957,0.011356251314282417,-0.005419000051915646
1772702686967760600,2.7207607421875,0.0052384380251169205,0.005898901727050543,-0.000013315805517777335
1772702686977810700,2.730810791015625,0.003352919826284051,-0.0007805725326761603,-0.0022088258992880583
1772702686987860500,2.740860595703125,0.0059694754891097546,-0.003944674041122198,-0.004303934518247843
1772702686997910500,2.75091064453125,0.0038956720381975174,-0.003291134489700198,-0.0014077469240874052
1772702687007959600,2.76095947265625,0.004139084834605455,-0.007501325570046902,-0.002867958042770624
1772702687018009300,2.77100927734375,0.004988367203623056,-0.008596683852374554,-0.000336090917699039
1772702687028059400,2.781059326171875,0.0020421119406819344,-0.012101669795811176,-0.0038219024427235126
1772702687038109400,2.791109375,0.004070109222084284,-0.0027438548859208822,-0.0023760723415762186
1772702687048159500,2.801159423828125,0.0026644926983863115,0.0031707596499472857,0.00047084689140319824
1772702687058209500,2.81120947265625,0.004730306565761566,0.007585481740534306,0.0005440838285721838
1772702687068259600,2.821259521484375,0.0040794298984110355,0.009287241846323013,-0.0012141350889578462
1772702687078309600,2.8313095703125,0.005929261911660433,0.010817760601639748,0.0007262440049089491
1772702687088359700,2.841359619140625,0.002805640222504735,0.007099454756826162,0.002273540711030364
1772702687098409500,2.851409423828125,0.000886566296685487,0.0052384380251169205,0.002412823960185051
1772702687108459500,2.86145947265625,0.0019710054621100426,0.006217149551957846,0.00048176583368331194
1772702687118509600,2.871509521484375,0.00012436961696948856,0.0010096043115481734,-0.001243696198798716
1772702687128559600,2.8815595703125,0.0017025588313117623,-0.0032623722217977047,0.0031036478467285633
1772702687138608400,2.8916083984375,-0.0007701861904934049,0.0035481294617056847,0.0015062838792800903
1772702687148658400,2.901658447265625,-0.0004034689045511186,0.0054541537538170815,0.0025899240281432867
1772702687158708500,2.91170849609375,0.003781422507017851,0.0015560849569737911,0.004227235447615385
1772702687168758500,2.921758544921875,0.00264744833111763,0.00307621737010777,-0.000261788722127676
1772702687178808600,2.93180859375,0.0007105313707143068,0.0029939257074147463,0.0016389093361794949
1772702687188858600,2.941858642578125,0.003234142903238535,-0.0006870955694466829,-0.0014591459184885025
1772702687198908700,2.95190869140625,0.0018865832826122642,-0.0012990899849683046,0.00030866035376675427
1772702687208958700,2.961958740234375,0.0009054747642949224,-0.0001536643976578489,0.0007126618875190616
1772702687219008500,2.972008544921875,-0.0007241134881041944,0.0006543386843986809,0.0014911039033904672
1772702687229058600,2.98205859375,-0.001442900625988841,0.0059601543471217155,-0.00040266994619742036
1772702687239108600,2.992108642578125,-0.00213532242923975,0.003177151083946228,-0.0011315771844238043
1772702687249158700,3.00215869140625,0.000054328484111465514,0.00044341632747091353,0.0014713965356349945
1772702687259208400,3.01220849609375,-0.0021406488958746195,0.0003211772127542645,0.0006103964988142252
1772702687269257500,3.022257568359375,-0.0016772588714957237,-0.0008239820599555969,-0.00026258768048137426
1772702687279307500,3.0323076171875,-0.002371278591454029,0.0004218447138555348,-0.0003635214816313237
1772702687289357300,3.042357421875,-0.002067412016913295,0.000663393409922719,0.0033846113365143538
1772702687299407400,3.052407470703125,-0.00509995361790061,0.006128199864178896,0.002282062778249383
1772702687309457700,3.062457763671875,-0.003728425595909357,0.008035289123654366,0.003123355330899358
1772702687319507700,3.0725078125,-0.0021052288357168436,0.009151420556008816,0.004604605492204428
1772702687329557500,3.0825576171875,-0.004059989005327225,0.0075695025734603405,0.0004450142150744796
1772702687339607600,3.092607666015625,-0.003972903825342655,0.007406783755868673,0.0016010924009606242
1772702687349657600,3.10265771484375,-0.0028306739404797554,0.005052815657109022,0.001255414099432528
1772702687359707600,3.112707763671875,-0.005028580781072378,0.00643712654709816,-0.0017246630741283298
1772702687369757400,3.12275732421875,-0.003966778516769409,0.004577174782752991,0.0011938951211050153
1772702687379807500,3.132807373046875,-0.005309011787176132,0.005409678909927607,0.0006056028068996966
1772702687389856500,3.1428564453125,-0.0022897860035300255,0.0072746905498206615,-0.003668504301458597
1772702687399906600,3.152906494140625,-0.00618039770051837,0.006369748618453741,-0.0032615733798593283
1772702687409956400,3.162956298828125,-0.0054759918712079525,0.008319448679685593,-0.0052208611741662025
1772702687420006400,3.17300634765625,-0.0054821171797811985,0.0037473340053111315,-0.002074069809168577
1772702687430056400,3.183056396484375,-0.0021784657146781683,0.0054552191868424416,-0.0014482269762083888
1772702687440106800,3.193106689453125,-0.001936917076818645,0.005133775528520346,-0.0028538433834910393
1772702687450156500,3.203156494140625,-0.0034882084000855684,0.005243497900664806,-0.005666407756507397
1772702687460206600,3.21320654296875,-0.004522580187767744,0.006144445389509201,-0.002954510971903801
1772702687470256600,3.223256591796875,-0.003922037314623594,0.011598865501582623,-0.0019387812353670597
1772702687480306700,3.233306640625,-0.00526613462716341,0.012017514556646347,-0.003522296901792288
1772702687490356500,3.2433564453125,-0.00404480891302228,0.007158576976507902,0.0021635519806295633
1772702687500406500,3.253406494140625,-0.002862365450710058,0.00959883164614439,0.0033997914288192987
1772702687510456600,3.26345654296875,-0.0028628981672227383,0.01480557769536972,0.0019776634871959686
1772702687520505300,3.27350537109375,-0.0059510995633900166,0.02076706290245056,-0.00020825919636990875
1772702687530555400,3.283555419921875,-0.009766343981027603,0.023807860910892487,0.000990429543890059
1772702687540605400,3.29360546875,-0.00806138850748539,0.013997840695083141,0.0033779535442590714
1772702687550655500,3.303655517578125,-0.005566272884607315,0.011860653758049011,0.0035233621019870043
1772702687560705500,3.31370556640625,-0.007311708759516478,0.011111240833997726,0.0010428938549011946
1772702687570755600,3.323755615234375,-0.007484015077352524,0.007851798087358475,0.003409378696233034
1772702687580805600,3.3338056640625,-0.009910155087709427,0.006543120369315147,0.0007544735562987626
1772702687590855700,3.343855712890625,-0.009314938448369503,0.007663245778530836,-0.0012434299569576979
1772702687600905500,3.353905517578125,-0.006522081326693296,0.007900533266365528,0.0030282805673778057
1772702687610955500,3.36395556640625,-0.0035049861762672663,0.012997291050851345,-0.0014447649009525776
1772702687621005600,3.374005615234375,0.0004239752306602895,0.01498321071267128,0.0020362529903650284
1772702687631055600,3.3840556640625,0.00000958738019107841,0.012474779039621353,0.002938798163086176
1772702687641105400,3.39410546875,-0.002159024588763714,0.020495686680078506,0.003716174978762865
1772702687651154400,3.404154541015625,0.0005126585019752383,0.0174998976290226,0.004266384057700634
1772702687661204500,3.41420458984375,0.001127582392655313,0.01031708624213934,-0.00020106865849811584
1772702687671254500,3.424254638671875,-0.0018335863715037704,0.002769953804090619,0.002043976215645671
1772702687681304600,3.4343046875,-0.002305232221260667,0.006384662352502346,-0.0005416869535110891
1772702687691354600,3.444354736328125,-0.0018791264155879617,0.007126885466277599,0.00006524744821945205
1772702687701404700,3.45440478515625,-0.0025925873778760433,0.00561181316152215,0.0011922972043976188
1772702687711454700,3.464454833984375,-0.002415487077087164,0.0005645901546813548,-0.002298840554431081
1772702687721504500,3.47450439453125,0.000556334329303354,0.004674113821238279,0.0037673076149076223
1772702687731554600,3.484554443359375,0.0000673779723001644,0.008776979520916939,0.002635996788740158
1772702687741604600,3.4946044921875,-0.0001661812566453591,0.01708630844950676,0.003448527306318283
1772702687751654700,3.504654541015625,0.0025094966404139996,0.015114503912627697,0.0011379687348380685
1772702687761704400,3.514704345703125,0.0004165183927398175,0.00848563015460968,0.0005608617211692035
1772702687771753500,3.52475341796875,0.000316916179144755,0.0034229608718305826,0.004837632179260254
1772702687781803500,3.534803466796875,-0.000391218374716118,0.001044491771608591,-0.001924666459672153
1772702687791853300,3.544853271484375,0.0016791230300441384,0.0015001586871221662,-0.00040852889651432633
1772702687801903400,3.5549033203125,-0.0006466155173256993,0.002825880190357566,-0.0005659217131324112
1772702687811953700,3.56495361328125,0.002926813904196024,0.00324852392077446,-0.0017358483746647835
1772702687822003700,3.575003662109375,0.0009318400407209992,0.00227939966134727,0.000015712650565546937
1772702687832053500,3.585053466796875,0.0010396981379017234,-0.0008820389630272985,-0.00210682675242424
1772702687842103600,3.595103515625,0.0007065366371534765,-0.002043177140876651,-0.002838397165760398
1772702687852153600,3.605153564453125,-0.0011233213590458035,-0.0010721886064857244,-0.0023875238839536905
1772702687862203600,3.61520361328125,-0.002400306984782219,0.005499161314219236,0.00038589202449657023
1772702687872253400,3.62525341796875,0.0002793656021822244,0.008156996220350266,-0.0025270734913647175
1772702687882303500,3.635303466796875,-0.000013315805517777335,0.00824727676808834,-0.0009829727932810783
1772702687892353500,3.645353515625,0.0026282735634595156,0.007925567217171192,-0.0014498248929157853
1772702687902402600,3.655402587890625,-0.0003408846096135676,0.011965050362050533,0.002675145398825407
1772702687912452400,3.665452392578125,0.0009440905996598303,0.009643306024372578,0.0019049590919166803
1772702687922502400,3.67550244140625,-0.00011851066665258259,0.0037774275988340378,0.00030120351584628224
1772702687932552700,3.685552734375,0.0002466087171342224,0.0009116000146605074,0.001526257605291903
1772702687942602800,3.695602783203125,-0.002823217073455453,0.002282062778249383,0.003482881933450699
1772702687952652500,3.705652587890625,-0.003055711043998599,0.0065441858023405075,0.0008876316132955253
1772702687962702600,3.71570263671875,-0.0037028591614216566,0.01417520735412836,0.004800880327820778
1772702687972752600,3.725752685546875,-0.003020557342097163,0.017681526020169258,0.0020042951218783855
1772702687982802700,3.735802734375,-0.0033510555513203144,0.01546577550470829,0.006680805701762438
1772702687992852500,3.7458525390625,-0.0018777948571369052,0.017079118639230728,0.004911668132990599
1772702688002902500,3.755902587890625,-0.0019773971289396286,0.015302789397537708,0.0037910097744315863
1772702688012952600,3.76595263671875,-0.0018676748732104897,0.011394867673516273,0.0017808558186516166
1772702688023002600,3.776002685546875,-0.0024823325220495462,0.012491823174059391,0.0027294738683849573
1772702688033051400,3.786051513671875,-0.003117496380582452,0.008976982906460762,0.00532605592161417
1772702688043101400,3.796101318359375,-0.0006000102148391306,0.01134107168763876,0.004585430957376957
1772702688053151500,3.8061513671875,-0.004344680812209845,0.014097176492214203,0.0018271948210895061
1772702688063201500,3.816201416015625,-0.003693005535751581,0.01708311215043068,0.0025188177824020386
1772702688073251600,3.82625146484375,-0.00466559175401926,0.01907728798687458,0.00018136126163881272
1772702688083301600,3.836301513671875,-0.005318066570907831,0.01564074493944645,0.0008940231637097895
1772702688093351700,3.8463515625,-0.00791544746607542,0.014869759790599346,-0.004640291910618544
1772702688103401500,3.8564013671875,-0.00683180708438158,0.013449762016534805,-0.0046208505518734455
1772702688113451500,3.866451416015625,-0.005970008205622435,0.010036388412117958,-0.005366535857319832
1772702688123501600,3.87650146484375,-0.003918042406439781,0.007517571095377207,-0.0012381036067381501
1772702688133551600,3.886551513671875,-0.0054427022114396095,0.005332447588443756,0.000014381069377122913
1772702688143601400,3.896601318359375,-0.00765765318647027,0.009528257884085178,-0.0033838124945759773
1772702688153651500,3.9066513671875,-0.006154298782348633,0.014423680491745472,-0.0006884271278977394
1772702688163700500,3.916700439453125,-0.0062395199202001095,0.021377727389335632,-0.005536179058253765
1772702688173750500,3.92675048828125,-0.008410795591771603,0.019457587972283363,-0.0024639565963298082
1772702688183800600,3.936800537109375,-0.006074936594814062,0.019725501537322998,-0.0028583707753568888
1772702688193850600,3.9468505859375,-0.005126318894326687,0.01884506084024906,-0.004571049474179745
1772702688203900700,3.956900634765625,-0.007080546114593744,0.01876889355480671,-0.005242965184152126
1772702688213950700,3.96695068359375,-0.007156712934374809,0.02353302203118801,-0.0031457259319722652
1772702688224000500,3.97700048828125,-0.005073321983218193,0.022907447069883347,-0.001680987305007875
1772702688234050600,3.987050537109375,-0.009828129783272743,0.026583140715956688,-0.0016466324450448155
1772702688244100600,3.9971005859375,-0.00869016069918871,0.024817198514938354,0.0016282566357403994
1772702688254150700,4.007150634765625,-0.005575327668339014,0.01932709291577339,-0.0022154836915433407
1772702688264200400,4.017200439453125,-0.008096009492874146,0.023548202589154243,-0.0032661007717251778
1772702688274250500,4.02725048828125,-0.01206731516867876,0.02316710352897644,-0.0017062872648239136
1772702688284300500,4.037300537109375,-0.012124041095376015,0.025115739554166794,-0.0073226275853812695
1772702688294349300,4.047349365234375,-0.008052866905927658,0.023092003539204597,-0.007869374938309193
1772702688304399600,4.057399658203125,-0.006435262504965067,0.02063603699207306,-0.006381732877343893
1772702688314449700,4.06744970703125,-0.005349758081138134,0.021981997415423393,-0.005561745725572109
1772702688324499700,4.077499755859375,-0.005406483076512814,0.019897807389497757,-0.004483431577682495
1772702688334549500,4.087549560546875,-0.003368099918588996,0.018016284331679344,-0.0027981833554804325
1772702688344599600,4.097599609375,-0.0015691345324739814,0.017461813986301422,-0.005285309627652168
1772702688354649600,4.107649658203125,-0.0007470166892744601,0.020437629893422127,-0.0020130835473537445
1772702688364699600,4.11769970703125,-0.0020988371688872576,0.014741129241883755,-0.0054299188777804375
1772702688374749400,4.12774951171875,-0.0021726067643612623,0.013576262630522251,-0.006205698009580374
1772702688384799500,4.137799560546875,-0.0016538230702280998,0.014876151457428932,-0.005083974450826645
1772702688394849500,4.147849609375,-0.0017986990278586745,0.015199991874396801,-0.00452737370505929
1772702688404899600,4.157899658203125,-0.0041276332922279835,0.01094772294163704,-0.007409446872770786
1772702688414949400,4.167949462890625,-0.002540122950449586,0.005961486138403416,-0.007858721539378166
1772702688424998400,4.177998291015625,-0.0035212314687669277,0.006937800906598568,-0.0073053170926868916
1772702688435048700,4.188048583984375,-0.0009169263648800552,0.012607138603925705,-0.00666349520906806
1772702688445098800,4.1980986328125,-0.0004697816038969904,0.017838118597865105,-0.006944192573428154
1772702688455148500,4.2081484375,-0.003367034485563636,0.020724453032016754,-0.008051535114645958
1772702688465198600,4.218198486328125,-0.002261822810396552,0.017975006252527237,-0.009031311608850956
1772702688475248600,4.22824853515625,-0.004520183429121971,0.012301141396164894,-0.006117014680057764
1772702688485298700,4.238298583984375,-0.004569718148559332,0.006679740734398365,-0.011270231567323208
1772702688495348500,4.248348388671875,-0.004543352872133255,0.004758536349982023,-0.006192381959408522
1772702688505398500,4.2583984375,-0.002579537918791175,0.005199822131544352,-0.009530387818813324
1772702688515448600,4.268448486328125,0.0003664509567897767,0.005468534771353006,-0.009004680439829826
1772702688525498600,4.27849853515625,-0.0015843145083636045,0.0054610781371593475,-0.005684783682227135
1772702688535548400,4.28854833984375,-0.00004447478931979276,0.011522965505719185,-0.008562062866985798
1772702688545598500,4.298598388671875,0.002494050422683358,0.018069015815854073,-0.005250688176602125
1772702688555647500,4.3086474609375,0.002162753138691187,0.01453100610524416,-0.009845706634223461
1772702688565697500,4.318697509765625,0.0018125474452972412,0.012344816699624062,-0.007800398860126734
1772702688575747600,4.32874755859375,-0.0007699198904447258,0.00771677540615201,-0.00439075380563736
1772702688585797600,4.338797607421875,-0.0004498079069890082,0.01011015847325325,-0.007385744713246822
1772702688595847700,4.34884765625,0.000147272803587839,0.006859770510345697,-0.0060182115994393826
1772702688605897500,4.3588974609375,-0.001383245806209743,0.00518810423091054,-0.002211222657933831
1772702688615947500,4.368947509765625,-0.003278883872553706,0.005260542035102844,-0.0014120079576969147
1772702688625997600,4.37899755859375,-0.0023270701058208942,0.007398261222988367,-0.00387276872061193
1772702688636047600,4.389047607421875,-0.0018836538074538112,0.014599182642996311,-0.0038341530598700047
1772702688646097400,4.399097412109375,-0.0018378474051132798,0.014517423696815968,-0.003323625074699521
1772702688656147500,4.4091474609375,-0.0010705908061936498,0.01353711448609829,-0.003082609036937356
1772702688666197500,4.419197509765625,-0.0006601976347155869,0.005894640926271677,-0.0023315974976867437
1772702688676247600,4.42924755859375,-0.005054946057498455,0.004375573713332415,-0.004216316621750593
1772702688686296600,4.439296630859375,-0.0032447953708469868,0.006175337824970484,-0.0024655545130372047
1772702688696346600,4.4493466796875,-0.0006197175825946033,0.007559915538877249,-0.0017451694002375007
1772702688706396700,4.459396728515625,-0.0019571571610867977,0.008564193733036518,-0.0036812876351177692
1772702688716446700,4.46944677734375,0.0012484899489209056,0.013226056471467018,-0.0018967032665386796
1772702688726496500,4.47949658203125,-0.0004780374001711607,0.011331750079989433,0.0019228023011237383
1772702688736546600,4.489546630859375,-0.00025353292585350573,0.011719506233930588,0.00245117349550128
1772702688746596600,4.4995966796875,-0.0019542276859283447,0.012473180890083313,-0.001978995045647025
1772702688756646700,4.509646728515625,-0.0022069616243243217,0.011651596054434776,-0.0016817862633615732
1772702688766696400,4.519696533203125,-0.0007281082216650248,0.006006759591400623,0.000526773277670145
1772702688776746500,4.52974658203125,-0.0017299894243478775,0.006869357544928789,0.0006412891671061516
1772702688786796500,4.539796630859375,-0.0037262949626892805,0.005757487844675779,-0.0004316983977332711
1772702688796846600,4.5498466796875,-0.0002306297537870705,0.005471464246511459,0.004295146092772484
1772702688806896400,4.559896484375,0.0006884271278977394,0.010157030075788498,0.0014314490836113691
1772702688816945700,4.569945556640625,0.0011446266435086727,0.010114685632288456,0.0027603665366768837
1772702688826995700,4.57999560546875,0.001549693406559527,0.009043828584253788,0.0025686188600957394
1772702688837045500,4.59004541015625,0.00032570460462011397,0.020507140085101128,0.00239151855930686
1772702688847095600,4.600095458984375,0.0006815029191784561,0.021411016583442688,0.0008543420699425042
1772702688857145600,4.6101455078125,-0.0015635418239980936,0.013549630530178547,-0.0005803027888759971
1772702688867195600,4.620195556640625,0.001216798322275281,0.010216152295470238,-0.004341484978795052
1772702688877245400,4.630245361328125,-0.00008016114588826895,0.0062879896722733974,-0.005203550215810537
1772702688887295500,4.64029541015625,-0.002198439557105303,0.0016607472207397223,-0.004531901329755783
1772702688897345500,4.650345458984375,0.000678307143971324,0.006869357544928789,-0.002124403603374958
1772702688907395600,4.6603955078125,-0.002112952060997486,0.013084642589092255,0.0011859056539833546
1772702688917445400,4.6704453125,0.0000852211524033919,0.01194241363555193,-0.008355934172868729
1772702688927495400,4.680495361328125,0.0023289343807846308,0.007457916159182787,-0.0062826634384691715
1772702688937545500,4.69054541015625,0.0009805759182199836,0.008360461331903934,-0.008430768735706806
1772702688947594800,4.7005947265625,-0.0006263754912652075,0.004385693464428186,-0.00768668157979846
1772702688957644500,4.71064453125,-0.0019225359428673983,0.0011411645682528615,-0.007807855494320393
1772702688967694600,4.720694580078125,-0.0006913566030561924,-0.0014378406340256333,-0.006848851218819618
1772702688977744600,4.73074462890625,-0.00030786142451688647,0.005600095260888338,-0.006494384724646807
1772702688987794700,4.740794677734375,0.0017920411191880703,0.004290618933737278,-0.006597182713449001
1772702688997844500,4.750844482421875,0.005943376570940018,0.005727660376578569,-0.007026750594377518
1772702689007894500,4.76089453125,0.0032530513126403093,0.004351338837295771,-0.008250473067164421
1772702689017944600,4.770944580078125,0.005218996666371822,0.0034847462084144354,-0.009890181012451649
1772702689027994600,4.78099462890625,0.0062728095799684525,0.0021696772892028093,-0.00686136819422245
1772702689038044400,4.79104443359375,0.004283694550395012,0.003251187037676573,-0.005194761790335178
1772702689048094500,4.801094482421875,0.0031403994653373957,0.001216798322275281,-0.004135889001190662
1772702689058144500,4.81114453125,0.0031292142812162638,-0.002082591876387596,-0.004832305945456028
1772702689068194600,4.821194580078125,0.002600310370326042,0.001437041675671935,-0.0018905780743807554
1772702689078243600,4.83124365234375,0.004716724622994661,0.0023350596893578768,-0.004775047767907381
1772702689088293600,4.841293701171875,0.0033401367254555225,0.0005672533297911286,-0.003959854133427143
1772702689098343700,4.85134375,0.0024807346053421497,-0.00304692261852324,-0.00657507823780179
1772702689108393500,4.8613935546875,0.003555852686986327,0.0008133294177241623,-0.0026873957831412554
1772702689118443500,4.871443603515625,0.0016562198288738728,0.006130330264568329,0.00001944107498275116
1772702689128493600,4.88149365234375,0.002951581496745348,0.013202887028455734,-0.005976932588964701
1772702689138543600,4.891543701171875,0.0027265443932265043,0.00848696194589138,-0.0022120214998722076
1772702689148593400,4.901593505859375,0.0046938215382397175,0.011913650669157505,0.00008468852320220321
1772702689158643500,4.9116435546875,0.0017710020765662193,0.013904896564781666,-0.004667456261813641
1772702689168693500,4.921693603515625,-0.0008676578872837126,0.006135390605777502,-0.006082127336412668
1772702689178743600,4.93174365234375,0.00026791400159709156,-0.00037390782381407917,-0.008914931677281857
1772702689188793300,4.94179345703125,0.0006053365068510175,-0.000355532014509663,-0.007122890558093786
1772702689198843400,4.951843505859375,0.0015997608425095677,-0.004686364438384771,-0.00842704065144062
1772702689208892700,4.961892578125,0.0020775320008397102,-0.005782255437225103,-0.006602508947253227
1772702689218942700,4.971942626953125,0.005508748814463615,-0.00013901700731366873,-0.00899828877300024
1772702689228992500,4.981992431640625,0.005546565633267164,0.007830758579075336,-0.008323975838720798
1772702689239042600,4.99204248046875,0.003955326974391937,0.0054754591546952724,-0.010320015251636505
1772702689249092600,5.002092529296875,0.0006282397080212831,0.0018511632224544883,-0.01071123406291008
1772702689259142700,5.012142578125,0.0014900385867804289,0.004258394706994295,-0.008855543099343777
1772702689269192400,5.0221923828125,0.000592020689509809,-0.003421629313379526,-0.008821188472211361
1772702689279242500,5.032242431640625,0.0015403723809868097,-0.004078631289303303,-0.006142048165202141
1772702689289292500,5.04229248046875,0.0014990933705121279,-0.0025979136116802692,-0.004056260455399752
1772702689299342600,5.052342529296875,-0.0006074670236557722,-0.0028732845094054937,-0.0033665020018815994
1772702689309392400,5.062392333984375,-0.0017808558186516166,-0.0003456783015280962,-0.0024024376180022955
1772702689319442400,5.0724423828125,-0.00108284130692482,0.004443750716745853,-0.0022682142443954945
1772702689329492500,5.082492431640625,-0.00105354655534029,0.0103756757453084,-0.0012918994762003422
1772702689339542500,5.09254248046875,-0.0032629049383103848,0.009188704192638397,0.0010197244118899107
1772702689349591600,5.102591552734375,-0.0024639565963298082,0.004744155332446098,0.005877596326172352
1772702689359641600,5.1126416015625,-0.0008564725867472589,0.0024490428622812033,0.003923102747648954
1772702689369691600,5.122691650390625,-0.0022122878581285477,0.0030658310279250145,0.004845088813453913
1772702689379741400,5.132741455078125,-0.0030594393610954285,0.007921572774648666,0.004071973264217377
1772702689389791500,5.14279150390625,-0.0019046928500756621,0.002776611829176545,0.005884787067770958
1772702689399841500,5.152841552734375,-0.0013619405217468739,0.002490854589268565,0.009094960987567902
1772702689409891600,5.1628916015625,-0.0017598168924450874,0.0032842103391885757,0.008888300508260727
1772702689419941400,5.17294140625,-0.00133903743699193,0.004880508873611689,0.011862784624099731
1772702689429991400,5.182991455078125,0.001213602488860488,0.0017955031944438815,0.007641940843313932
1772702689440041500,5.19304150390625,-0.0016056197928264737,0.003260508179664612,0.005855758674442768
1772702689450091500,5.203091552734375,-0.002636795863509178,0.002685531508177519,0.006191316992044449
1772702689460141300,5.213141357421875,-0.004795287735760212,0.002921754028648138,0.0075572519563138485
1772702689470191400,5.22319140625,-0.002543052425608039,0.004119643941521645,0.011082745157182217
1772702689480241700,5.23324169921875,-0.0033808830194175243,0.005943110212683678,0.0027542412281036377
1772702689490290700,5.243290771484375,-0.004608600400388241,0.00041811628034338355,0.004017644561827183
1772702689500340500,5.253340576171875,-0.002569950418546796,0.001044225413352251,0.003931891173124313
1772702689510390500,5.263390625,-0.0008431567694060504,-0.001181378262117505,0.005471730604767799
1772702689520440600,5.273440673828125,-0.005254150368273258,0.0017768610268831253,0.00452764006331563
1772702689530490600,5.28349072265625,-0.0033478597179055214,0.0016322514275088906,0.0070579093880951405
1772702689540540400,5.29354052734375,-0.004298341926187277,-0.004477838985621929,0.00284958234988153
1772702689550590500,5.303590576171875,-0.0021917815320193768,0.003840544493868947,0.005634982604533434
1772702689560640500,5.313640625,-0.0007819040911272168,0.015059909783303738,0.006119677796959877
1772702689570689500,5.323689453125,-0.005820338614284992,0.017486048862338066,0.004579572007060051
1772702689580739600,5.333739501953125,-0.000844754686113447,0.00968538410961628,0.006584932096302509
1772702689590789600,5.34378955078125,-0.003912716172635555,0.0003789678157772869,0.007054180838167667
1772702689600839700,5.353839599609375,-0.004604871850460768,0.004502340219914913,0.004634699318557978
1772702689610889500,5.363889404296875,-0.00498011102899909,0.004031493328511715,0.004963599611073732
1772702689620939500,5.373939453125,-0.006879477761685848,0.006113552488386631,0.0032929987646639347
1772702689630989600,5.383989501953125,-0.0038450718857347965,0.0020959076937288046,0.006364688742905855
1772702689641039600,5.39403955078125,-0.0046903593465685844,0.0012024171883240342,0.011320564895868301
1772702689651089400,5.40408935546875,-0.003364904085174203,0.0070760189555585384,0.006876814644783735
1772702689661138400,5.414138427734375,-0.0011467571603134274,0.007934888824820518,0.008056062273681164
1772702689671188500,5.4241884765625,0.0002612560929264873,0.006620352156460285,0.00449941074475646
1772702689681238500,5.434238525390625,-0.00037736992817372084,0.003084206720814109,0.006422479171305895
1772702689691288600,5.44428857421875,0.003537743119522929,0.004613926634192467,0.005912483669817448
1772702689701338600,5.454338623046875,0.006286924239248037,0.0013904364313930273,0.008259527385234833
1772702689711388700,5.464388671875,0.0008817726047709584,0.0010165285784751177,0.0075910743325948715
1772702689721438500,5.4744384765625,0.0022205437999218702,0.0031872710678726435,0.006012884899973869
1772702689731488500,5.484488525390625,0.0028487835079431534,0.0019142802339047194,0.008902681060135365
1772702689741538600,5.49453857421875,0.002481267089024186,-0.002305764937773347,0.0030900659039616585
1772702689751588600,5.504588623046875,0.0026317357551306486,-0.007935686968266964,0.003117230022326112
1772702689761638700,5.514638671875,0.0006191849242895842,-0.011234012432396412,0.004191282670944929
1772702689771688400,5.5246884765625,0.0011888351291418076,-0.008193748071789742,0.0036522590089589357
1772702689781738500,5.534738525390625,-0.0010239854454994202,-0.0011627360945567489,-0.001954760169610381
1772702689791787500,5.54478759765625,0.002174737397581339,-0.00224930583499372,0.0017041567480191588
1772702689801837600,5.554837646484375,-0.00014700648898724467,-0.0046813045628368855,-0.0012128035305067897
1772702689811887600,5.5648876953125,0.0012367720482870936,-0.0001483380765421316,0.0032613070216029882
1772702689821937700,5.574937744140625,0.002341451123356819,0.0025001754984259605,0.00036911413189955056
1772702689831987700,5.58498779296875,0.003993143793195486,0.006179332733154297,0.0013643373968079686
1772702689842037500,5.59503759765625,0.000862864195369184,-0.0009483516332693398,-0.000999750685878098
1772702689852087600,5.605087646484375,-0.0006458165589720011,-0.010566091164946556,-0.001540904981084168
1772702689862137600,5.6151376953125,-0.0005134574603289366,-0.010548514313995838,0.0018218684708699584
1772702689872187600,5.625187744140625,0.00007004113285802305,-0.0046663908287882805,-0.0011584750609472394
1772702689882237400,5.635237548828125,-0.0011025486746802926,-0.004926049150526524,-0.0024953819811344147
1772702689892287500,5.64528759765625,-0.00035206988104619086,-0.0041406829841434956,0.0032863407395780087
1772702689902337000,5.6553369140625,-0.0008988168556243181,-0.005143363028764725,0.000261788722127676
1772702689912387000,5.665386962890625,0.000883636821527034,-0.003498861100524664,-0.00011078749957960099
1772702689922436000,5.67543603515625,-0.005308745428919792,0.004736964590847492,-0.0020719394087791443
1772702689932486100,5.685486083984375,-0.00455879932269454,0.00523790530860424,-0.00041332258842885494
1772702689942537000,5.695536865234375,-0.00373028963804245,0.0018588864477351308,0.004667456261813641
1772702689952587000,5.7055869140625,-0.003975300583988428,-0.0012748552253469825,0.0005075985100120306
1772702689962637000,5.715636962890625,-0.006740460637956858,0.002674879040569067,0.0008892294717952609
1772702689972687000,5.72568701171875,-0.004606469534337521,0.007739944849163294,-0.001050084363669157
1772702689982737200,5.735737060546875,-0.005933522712439299,0.009133310988545418,-0.00039015308720991015
1772702689992787200,5.745787109375,-0.0020881847012788057,0.014270015992224216,0.00216514989733696
1772702690002837200,5.755837158203125,-0.001187237212434411,0.018425079062581062,0.00447038235142827
1772702690012887000,5.765886962890625,-0.0008767126128077507,0.012806609272956848,0.002972354181110859
1772702690022937000,5.77593701171875,-0.0008711199625395238,0.012430304661393166,0.0065079666674137115
1772702690032986000,5.785986083984375,-0.0015691345324739814,0.016384566202759743,0.00785366166383028
1772702690043036000,5.796035888671875,-0.0010524812387302518,0.01804930716753006,0.00891013815999031
1772702690053086000,5.8060859375,-0.00016431703988928348,0.017554225400090218,0.010921889916062355
1772702690063136000,5.816135986328125,-0.001586178783327341,0.01691746525466442,0.011873170733451843
1772702690073186000,5.82618603515625,-0.001416269107721746,0.0183465164154768,0.013165070675313473
1772702690083236000,5.836236083984375,-0.0001757686259225011,0.015320366248488426,0.011743474751710892
1772702690093286100,5.8462861328125,0.0011400992516428232,0.016743559390306473,0.011299792677164078
1772702690103336200,5.856336181640625,0.0006913566030561924,0.017883924767374992,0.008521050214767456
1772702690113386200,5.86638623046875,0.0018602180061861873,0.017003484070301056,0.007700530346482992
1772702690123436000,5.87643603515625,0.0004474110610317439,0.02063284069299698,0.009643838740885258
1772702690133486000,5.886486083984375,0.0007382282637991011,0.02107173018157482,0.009259277954697609
1772702690143536000,5.8965361328125,0.002508165081962943,0.01997184380888939,0.010344250127673149
1772702690153586200,5.906586181640625,0.0015004249289631844,0.0217745378613472,0.007784952409565449
1772702690163636000,5.916635986328125,0.0029406624380499125,0.014759238809347153,0.007926099933683872
1772702690173685000,5.92668505859375,0.00015872440417297184,0.009100819937884808,0.004394748248159885
1772702690183735000,5.936735107421875,-0.00202240445651114,0.004260258749127388,0.005882390309125185
1772702690193784800,5.946784912109375,0.0006769755273126066,0.009443036280572414,0.004562793765217066
1772702690203835100,5.956835205078125,-0.00025779398856684566,0.016582172363996506,0.00195129809435457
1772702690213885200,5.96688525390625,0.0009632653673179448,0.01942616142332554,0.0038043255917727947
1772702690223935200,5.976935302734375,0.0005153216770850122,0.020357735455036163,0.005911951418966055
1772702690233985000,5.986985107421875,-0.0024913870729506016,0.025082450360059738,0.003674097126349807
1772702690244035000,5.99703515625,0.0025217472575604916,0.029993318021297455,0.003573962254449725
1772702690254085000,6.007085205078125,-0.002567287301644683,0.032525185495615005,0.00003728425508597866
1772702690264135200,6.01713525390625,-0.0016881778137758374,0.02298760786652565,0.0011041465913876891
1772702690274185200,6.027185302734375,-0.0007523429812863469,0.021869879215955734,-0.0012892362428829074
1772702690284235000,6.037235107421875,-0.002560629276558757,0.020781444385647774,-0.0006327670416794717
1772702690294285000,6.04728515625,-0.003147589974105358,0.020808342844247818,-0.0020961740519851446
1772702690304335000,6.057335205078125,-0.0018530274974182248,0.025181252509355545,-0.0021936458069831133
1772702690314384000,6.0673837890625,-0.004765460267663002,0.02443263866007328,-0.0068022459745407104
1772702690324434000,6.077433837890625,-0.00010466222738614306,0.014279869385063648,-0.0036453348584473133
1772702690334484200,6.087484130859375,0.0012871057260781527,0.009749832563102245,-0.001062068622559309
1772702690344534300,6.0975341796875,0.00549356872215867,0.012470784597098827,0.001186970854178071
1772702690354584000,6.107583984375,0.003168362658470869,0.01786847971379757,0.0018485001055523753
1772702690364634000,6.117634033203125,0.004462925251573324,0.026818297803401947,0.004797684494405985
1772702690374684200,6.12768408203125,0.005100752227008343,0.03502003476023674,0.00173771264962852
1772702690384734200,6.137734130859375,0.001731320982798934,0.041976746171712875,0.0022631543688476086
1772702690394784000,6.147783935546875,0.001686579897068441,0.033554498106241226,0.003838414093479514
1772702690404834000,6.157833984375,-0.0012777847005054355,0.017651431262493134,0.0013795174891129136
1772702690414884000,6.167884033203125,-0.0012444951571524143,0.015312643721699715,0.0012532835826277733
1772702690424934100,6.17793408203125,-0.0016876452136784792,0.005653890781104565,-0.006135124247521162
1772702690434984000,6.18798388671875,0.0011499529937282205,0.003061303636059165,-0.00612234091386199
1772702690445034000,6.198033935546875,-0.00026844663079828024,0.002748914761468768,-0.007645935285836458
1772702690455083000,6.2080830078125,-0.0016165387351065874,0.011920042335987091,-0.004913798533380032
1772702690465133000,6.218133056640625,-0.00024181502521969378,0.01877102442085743,-0.007031810469925404
1772702690475183000,6.22818310546875,-0.0024285365361720324,0.02888571098446846,-0.00711729796603322
1772702690485233200,6.238233154296875,0.0014777880860492587,0.025720810517668724,-0.006892260629683733
1772702690495283200,6.248283203125,0.002284459536895156,0.020601149648427963,-0.007614510133862495
1772702690505333000,6.2583330078125,0.0014562164433300495,0.019342537969350815,-0.00971787516027689
1772702690515383000,6.268383056640625,-0.0024232103023678064,0.01756647601723671,-0.009281649254262447
1772702690525433000,6.27843310546875,-0.002487392397597432,0.014990135096013546,-0.007135940250009298
1772702690535483100,6.288483154296875,0.00021252025908324867,0.01019964087754488,-0.008913067169487476
1772702690545533200,6.298533203125,-0.001570998691022396,0.013854030519723892,-0.008810003288090229
1772702690555583000,6.3085830078125,0.0010069411946460605,0.015858059749007225,-0.005891178734600544
1772702690565633000,6.318633056640625,-0.0008940231637097895,0.012485964223742485,-0.002286856295540929
1772702690575683000,6.32868310546875,0.002671416848897934,0.013307549990713596,-0.0031127026304602623
1772702690585733000,6.338733154296875,-0.0007592672482132912,0.021749503910541534,-0.005515672732144594
1772702690595782100,6.3487822265625,-0.00035606464371085167,0.030659375712275505,-0.0019297265680506825
1772702690605832200,6.358832275390625,-0.0012056130217388272,0.027116306126117706,-0.006391586735844612
1772702690615882200,6.36888232421875,-0.0011590076610445976,0.02316843532025814,-0.006674946751445532
1772702690625932000,6.37893212890625,-0.002993126632645726,0.022543657571077347,-0.0034234935883432627
1772702690635982000,6.388982177734375,-0.004764661658555269,0.019934026524424553,-0.004992095287889242
1772702690646032100,6.3990322265625,-0.004289020784199238,0.021145498380064964,-0.004352404270321131
1772702690656082200,6.409082275390625,-0.004741491749882698,0.018859442323446274,-0.0019491675775498152
1772702690666132000,6.419132080078125,-0.0057494984939694405,0.021013937890529633,0.00013662016135640442
1772702690676182000,6.42918212890625,-0.004864796530455351,0.029888123273849487,0.0000977380113909021
1772702690686232000,6.439232177734375,-0.003299390198662877,0.03299843147397041,0.0012708604335784912
1772702690696282000,6.4492822265625,-0.001534779672510922,0.030186131596565247,0.0004881574132014066
1772702690706332000,6.459331787109375,-0.005134308245033026,0.028482774272561073,0.0015656723408028483
1772702690716382000,6.4693818359375,-0.005120992194861174,0.028056668117642403,-0.0018351842882111669
1772702690726432000,6.479431884765625,-0.007843009196221828,0.02617914043366909,-0.005626726895570755
1772702690736481000,6.48948095703125,-0.010037720203399658,0.022652314975857735,-0.003406715579330921
1772702690746531000,6.499531005859375,-0.007847003638744354,0.02887985110282898,-0.0016389093361794949
1772702690756581000,6.5095810546875,-0.009272061288356781,0.030892135575413704,0.0011118697002530098
1772702690766631200,6.519631103515625,-0.00989444274455309,0.03832901269197464,0.001193362521007657
1772702690776681000,6.529680908203125,-0.008477107621729374,0.039196137338876724,0.003388339886441827
1772702690786731000,6.53973095703125,-0.007866178639233112,0.04338742047548294,0.005711681675165892
1772702690796781000,6.549781005859375,-0.00848589651286602,0.03753459081053734,-0.0002711098059080541
1772702690806831000,6.5598310546875,-0.008295746520161629,0.030047914013266563,0.0013749900972470641
1772702690816881200,6.569881103515625,-0.010436661541461945,0.025413481518626213,0.001484712352976203
1772702690826931000,6.579930908203125,-0.009265669621527195,0.026494191959500313,0.0012431635987013578
1772702690836981000,6.58998095703125,-0.008146077394485474,0.01871643029153347,-0.000979244359768927
1772702690847031000,6.600031005859375,-0.013331783935427666,0.026429742574691772,0.0013187973527237773
1772702690857081000,6.6100810546875,-0.01534886285662651,0.03347300365567207,-0.0031491878908127546
1772702690867131000,6.620130859375,-0.014456969685852528,0.03272199258208275,-0.0006141249323263764
1772702690877180200,6.63018017578125,-0.013919544406235218,0.0294878501445055,-0.0019174759509041905
1772702690887230200,6.640230224609375,-0.013315805234014988,0.02743055857717991,-0.0004564658156596124
1772702690897281300,6.65028125,-0.013203419744968414,0.019581690430641174,-0.002977680414915085
1772702690907331300,6.660331298828125,-0.011781558394432068,0.017294302582740784,-0.002888730727136135
1772702690917381400,6.67038134765625,-0.01324256882071495,0.022903984412550926,-0.005273858085274696
1772702690927431400,6.680431396484375,-0.012042015790939331,0.033668749034404755,-0.0059510995633900166
1772702690937481200,6.690481201171875,-0.013115269131958485,0.028423119336366653,-0.006089850328862667
1772702690947531300,6.70053125,-0.011930429376661777,0.017195764929056168,-0.0006799050024710596
1772702690957581300,6.710581298828125,-0.014341122470796108,0.022407837212085724,-0.004514324478805065
1772702690967631400,6.72063134765625,-0.0158881526440382,0.028736306354403496,-0.004206729121506214
1772702690977681200,6.73068115234375,-0.013215404003858566,0.018098043277859688,-0.0036477316170930862
1772702690987731200,6.740731201171875,-0.010959174484014511,0.015531822107732296,0.0004964132094755769
1772702690997781200,6.75078125,-0.0054613444954156876,0.01372326910495758,-0.00046365635353140533
1772702691007831300,6.760831298828125,-0.004099403973668814,0.01221378892660141,-0.001600826159119606
1772702691017880300,6.77088037109375,-0.001335575245320797,0.012476377189159393,0.001008805469609797
1772702691027930400,6.780930419921875,-0.0016548882704228163,0.007714112289249897,-0.0013467605458572507
1772702691037980400,6.79098046875,-0.0021438447292894125,0.007423561532050371,-0.0001310275256400928
1772702691048030500,6.801030517578125,-0.0020042951218783855,-0.003168362658470869,0.0006351639167405665
1772702691058080300,6.811080322265625,-0.004026433452963829,-0.00734260119497776,-0.0018367822049185634
1772702691068130300,6.82113037109375,-0.004472512751817703,-0.010104299522936344,-0.0023726101499050856
1772702691078180400,6.831180419921875,-0.001407480682246387,-0.006052566226571798,-0.0018748653819784522
1772702691088230400,6.84123046875,-0.0008543420699425042,-0.006502906791865826,0.00041012681322172284
1772702691098280200,6.8512802734375,0.0012929646763950586,-0.01528867520391941,-0.00606348505243659
1772702691108330200,6.861330322265625,0.0028908613603562117,-0.021319935098290443,-0.008403604850172997
1772702691118380300,6.87138037109375,0.0033902039285749197,-0.01860031671822071,-0.014554708264768124
1772702691128430300,6.881430419921875,0.005498095881193876,-0.017305754125118256,-0.009690976701676846
1772702691138480000,6.891480224609375,0.0027835359796881676,-0.003939880523830652,-0.011078217066824436
1772702691148530200,6.9015302734375,0.00210602767765522,0.006456567905843258,-0.011034808121621609
1772702691158580200,6.911580322265625,0.005055478774011135,0.007273092865943909,-0.0047116647474467754
1772702691168629200,6.921629150390625,0.0044410875998437405,0.007701861672103405,-0.004129763692617416
1772702691178679300,6.93167919921875,0.004997421521693468,0.004195277579128742,-0.0051718587055802345
1772702691188729300,6.941729248046875,0.0019113506423309445,-0.005888515617698431,-0.00404587434604764
1772702691198779400,6.951779296875,0.004532167688012123,-0.008010522462427616,-0.006974818650633097
1772702691208829200,6.9618291015625,0.007106379140168428,0.007364705670624971,-0.0020807278342545033
1772702691218879200,6.971879150390625,0.004857073072344065,0.0075934710912406445,-0.001817341079004109
1772702691228929300,6.98192919921875,0.0049185920506715775,-0.007128216791898012,-0.00003302319601061754
1772702691238979300,6.991979248046875,0.000014647385796706658,-0.014935540035367012,0.0008122641011141241
1772702691249029000,7.002029052734375,0.0006111954571679235,-0.006479204632341862,0.004376106429845095
1772702691259079200,7.0120791015625,0.00797430332750082,0.046482015401124954,0.05684623867273331
1772702691269129200,7.022129150390625,0.0016535567119717598,0.06550923734903336,0.17869198322296143
1772702691279179300,7.03217919921875,-0.00006418218254111707,-0.030723556876182556,0.1325407326221466
1772702691289229000,7.04222900390625,-0.0020594224333763123,-0.061198640614748,0.03801822289824486
1772702691299279000,7.052279052734375,0.0007720504072494805,0.000021305288100847974,0.010341321118175983
1772702691309328400,7.062328369140625,0.0005203816690482199,-0.003861317178234458,-0.0070579093880951405
1772702691319378400,7.07237841796875,0.0030277478508651257,-0.03648344427347183,-0.04080016165971756
1772702691329428200,7.08242822265625,0.003320961957797408,-0.024649687111377716,-0.05854613333940506
1772702691339478300,7.092478271484375,0.003346528159454465,-0.010105098597705364,-0.06395261734724045
1772702691349528300,7.1025283203125,0.0005102616851218045,-0.0059569585137069225,-0.058710452169179916
1772702691359578400,7.112578369140625,-0.001961151836439967,-0.0016144082183018327,-0.0465557835996151
1772702691369628200,7.122628173828125,0.005909021943807602,0.0010610034223645926,-0.030651653185486794
1772702691379678200,7.13267822265625,-0.002930808812379837,0.011818043887615204,-0.0024493092205375433
1772702691389728300,7.142728271484375,-0.004698348697274923,-0.0016247945604845881,0.0148636344820261
