time,seconds_elapsed,z,y,x
1772702884399872000,0.0538720703125,-0.43670654296875,0.427947998046875,0.787506103515625
1772702884409922000,0.063922119140625,-0.4353179931640625,0.4317626953125,0.7906494140625
1772702884419972000,0.07397216796875,-0.4387359619140625,0.4337921142578125,0.7823028564453125
1772702884430022100,0.084022216796875,-0.44854736328125,0.4351654052734375,0.772735595703125
1772702884440073200,0.0940732421875,-0.4559173583984375,0.4344024658203125,0.7718505859375
1772702884450123000,0.104123046875,-0.45159912109375,0.4312744140625,0.7780914306640625
1772702884460173000,0.114173095703125,-0.4477081298828125,0.42828369140625,0.78497314453125
1772702884470223000,0.12422314453125,-0.4457855224609375,0.4264678955078125,0.789154052734375
1772702884480274200,0.134274169921875,-0.4477081298828125,0.429931640625,0.7911376953125
1772702884490324200,0.14432421875,-0.4508056640625,0.4326171875,0.7864227294921875
1772702884500374000,0.1543740234375,-0.4517364501953125,0.4326019287109375,0.7802581787109375
1772702884510424000,0.164424072265625,-0.4490966796875,0.431915283203125,0.781463623046875
1772702884520475100,0.17447509765625,-0.4470062255859375,0.43145751953125,0.79046630859375
1772702884530525200,0.184525146484375,-0.447418212890625,0.43170166015625,0.7920379638671875
1772702884540575200,0.1945751953125,-0.4490509033203125,0.4321441650390625,0.78851318359375
1772702884550625000,0.204625,-0.4481964111328125,0.4316253662109375,0.78558349609375
1772702884560676000,0.214676025390625,-0.446136474609375,0.4292449951171875,0.79022216796875
1772702884570726100,0.22472607421875,-0.4485015869140625,0.430267333984375,0.7921600341796875
1772702884580776200,0.234776123046875,-0.451385498046875,0.4324493408203125,0.790130615234375
1772702884590826200,0.244826171875,-0.4534454345703125,0.4351348876953125,0.7878875732421875
1772702884600876000,0.2548759765625,-0.4478302001953125,0.4358062744140625,0.784759521484375
1772702884610927000,0.264927001953125,-0.43829345703125,0.43658447265625,0.78375244140625
1772702884620977200,0.27497705078125,-0.430389404296875,0.4357452392578125,0.7821502685546875
1772702884631027200,0.285027099609375,-0.433502197265625,0.436614990234375,0.781768798828125
1772702884641077200,0.2950771484375,-0.4420166015625,0.436859130859375,0.7834320068359375
1772702884651128300,0.30512841796875,-0.4456329345703125,0.4375457763671875,0.7811431884765625
1772702884661178000,0.31517822265625,-0.448394775390625,0.4360809326171875,0.7827606201171875
1772702884671228200,0.325228271484375,-0.4462432861328125,0.4389190673828125,0.7841033935546875
1772702884681278200,0.3352783203125,-0.4461212158203125,0.4378509521484375,0.7842864990234375
1772702884691329300,0.345329345703125,-0.447601318359375,0.4400634765625,0.7839202880859375
1772702884701379300,0.35537939453125,-0.447540283203125,0.4331207275390625,0.7828826904296875
1772702884711429000,0.36542919921875,-0.443572998046875,0.4308013916015625,0.7868499755859375
1772702884721479200,0.375479248046875,-0.4395751953125,0.4349365234375,0.78643798828125
1772702884731529200,0.385529296875,-0.4414520263671875,0.434967041015625,0.786376953125
1772702884741580300,0.395580322265625,-0.446136474609375,0.4348297119140625,0.787384033203125
1772702884751630000,0.405630126953125,-0.4472198486328125,0.4343414306640625,0.7889556884765625
1772702884761680100,0.41568017578125,-0.448028564453125,0.4315338134765625,0.7899017333984375
1772702884771730200,0.425730224609375,-0.4485015869140625,0.42877197265625,0.7912139892578125
1772702884781781200,0.43578125,-0.4499969482421875,0.42803955078125,0.790313720703125
1772702884791831300,0.445831298828125,-0.4468536376953125,0.42767333984375,0.7896270751953125
1772702884801881000,0.455881103515625,-0.4443206787109375,0.4341583251953125,0.782470703125
1772702884811931100,0.46593115234375,-0.43902587890625,0.4364166259765625,0.7796783447265625
1772702884821982200,0.475982177734375,-0.4410858154296875,0.434295654296875,0.779388427734375
1772702884832032300,0.4860322265625,-0.442352294921875,0.436065673828125,0.7844085693359375
1772702884842082300,0.496082275390625,-0.439605712890625,0.434478759765625,0.7857513427734375
1772702884852132000,0.506132080078125,-0.437225341796875,0.431427001953125,0.7843017578125
1772702884862183200,0.51618310546875,-0.4361572265625,0.431182861328125,0.783111572265625
1772702884872233200,0.526233154296875,-0.438568115234375,0.432373046875,0.7855377197265625
1772702884882283300,0.536283203125,-0.4420166015625,0.43170166015625,0.7858734130859375
1772702884892333300,0.546333251953125,-0.443695068359375,0.4317779541015625,0.7833709716796875
1772702884902383000,0.556383056640625,-0.4445648193359375,0.432220458984375,0.781585693359375
1772702884912434200,0.56643408203125,-0.4475555419921875,0.4323577880859375,0.7805023193359375
1772702884922484200,0.576484130859375,-0.44439697265625,0.431793212890625,0.78289794921875
1772702884932534300,0.5865341796875,-0.4427337646484375,0.4284210205078125,0.7864532470703125
1772702884942584300,0.596584228515625,-0.4438018798828125,0.4243621826171875,0.7922515869140625
1772702884952635400,0.606635498046875,-0.4440765380859375,0.4238433837890625,0.7905120849609375
1772702884962685200,0.616685302734375,-0.4446868896484375,0.42547607421875,0.7873687744140625
1772702884972735200,0.6267353515625,-0.4404754638671875,0.4278106689453125,0.7852020263671875
1772702884982785300,0.636785400390625,-0.4439544677734375,0.42742919921875,0.7820587158203125
1772702884992836400,0.64683642578125,-0.447998046875,0.4297332763671875,0.7809906005859375
1772702885002886400,0.656886474609375,-0.4446258544921875,0.431304931640625,0.7855072021484375
1772702885012936200,0.666936279296875,-0.444061279296875,0.4303131103515625,0.7852020263671875
1772702885022986200,0.676986328125,-0.4437713623046875,0.4311065673828125,0.7884063720703125
1772702885033036300,0.687036376953125,-0.44415283203125,0.4308624267578125,0.7877960205078125
1772702885043087400,0.69708740234375,-0.446044921875,0.427642822265625,0.7850189208984375
1772702885053137200,0.70713720703125,-0.4470367431640625,0.4247589111328125,0.7858734130859375
1772702885063187200,0.717187255859375,-0.444122314453125,0.424163818359375,0.789154052734375
1772702885073237200,0.7272373046875,-0.4399566650390625,0.42791748046875,0.7923431396484375
1772702885083287600,0.73728759765625,-0.4406585693359375,0.431884765625,0.7871246337890625
1772702885093337600,0.747337646484375,-0.4457550048828125,0.43414306640625,0.7833404541015625
1772702885103387400,0.757387451171875,-0.449493408203125,0.431121826171875,0.7841644287109375
1772702885113437400,0.7674375,-0.44940185546875,0.4278106689453125,0.7860565185546875
1772702885123488500,0.777488525390625,-0.4478607177734375,0.428375244140625,0.7855377197265625
1772702885133538600,0.78753857421875,-0.447601318359375,0.428497314453125,0.7834014892578125
1772702885143588600,0.797588623046875,-0.44451904296875,0.4263763427734375,0.7877197265625
1772702885153638400,0.807638427734375,-0.440032958984375,0.4269866943359375,0.7919921875
1772702885163689500,0.817689453125,-0.441314697265625,0.4290618896484375,0.7876739501953125
1772702885173739500,0.827739501953125,-0.445587158203125,0.42962646484375,0.7818756103515625
1772702885183789600,0.83778955078125,-0.4520111083984375,0.42840576171875,0.7791900634765625
1772702885193839600,0.847839599609375,-0.4577484130859375,0.42889404296875,0.7821197509765625
1772702885203889400,0.857889404296875,-0.4560394287109375,0.4269866943359375,0.786102294921875
1772702885213940500,0.8679404296875,-0.449493408203125,0.4271392822265625,0.7837371826171875
1772702885223990500,0.877990478515625,-0.4488983154296875,0.425537109375,0.78582763671875
1772702885234040600,0.88804052734375,-0.45159912109375,0.42462158203125,0.7866668701171875
1772702885244090400,0.89809033203125,-0.447784423828125,0.426361083984375,0.789337158203125
1772702885254141400,0.908141357421875,-0.446075439453125,0.4264678955078125,0.78570556640625
1772702885264191500,0.91819140625,-0.448394775390625,0.4279937744140625,0.7804107666015625
1772702885274241500,0.928241455078125,-0.450714111328125,0.429595947265625,0.78277587890625
1772702885284291600,0.93829150390625,-0.4465484619140625,0.4295654296875,0.7841796875
1772702885294342400,0.94834228515625,-0.4475250244140625,0.429656982421875,0.78466796875
1772702885304392400,0.958392333984375,-0.449066162109375,0.430816650390625,0.7829132080078125
1772702885314442500,0.9684423828125,-0.451416015625,0.431915283203125,0.7825469970703125
1772702885324492500,0.978492431640625,-0.4516448974609375,0.4308013916015625,0.7796173095703125
1772702885334542600,0.98854248046875,-0.4489593505859375,0.4307708740234375,0.780029296875
1772702885344593400,0.998593505859375,-0.4478607177734375,0.427581787109375,0.780609130859375
1772702885354643500,1.0086435546875,-0.4490203857421875,0.4242706298828125,0.7817535400390625
1772702885364693500,1.018693603515625,-0.4485321044921875,0.4213409423828125,0.78204345703125
1772702885374743600,1.02874365234375,-0.44891357421875,0.4200286865234375,0.78350830078125
1772702885384794400,1.03879443359375,-0.4505767822265625,0.4226837158203125,0.7854156494140625
1772702885394844400,1.048844482421875,-0.450286865234375,0.42572021484375,0.783538818359375
1772702885404894500,1.05889453125,-0.44921875,0.4304962158203125,0.7819366455078125
1772702885414944500,1.068944580078125,-0.449859619140625,0.4299468994140625,0.780059814453125
1772702885424995300,1.078995361328125,-0.45123291015625,0.4270782470703125,0.779022216796875
1772702885435045400,1.08904541015625,-0.4501800537109375,0.42449951171875,0.7807769775390625
1772702885445095400,1.099095458984375,-0.4463653564453125,0.426116943359375,0.7819366455078125
1772702885455145500,1.1091455078125,-0.44281005859375,0.426177978515625,0.78289794921875
1772702885465195500,1.119195556640625,-0.4464874267578125,0.4278106689453125,0.7873992919921875
1772702885475246300,1.129246337890625,-0.4459075927734375,0.42803955078125,0.7885894775390625
1772702885485296400,1.13929638671875,-0.446807861328125,0.427886962890625,0.789093017578125
1772702885495346400,1.149346435546875,-0.4474029541015625,0.431427001953125,0.786346435546875
1772702885505396500,1.159396484375,-0.447967529296875,0.4334564208984375,0.78521728515625
1772702885515447300,1.169447265625,-0.447662353515625,0.434600830078125,0.7866668701171875
1772702885525497300,1.179497314453125,-0.4440155029296875,0.433319091796875,0.7886199951171875
1772702885535547400,1.18954736328125,-0.4424591064453125,0.4361724853515625,0.7880859375
1772702885545597400,1.199597412109375,-0.44305419921875,0.4378509521484375,0.7868804931640625
1772702885555648300,1.209648193359375,-0.44232177734375,0.43536376953125,0.786407470703125
1772702885565698300,1.2196982421875,-0.44329833984375,0.433837890625,0.7881011962890625
1772702885575748400,1.229748291015625,-0.4414520263671875,0.4337921142578125,0.7874603271484375
1772702885585798400,1.23979833984375,-0.4424285888671875,0.435302734375,0.7856903076171875
1772702885595848400,1.249848388671875,-0.4441680908203125,0.4354095458984375,0.783477783203125
1772702885605899300,1.259899169921875,-0.446044921875,0.43115234375,0.788665771484375
1772702885615949300,1.26994921875,-0.4417724609375,0.4307708740234375,0.7927703857421875
1772702885625999400,1.279999267578125,-0.4383087158203125,0.4310455322265625,0.7895965576171875
1772702885636049400,1.29004931640625,-0.44512939453125,0.4322662353515625,0.78460693359375
1772702885646100500,1.3001005859375,-0.4523162841796875,0.430877685546875,0.783660888671875
1772702885656150300,1.310150390625,-0.4524383544921875,0.4262542724609375,0.7850341796875
1772702885666200300,1.320200439453125,-0.4465484619140625,0.4270172119140625,0.789031982421875
1772702885676250400,1.33025048828125,-0.4428253173828125,0.4284820556640625,0.7895050048828125
1772702885686301400,1.340301513671875,-0.44427490234375,0.4252471923828125,0.790191650390625
1772702885696351500,1.3503515625,-0.444732666015625,0.4275054931640625,0.7902374267578125
1772702885706401300,1.3604013671875,-0.4431915283203125,0.428955078125,0.787841796875
1772702885716451300,1.370451416015625,-0.4430084228515625,0.427703857421875,0.786895751953125
1772702885726501400,1.38050146484375,-0.4466552734375,0.42718505859375,0.787841796875
1772702885736552400,1.390552490234375,-0.446075439453125,0.4254913330078125,0.7899322509765625
1772702885746602500,1.4006025390625,-0.444793701171875,0.42376708984375,0.7888031005859375
1772702885756652300,1.41065234375,-0.4423980712890625,0.42376708984375,0.787628173828125
1772702885766702300,1.420702392578125,-0.4429168701171875,0.4243316650390625,0.7888641357421875
1772702885776753400,1.43075341796875,-0.4424285888671875,0.423980712890625,0.7898101806640625
1772702885786803500,1.440803466796875,-0.4465789794921875,0.4202728271484375,0.7928466796875
1772702885796853500,1.450853515625,-0.4481353759765625,0.4187469482421875,0.791595458984375
1772702885806903300,1.4609033203125,-0.44573974609375,0.42193603515625,0.7895050048828125
1772702885816953300,1.470953369140625,-0.4448394775390625,0.424957275390625,0.7864532470703125
1772702885827004400,1.48100439453125,-0.4400482177734375,0.4254302978515625,0.7851715087890625
1772702885837054500,1.491054443359375,-0.4388427734375,0.4225006103515625,0.7845611572265625
1772702885847104500,1.5011044921875,-0.438690185546875,0.4213104248046875,0.786102294921875
1772702885857154300,1.511154296875,-0.4402923583984375,0.42010498046875,0.7885894775390625
1772702885867205400,1.521205322265625,-0.4395904541015625,0.4199981689453125,0.79107666015625
1772702885877255400,1.53125537109375,-0.4376678466796875,0.4232177734375,0.7917633056640625
1772702885887305500,1.541305419921875,-0.4397735595703125,0.4237823486328125,0.7920989990234375
1772702885897355300,1.551355224609375,-0.439666748046875,0.424560546875,0.790802001953125
1772702885907406300,1.56140625,-0.4371795654296875,0.4256134033203125,0.79046630859375
1772702885917456400,1.571456298828125,-0.4321441650390625,0.4260406494140625,0.7924346923828125
1772702885927506400,1.58150634765625,-0.432037353515625,0.4261932373046875,0.7912139892578125
1772702885937556500,1.591556396484375,-0.436279296875,0.42718505859375,0.78729248046875
1772702885947606300,1.601606201171875,-0.4355316162109375,0.42626953125,0.7900390625
1772702885957657300,1.6116572265625,-0.43402099609375,0.42694091796875,0.7930908203125
1772702885967707400,1.621707275390625,-0.4317626953125,0.42620849609375,0.79290771484375
1772702885977757400,1.63175732421875,-0.43145751953125,0.4274139404296875,0.791015625
1772702885987807500,1.641807373046875,-0.4358673095703125,0.427337646484375,0.7946319580078125
1772702885997858600,1.651858642578125,-0.4358978271484375,0.428558349609375,0.79443359375
1772702886007908400,1.661908447265625,-0.4307403564453125,0.43212890625,0.791015625
1772702886017958400,1.67195849609375,-0.427978515625,0.4325408935546875,0.791351318359375
1772702886028008400,1.682008544921875,-0.4329833984375,0.4329986572265625,0.792449951171875
1772702886038059500,1.6920595703125,-0.4377899169921875,0.430755615234375,0.7957305908203125
1772702886048109600,1.702109619140625,-0.438232421875,0.430511474609375,0.7978363037109375
1772702886058159400,1.712159423828125,-0.4376068115234375,0.4316253662109375,0.7967681884765625
1772702886068209400,1.72220947265625,-0.437103271484375,0.428802490234375,0.7978363037109375
1772702886078259500,1.732259521484375,-0.435638427734375,0.428009033203125,0.7993927001953125
1772702886088310500,1.742310546875,-0.4348602294921875,0.4302215576171875,0.7967376708984375
1772702886098360600,1.752360595703125,-0.436676025390625,0.4308929443359375,0.796051025390625
1772702886108410600,1.76241064453125,-0.43365478515625,0.428863525390625,0.7887420654296875
1772702886118460700,1.772460693359375,-0.4311065673828125,0.4278106689453125,0.789581298828125
1772702886128511700,1.78251171875,-0.42901611328125,0.42791748046875,0.79193115234375
1772702886138561500,1.7925615234375,-0.4288787841796875,0.4288330078125,0.7929840087890625
1772702886148611600,1.802611572265625,-0.4315338134765625,0.4282379150390625,0.792572021484375
1772702886158661600,1.81266162109375,-0.4306488037109375,0.426544189453125,0.7929840087890625
1772702886168711700,1.822711669921875,-0.4282684326171875,0.4257354736328125,0.7949981689453125
1772702886178762800,1.8327626953125,-0.4286346435546875,0.4270172119140625,0.796234130859375
1772702886188812500,1.8428125,-0.431640625,0.4247589111328125,0.799224853515625
1772702886198862600,1.852862548828125,-0.431884765625,0.425018310546875,0.7981719970703125
1772702886208912600,1.86291259765625,-0.4345550537109375,0.4216766357421875,0.79779052734375
1772702886218963700,1.872963623046875,-0.4340972900390625,0.4213409423828125,0.802032470703125
1772702886229013500,1.883013427734375,-0.4317169189453125,0.4212799072265625,0.802734375
1772702886239063600,1.8930634765625,-0.43084716796875,0.4240875244140625,0.79998779296875
1772702886249113600,1.903113525390625,-0.4303131103515625,0.42401123046875,0.797454833984375
1772702886259164700,1.91316455078125,-0.4313812255859375,0.42401123046875,0.79571533203125
1772702886269214700,1.923214599609375,-0.4291534423828125,0.420379638671875,0.7967071533203125
1772702886279264500,1.933264404296875,-0.4287109375,0.4149169921875,0.7986297607421875
1772702886289314600,1.943314453125,-0.424163818359375,0.411865234375,0.7987823486328125
1772702886299364600,1.953364501953125,-0.4195709228515625,0.413330078125,0.8019866943359375
1772702886309415700,1.963415771484375,-0.421600341796875,0.4137725830078125,0.803497314453125
1772702886319465700,1.9734658203125,-0.4283599853515625,0.4109954833984375,0.8007354736328125
1772702886329515500,1.983515625,-0.4320831298828125,0.4142303466796875,0.7991180419921875
1772702886339565600,1.993565673828125,-0.4287872314453125,0.418365478515625,0.7989501953125
1772702886349616600,2.00361669921875,-0.4261016845703125,0.4212493896484375,0.8020782470703125
1772702886359666700,2.013666748046875,-0.4293212890625,0.4234161376953125,0.8046722412109375
1772702886369716700,2.023716796875,-0.431976318359375,0.424835205078125,0.8047637939453125
1772702886379766500,2.0337666015625,-0.430328369140625,0.425506591796875,0.8021392822265625
1772702886389816600,2.043816650390625,-0.425445556640625,0.4261322021484375,0.7971038818359375
1772702886399867600,2.05386767578125,-0.423675537109375,0.4262542724609375,0.7941741943359375
1772702886409917700,2.063917724609375,-0.420654296875,0.4263763427734375,0.79425048828125
1772702886419967700,2.0739677734375,-0.4218902587890625,0.4294281005859375,0.7958526611328125
1772702886430017500,2.084017578125,-0.4252471923828125,0.431365966796875,0.797637939453125
1772702886440068600,2.094068603515625,-0.4306640625,0.43499755859375,0.7986602783203125
1772702886450118700,2.10411865234375,-0.439361572265625,0.4329833984375,0.7977447509765625
1772702886460168700,2.114168701171875,-0.448577880859375,0.4351654052734375,0.7962646484375
1772702886470218800,2.12421875,-0.4553070068359375,0.44244384765625,0.794097900390625
1772702886480268500,2.1342685546875,-0.4521484375,0.439422607421875,0.790496826171875
1772702886490319600,2.144319580078125,-0.4476470947265625,0.43231201171875,0.7933502197265625
1772702886500369700,2.15436962890625,-0.439971923828125,0.431976318359375,0.797210693359375
1772702886510419700,2.164419677734375,-0.4318389892578125,0.4390411376953125,0.8053131103515625
1772702886520469800,2.1744697265625,-0.427520751953125,0.44439697265625,0.7877197265625
1772702886530520300,2.184520263671875,-0.4295196533203125,0.4093475341796875,0.7974395751953125
1772702886540570600,2.194570556640625,-0.415069580078125,0.402008056640625,0.81793212890625
1772702886550620700,2.20462060546875,-0.3986053466796875,0.42340087890625,0.7775421142578125
1772702886560670700,2.214670654296875,-0.3949127197265625,0.42523193359375,0.7886199951171875
1772702886570720800,2.224720703125,-0.4138031005859375,0.4328155517578125,0.791168212890625
1772702886580771300,2.234771240234375,-0.4275665283203125,0.4290313720703125,0.7856903076171875
1772702886590821600,2.244821533203125,-0.431488037109375,0.4290008544921875,0.7858734130859375
1772702886600871700,2.25487158203125,-0.4344482421875,0.4319305419921875,0.788482666015625
1772702886610921700,2.264921630859375,-0.4357452392578125,0.4348297119140625,0.7914886474609375
1772702886620972500,2.27497265625,-0.4293975830078125,0.433013916015625,0.7895355224609375
1772702886631022300,2.285022216796875,-0.4165191650390625,0.4287109375,0.799163818359375
1772702886641072400,2.295072265625,-0.4084014892578125,0.42218017578125,0.8070068359375
1772702886651122700,2.305122802734375,-0.4170684814453125,0.4271392822265625,0.818328857421875
1772702886661172700,2.3151728515625,-0.4288787841796875,0.4315643310546875,0.81756591796875
1772702886671223600,2.3252236328125,-0.4329376220703125,0.42840576171875,0.8056793212890625
1772702886681273300,2.3352734375,-0.43853759765625,0.4243927001953125,0.8106231689453125
1772702886691323400,2.345323486328125,-0.431182861328125,0.4233856201171875,0.804473876953125
1772702886701373700,2.355373779296875,-0.429290771484375,0.4240875244140625,0.8137359619140625
1772702886711424500,2.365424560546875,-0.4326629638671875,0.4277496337890625,0.8275299072265625
1772702886721474600,2.375474609375,-0.4358673095703125,0.4256134033203125,0.8280792236328125
1772702886731524400,2.3855244140625,-0.4333953857421875,0.4269561767578125,0.822509765625
1772702886741574400,2.395574462890625,-0.4352569580078125,0.409271240234375,0.8040008544921875
1772702886751624700,2.405624755859375,-0.4359893798828125,0.4050445556640625,0.79827880859375
1772702886761675500,2.415675537109375,-0.4291839599609375,0.3936614990234375,0.78485107421875
1772702886771725600,2.4257255859375,-0.433685302734375,0.4076385498046875,0.8080291748046875
1772702886781775400,2.435775390625,-0.437957763671875,0.4136810302734375,0.7985076904296875
1772702886791825400,2.445825439453125,-0.4439697265625,0.4130096435546875,0.8045654296875
1772702886801876500,2.45587646484375,-0.439208984375,0.4111785888671875,0.80389404296875
1772702886811926500,2.465926513671875,-0.4464111328125,0.4225616455078125,0.8193817138671875
1772702886821976600,2.4759765625,-0.441253662109375,0.4129791259765625,0.7978363037109375
1772702886832026400,2.4860263671875,-0.4438934326171875,0.4018096923828125,0.7925567626953125
1772702886842077400,2.496077392578125,-0.44659423828125,0.394073486328125,0.7850494384765625
1772702886852127500,2.50612744140625,-0.4410400390625,0.3860321044921875,0.7827606201171875
1772702886862177500,2.516177490234375,-0.448822021484375,0.3984832763671875,0.7966156005859375
1772702886872227600,2.5262275390625,-0.4413909912109375,0.39825439453125,0.789794921875
1772702886882277400,2.53627734375,-0.445831298828125,0.407318115234375,0.8017730712890625
1772702886892328400,2.546328369140625,-0.4424591064453125,0.397186279296875,0.7928619384765625
1772702886902378500,2.55637841796875,-0.4476318359375,0.398773193359375,0.79302978515625
1772702886912428500,2.566428466796875,-0.4480438232421875,0.3891754150390625,0.7739715576171875
1772702886922478600,2.576478515625,-0.4535675048828125,0.391510009765625,0.78509521484375
1772702886932529400,2.586529296875,-0.4560546875,0.402557373046875,0.7945098876953125
1772702886942579500,2.596579345703125,-0.4500579833984375,0.41033935546875,0.8020477294921875
1772702886952629500,2.60662939453125,-0.44281005859375,0.41064453125,0.8105621337890625
1772702886962679600,2.616679443359375,-0.4375762939453125,0.407379150390625,0.8144989013671875
1772702886972729300,2.626729248046875,-0.4267120361328125,0.4032135009765625,0.8038177490234375
1772702886982780400,2.636780517578125,-0.4201507568359375,0.4027862548828125,0.7848052978515625
1772702886992830500,2.64683056640625,-0.4234619140625,0.395843505859375,0.7718505859375
1772702887002880500,2.656880615234375,-0.4363861083984375,0.3957977294921875,0.780059814453125
1772702887012930600,2.6669306640625,-0.4463348388671875,0.4073638916015625,0.7910308837890625
1772702887022980400,2.67698046875,-0.4513092041015625,0.4120025634765625,0.8002166748046875
1772702887033031400,2.687031494140625,-0.448974609375,0.4129638671875,0.8047943115234375
1772702887043081500,2.69708154296875,-0.4425811767578125,0.4120025634765625,0.8143463134765625
1772702887053131500,2.707131591796875,-0.4382171630859375,0.4113311767578125,0.8172454833984375
1772702887063181600,2.717181640625,-0.431884765625,0.411834716796875,0.8137664794921875
1772702887073232600,2.727232666015625,-0.4320831298828125,0.41192626953125,0.8095245361328125
1772702887083282000,2.737281982421875,-0.4316864013671875,0.4089202880859375,0.8119659423828125
1772702887093332000,2.74733203125,-0.4300994873046875,0.4085235595703125,0.8090667724609375
1772702887103382000,2.757382080078125,-0.434326171875,0.4055633544921875,0.8051910400390625
1772702887113432000,2.76743212890625,-0.4339447021484375,0.400909423828125,0.8023529052734375
1772702887123483000,2.77748291015625,-0.4287109375,0.3956756591796875,0.797088623046875
1772702887133533000,2.787532958984375,-0.4269866943359375,0.392547607421875,0.7951202392578125
1772702887143583000,2.7975830078125,-0.42718505859375,0.392913818359375,0.8004302978515625
1772702887153633000,2.807633056640625,-0.423370361328125,0.3899688720703125,0.8044891357421875
1772702887163684000,2.81768408203125,-0.422210693359375,0.395050048828125,0.809326171875
1772702887173734000,2.82773388671875,-0.423492431640625,0.4002227783203125,0.8116912841796875
1772702887183784000,2.837783935546875,-0.4301910400390625,0.40191650390625,0.81646728515625
1772702887193834000,2.847833984375,-0.4353485107421875,0.401458740234375,0.8216705322265625
1772702887203884000,2.857884033203125,-0.43719482421875,0.400390625,0.8234710693359375
1772702887213935000,2.86793505859375,-0.438140869140625,0.40240478515625,0.81890869140625
1772702887223985000,2.87798486328125,-0.4386444091796875,0.4021759033203125,0.8090972900390625
1772702887234035000,2.888034912109375,-0.436065673828125,0.4047393798828125,0.80206298828125
1772702887244085000,2.8980849609375,-0.4326934814453125,0.405731201171875,0.79974365234375
1772702887254136000,2.908135986328125,-0.4311065673828125,0.4086456298828125,0.79705810546875
1772702887264186000,2.91818603515625,-0.435791015625,0.4068603515625,0.796905517578125
1772702887274236000,2.92823583984375,-0.441864013671875,0.4072265625,0.796600341796875
1772702887284286000,2.938285888671875,-0.4441375732421875,0.40374755859375,0.7955322265625
1772702887294336000,2.9483359375,-0.445343017578125,0.4033203125,0.7967376708984375
1772702887304387000,2.958386962890625,-0.442169189453125,0.4061126708984375,0.7976531982421875
1772702887314437000,2.96843701171875,-0.4413299560546875,0.4068756103515625,0.795135498046875
1772702887324487000,2.97848681640625,-0.4371185302734375,0.4085540771484375,0.798309326171875
1772702887334537000,2.988536865234375,-0.434234619140625,0.4093170166015625,0.796844482421875
1772702887344588000,2.998588134765625,-0.4346771240234375,0.406463623046875,0.796142578125
1772702887354638000,3.00863818359375,-0.436187744140625,0.40625,0.7926025390625
1772702887364688100,3.018688232421875,-0.4391937255859375,0.4054718017578125,0.7932586669921875
1772702887374738000,3.028738037109375,-0.4422760009765625,0.4032135009765625,0.7994537353515625
1772702887384788000,3.0387880859375,-0.43994140625,0.401611328125,0.8055572509765625
1772702887394839000,3.048839111328125,-0.4369354248046875,0.40509033203125,0.81005859375
1772702887404889000,3.05888916015625,-0.4373016357421875,0.40521240234375,0.8127288818359375
1772702887414939100,3.068939208984375,-0.438140869140625,0.4071502685546875,0.8123779296875
1772702887424989000,3.078989013671875,-0.4335784912109375,0.4080963134765625,0.8122711181640625
1772702887435040000,3.0890400390625,-0.43206787109375,0.4102935791015625,0.8118438720703125
1772702887445090000,3.099090087890625,-0.4316558837890625,0.415374755859375,0.8072357177734375
1772702887455140000,3.10914013671875,-0.4344329833984375,0.414520263671875,0.804412841796875
1772702887465190100,3.119190185546875,-0.4392852783203125,0.413848876953125,0.8017578125
1772702887475240000,3.129239990234375,-0.440185546875,0.412322998046875,0.8042144775390625
1772702887485291000,3.139291015625,-0.435699462890625,0.4116668701171875,0.8057708740234375
1772702887495341000,3.149341064453125,-0.4294586181640625,0.410186767578125,0.8035430908203125
1772702887505391000,3.15939111328125,-0.427581787109375,0.407867431640625,0.7985076904296875
1772702887515441000,3.16944091796875,-0.432159423828125,0.407501220703125,0.79852294921875
1772702887525491000,3.179490966796875,-0.4385833740234375,0.4066009521484375,0.804962158203125
1772702887535542000,3.1895419921875,-0.441986083984375,0.404510498046875,0.8092041015625
1772702887545592000,3.199592041015625,-0.4412994384765625,0.4088134765625,0.8060760498046875
1772702887555642000,3.20964208984375,-0.4382781982421875,0.408935546875,0.80316162109375
1772702887565692000,3.21969189453125,-0.436187744140625,0.4113311767578125,0.8014068603515625
1772702887575743000,3.229742919921875,-0.4384002685546875,0.412109375,0.797760009765625
1772702887585793000,3.23979296875,-0.4403839111328125,0.4110870361328125,0.796142578125
1772702887595843000,3.249843017578125,-0.4411468505859375,0.410369873046875,0.796722412109375
1772702887605893000,3.25989306640625,-0.437286376953125,0.4096221923828125,0.798126220703125
1772702887615943000,3.26994287109375,-0.4340057373046875,0.4080047607421875,0.8048553466796875
1772702887625994000,3.279993896484375,-0.432586669921875,0.4075164794921875,0.804840087890625
1772702887636044000,3.2900439453125,-0.43231201171875,0.4068756103515625,0.8043975830078125
1772702887646094000,3.300093994140625,-0.43426513671875,0.40576171875,0.803375244140625
1772702887656144100,3.31014404296875,-0.43511962890625,0.4092559814453125,0.802978515625
1772702887666195200,3.3201953125,-0.4366302490234375,0.410369873046875,0.8029632568359375
1772702887676245000,3.330244873046875,-0.4338226318359375,0.410552978515625,0.8035736083984375
1772702887686295000,3.340294921875,-0.431732177734375,0.4097747802734375,0.8049163818359375
1772702887696345000,3.350344970703125,-0.429840087890625,0.410858154296875,0.8025360107421875
1772702887706395100,3.36039501953125,-0.430328369140625,0.41180419921875,0.8043975830078125
1772702887716446200,3.3704462890625,-0.4331817626953125,0.411041259765625,0.80401611328125
1772702887726496000,3.38049609375,-0.4361572265625,0.4127655029296875,0.8034820556640625
1772702887736546000,3.390546142578125,-0.4373016357421875,0.4145050048828125,0.8023223876953125
1772702887746596000,3.40059619140625,-0.4369354248046875,0.413604736328125,0.8028717041015625
1772702887756647200,3.410647216796875,-0.43585205078125,0.41156005859375,0.8001861572265625
1772702887766697200,3.420697265625,-0.432769775390625,0.4131317138671875,0.7994842529296875
1772702887776747000,3.4307470703125,-0.43182373046875,0.4105377197265625,0.8001556396484375
1772702887786797000,3.440797119140625,-0.4315948486328125,0.4101104736328125,0.8036346435546875
1772702887796847000,3.45084716796875,-0.4326019287109375,0.4088287353515625,0.8041229248046875
1772702887806898200,3.460898193359375,-0.4310760498046875,0.4080047607421875,0.8002166748046875
1772702887816948200,3.4709482421875,-0.42950439453125,0.404327392578125,0.7971954345703125
1772702887826998000,3.480998046875,-0.42999267578125,0.4048004150390625,0.795074462890625
1772702887837048000,3.491048095703125,-0.432281494140625,0.40618896484375,0.7956390380859375
1772702887847098000,3.50109814453125,-0.435089111328125,0.407012939453125,0.8006591796875
1772702887857149200,3.511149169921875,-0.4345703125,0.4062347412109375,0.8052215576171875
1772702887867199000,3.521198974609375,-0.4337158203125,0.4075775146484375,0.8062744140625
1772702887877249000,3.5312490234375,-0.433502197265625,0.407135009765625,0.806732177734375
1772702887887299000,3.541299072265625,-0.432159423828125,0.4067535400390625,0.803863525390625
1772702887897350100,3.55135009765625,-0.4317779541015625,0.4062347412109375,0.80596923828125
1772702887907400200,3.561400146484375,-0.4336700439453125,0.4046783447265625,0.8043365478515625
1772702887917450000,3.571449951171875,-0.434173583984375,0.40240478515625,0.80450439453125
1772702887927500000,3.5815,-0.4336700439453125,0.4009857177734375,0.8033905029296875
1772702887937550000,3.591550048828125,-0.4320831298828125,0.3990325927734375,0.8067626953125
1772702887947601200,3.60160107421875,-0.4307098388671875,0.3990631103515625,0.8093719482421875
1772702887957651200,3.611651123046875,-0.4293365478515625,0.401336669921875,0.8128204345703125
1772702887967701000,3.621700927734375,-0.429534912109375,0.40313720703125,0.8113861083984375
1772702887977751000,3.6317509765625,-0.4300384521484375,0.4046630859375,0.806488037109375
1772702887987801000,3.641801025390625,-0.4348602294921875,0.406982421875,0.802459716796875
1772702887997852200,3.65185205078125,-0.436614990234375,0.406402587890625,0.8023529052734375
1772702888007902200,3.661902099609375,-0.4366455078125,0.404510498046875,0.8016357421875
1772702888017952000,3.671951904296875,-0.4328155517578125,0.407623291015625,0.8031158447265625
1772702888028002000,3.682001953125,-0.4311981201171875,0.4089813232421875,0.8028717041015625
1772702888038053000,3.69205322265625,-0.4314422607421875,0.407012939453125,0.805267333984375
1772702888048103200,3.702103271484375,-0.43145751953125,0.4055633544921875,0.806610107421875
1772702888058153200,3.7121533203125,-0.4314727783203125,0.4055328369140625,0.8025970458984375
1772702888068203000,3.722203125,-0.4330596923828125,0.40655517578125,0.8000030517578125
1772702888078253000,3.732253173828125,-0.4361572265625,0.4075775146484375,0.7988433837890625
1772702888088304000,3.74230419921875,-0.436737060546875,0.4054107666015625,0.80438232421875
1772702888098354200,3.752354248046875,-0.437225341796875,0.4044647216796875,0.8070831298828125
1772702888108404200,3.762404296875,-0.434417724609375,0.4009552001953125,0.8072509765625
1772702888118454000,3.7724541015625,-0.4342498779296875,0.4025421142578125,0.8072662353515625
1772702888128505000,3.782505126953125,-0.4339447021484375,0.4007415771484375,0.80914306640625
1772702888138555100,3.79255517578125,-0.4334716796875,0.4019927978515625,0.8086395263671875
1772702888148605200,3.802605224609375,-0.4317169189453125,0.4037628173828125,0.806488037109375
1772702888158655200,3.8126552734375,-0.431854248046875,0.4039154052734375,0.808441162109375
1772702888168705000,3.822705078125,-0.4354095458984375,0.403533935546875,0.8103179931640625
1772702888178756000,3.832756103515625,-0.43719482421875,0.4035491943359375,0.8096160888671875
1772702888188806100,3.84280615234375,-0.438018798828125,0.403106689453125,0.808746337890625
1772702888198856200,3.852856201171875,-0.4377899169921875,0.40289306640625,0.808197021484375
1772702888208906200,3.86290625,-0.4316864013671875,0.4029388427734375,0.807281494140625
1772702888218956000,3.8729560546875,-0.4288482666015625,0.406219482421875,0.8048858642578125
1772702888229007000,3.883007080078125,-0.4280853271484375,0.40673828125,0.80462646484375
1772702888239057200,3.89305712890625,-0.42816162109375,0.4056854248046875,0.8051605224609375
1772702888249107200,3.903107177734375,-0.4315948486328125,0.4048614501953125,0.8034820556640625
1772702888259157000,3.913156982421875,-0.433074951171875,0.4037322998046875,0.8039398193359375
1772702888269208000,3.9232080078125,-0.4345550537109375,0.4052581787109375,0.803985595703125
1772702888279258000,3.933258056640625,-0.4353485107421875,0.406036376953125,0.803985595703125
1772702888289308200,3.94330810546875,-0.435333251953125,0.4052276611328125,0.8032379150390625
1772702888299358200,3.953358154296875,-0.435272216796875,0.404876708984375,0.80230712890625
1772702888309408000,3.963407958984375,-0.4348602294921875,0.4034423828125,0.8056793212890625
1772702888319459000,3.973458984375,-0.4330291748046875,0.4022216796875,0.80706787109375
1772702888329509000,3.983509033203125,-0.4306488037109375,0.4042510986328125,0.803253173828125
1772702888339559200,3.99355908203125,-0.429168701171875,0.407470703125,0.802276611328125
1772702888349609200,4.003609130859375,-0.4278717041015625,0.4052734375,0.8003692626953125
1772702888359660000,4.013659912109375,-0.4293975830078125,0.4029083251953125,0.80126953125
1772702888369710000,4.0237099609375,-0.4317169189453125,0.4054107666015625,0.8041839599609375
1772702888379760000,4.033760009765625,-0.4308013916015625,0.4046478271484375,0.8052215576171875
1772702888389810200,4.04381005859375,-0.4295654296875,0.40625,0.8073272705078125
1772702888399860200,4.053860107421875,-0.4302825927734375,0.4035797119140625,0.80670166015625
1772702888409911000,4.0639111328125,-0.433746337890625,0.404632568359375,0.8043670654296875
1772702888419961000,4.073961181640625,-0.43353271484375,0.403350830078125,0.806640625
1772702888430011100,4.08401123046875,-0.4324951171875,0.4019317626953125,0.804962158203125
1772702888440061200,4.094061279296875,-0.4298248291015625,0.4034881591796875,0.8022003173828125
1772702888450111200,4.104111328125,-0.43023681640625,0.404144287109375,0.7993316650390625
1772702888460162000,4.114162109375,-0.43121337890625,0.4031524658203125,0.7991485595703125
1772702888470212000,4.124212158203125,-0.4300994873046875,0.4034576416015625,0.8008575439453125
1772702888480262100,4.13426220703125,-0.425567626953125,0.404632568359375,0.805389404296875
1772702888490312200,4.144312255859375,-0.4258880615234375,0.4029083251953125,0.8074951171875
1772702888500362200,4.1543623046875,-0.4234771728515625,0.40509033203125,0.8087158203125
1772702888510413000,4.1644130859375,-0.4214630126953125,0.4055023193359375,0.8067626953125
1772702888520463000,4.174463134765625,-0.4224700927734375,0.406005859375,0.8052825927734375
1772702888530513200,4.18451318359375,-0.430694580078125,0.407135009765625,0.8062286376953125
1772702888540563200,4.194563232421875,-0.431243896484375,0.407379150390625,0.8076324462890625
1772702888550614000,4.204614013671875,-0.42767333984375,0.4109039306640625,0.8070220947265625
1772702888560664000,4.2146640625,-0.42523193359375,0.4102935791015625,0.8096923828125
1772702888570714000,4.224714111328125,-0.4256134033203125,0.408966064453125,0.8120880126953125
1772702888580764200,4.23476416015625,-0.4250030517578125,0.4095306396484375,0.8126983642578125
1772702888590814200,4.244814208984375,-0.4248199462890625,0.4125213623046875,0.812774658203125
1772702888600865000,4.254864990234375,-0.425445556640625,0.41290283203125,0.8117218017578125
1772702888610915000,4.2649150390625,-0.42742919921875,0.4110565185546875,0.8113861083984375
1772702888620965000,4.274965087890625,-0.4296112060546875,0.4100341796875,0.809661865234375
1772702888631015200,4.28501513671875,-0.4302215576171875,0.4071197509765625,0.80999755859375
1772702888641065200,4.295065185546875,-0.4269256591796875,0.4071197509765625,0.8103179931640625
1772702888651116000,4.305115966796875,-0.429168701171875,0.4072723388671875,0.809356689453125
1772702888661166000,4.315166015625,-0.4272003173828125,0.4062957763671875,0.80889892578125
1772702888671216000,4.325216064453125,-0.4263763427734375,0.408538818359375,0.8077239990234375
1772702888681266200,4.33526611328125,-0.4272003173828125,0.4096527099609375,0.8089752197265625
1772702888691317000,4.34531689453125,-0.4286041259765625,0.407623291015625,0.8114166259765625
1772702888701367000,4.355366943359375,-0.431488037109375,0.4085693359375,0.811004638671875
1772702888711416800,4.365416748046875,-0.4327239990234375,0.4071502685546875,0.8109130859375
1772702888721467100,4.375467041015625,-0.431793212890625,0.4055938720703125,0.80615234375
1772702888731517200,4.38551708984375,-0.4296417236328125,0.405487060546875,0.802459716796875
1772702888741568000,4.395568115234375,-0.4296875,0.4036102294921875,0.810577392578125
1772702888751618000,4.4056181640625,-0.4293975830078125,0.405548095703125,0.8114166259765625
1772702888761667800,4.415667724609375,-0.430633544921875,0.4092864990234375,0.8115386962890625
1772702888771718100,4.42571826171875,-0.4337921142578125,0.4109954833984375,0.8102569580078125
1772702888781768200,4.435768310546875,-0.4341888427734375,0.407257080078125,0.8130950927734375
1772702888791819000,4.445819091796875,-0.434295654296875,0.4046173095703125,0.8167266845703125
1772702888801869000,4.455869140625,-0.4300689697265625,0.4028778076171875,0.81683349609375
1772702888811918800,4.4659189453125,-0.4261627197265625,0.403289794921875,0.8128814697265625
1772702888821969200,4.47596923828125,-0.4255828857421875,0.4022979736328125,0.81298828125
1772702888832020000,4.48602001953125,-0.4260406494140625,0.399688720703125,0.809814453125
1772702888842070000,4.496070068359375,-0.4272918701171875,0.39898681640625,0.80487060546875
1772702888852120000,4.5061201171875,-0.42559814453125,0.399444580078125,0.805023193359375
1772702888862169900,4.516169921875,-0.420745849609375,0.4013824462890625,0.80413818359375
1772702888872220200,4.52622021484375,-0.41827392578125,0.402587890625,0.805389404296875
1772702888882271000,4.53627099609375,-0.41717529296875,0.4029388427734375,0.808013916015625
1772702888892321000,4.546321044921875,-0.419525146484375,0.402587890625,0.8096771240234375
1772702888902371000,4.55637109375,-0.421875,0.4019317626953125,0.8086700439453125
1772702888912420900,4.5664208984375,-0.4241943359375,0.4030914306640625,0.8078155517578125
1772702888922471200,4.57647119140625,-0.4247589111328125,0.4039764404296875,0.8099212646484375
1772702888932522000,4.58652197265625,-0.4238739013671875,0.4060516357421875,0.8104705810546875
1772702888942572000,4.596572021484375,-0.4231719970703125,0.40704345703125,0.806884765625
1772702888952622000,4.6066220703125,-0.4228363037109375,0.409576416015625,0.806304931640625
1772702888962671900,4.616671875,-0.42333984375,0.413604736328125,0.8061370849609375
1772702888972723000,4.626722900390625,-0.4244537353515625,0.4150238037109375,0.8071746826171875
1772702888982773000,4.63677294921875,-0.4224853515625,0.4171905517578125,0.807769775390625
1772702888992823000,4.646822998046875,-0.4190673828125,0.417816162109375,0.810272216796875
1772702889002872800,4.656872802734375,-0.41973876953125,0.4180908203125,0.8122100830078125
1772702889012923000,4.6669228515625,-0.4210357666015625,0.4216156005859375,0.8093414306640625
1772702889022974000,4.676973876953125,-0.42059326171875,0.4188690185546875,0.80841064453125
1772702889033024000,4.68702392578125,-0.4192047119140625,0.4166717529296875,0.8093109130859375
1772702889043074000,4.697073974609375,-0.4196014404296875,0.4134521484375,0.810577392578125
1772702889053123800,4.707123779296875,-0.421661376953125,0.411956787109375,0.8114013671875
1772702889063174000,4.717173828125,-0.42425537109375,0.408782958984375,0.8105926513671875
1772702889073225000,4.727224853515625,-0.426666259765625,0.4058837890625,0.8069305419921875
1772702889083275000,4.73727490234375,-0.4257049560546875,0.402740478515625,0.809967041015625
1772702889093325600,4.74732568359375,-0.426239013671875,0.3992919921875,0.8145904541015625
1772702889103375600,4.757375732421875,-0.426361083984375,0.39874267578125,0.819091796875
1772702889113425400,4.76742529296875,-0.4230194091796875,0.400634765625,0.819000244140625
1772702889123476500,4.7774765625,-0.41802978515625,0.400115966796875,0.816497802734375
1772702889133526500,4.787526611328125,-0.4067840576171875,0.3951568603515625,0.7995758056640625
1772702889143576600,4.79757666015625,-0.414886474609375,0.407135009765625,0.8135986328125
1772702889153626600,4.807626708984375,-0.422943115234375,0.4059600830078125,0.795379638671875
1772702889163677700,4.817677734375,-0.424346923828125,0.40643310546875,0.8032684326171875
1772702889173727500,4.8277275390625,-0.4211883544921875,0.4076690673828125,0.810302734375
1772702889183777500,4.837777587890625,-0.4175872802734375,0.4114532470703125,0.815948486328125
1772702889193827600,4.84782763671875,-0.4277801513671875,0.41156005859375,0.8146820068359375
1772702889203877600,4.857877685546875,-0.42987060546875,0.405242919921875,0.81951904296875
1772702889213928700,4.8679287109375,-0.4215850830078125,0.4068756103515625,0.82843017578125
1772702889223978500,4.877978515625,-0.4101409912109375,0.40740966796875,0.8189697265625
1772702889234028500,4.888028564453125,-0.411041259765625,0.4096832275390625,0.8222503662109375
1772702889244078600,4.89807861328125,-0.4175262451171875,0.40521240234375,0.8104400634765625
1772702889254128600,4.908128662109375,-0.4157562255859375,0.4075775146484375,0.8160247802734375
1772702889264179700,4.9181796875,-0.420745849609375,0.413787841796875,0.8154449462890625
1772702889274229500,4.9282294921875,-0.42181396484375,0.4188232421875,0.816375732421875
1772702889284279600,4.938279541015625,-0.4135589599609375,0.418060302734375,0.8179473876953125
1772702889294329600,4.94832958984375,-0.413909912109375,0.4183807373046875,0.82208251953125
1772702889304379600,4.958379638671875,-0.4152679443359375,0.4105987548828125,0.81256103515625
1772702889314430700,4.9684306640625,-0.4033355712890625,0.4051971435546875,0.805145263671875
1772702889324480500,4.97848046875,-0.412689208984375,0.4087371826171875,0.8176116943359375
1772702889334530600,4.988530517578125,-0.4222412109375,0.406494140625,0.810516357421875
1772702889344580600,4.99858056640625,-0.4156951904296875,0.4074249267578125,0.8172760009765625
1772702889354631700,5.008631591796875,-0.4089813232421875,0.412506103515625,0.8163299560546875
1772702889364681500,5.018681396484375,-0.4142303466796875,0.4102325439453125,0.8148956298828125
1772702889374731500,5.0287314453125,-0.412872314453125,0.40386962890625,0.8161773681640625
1772702889384781600,5.038781494140625,-0.403533935546875,0.4029998779296875,0.8105010986328125
1772702889394831600,5.04883154296875,-0.407257080078125,0.40936279296875,0.8174896240234375
1772702889404882700,5.058882568359375,-0.4151611328125,0.4080963134765625,0.81341552734375
1772702889414932500,5.068932373046875,-0.4118499755859375,0.400054931640625,0.81378173828125
1772702889424982500,5.078982421875,-0.3969268798828125,0.3978271484375,0.8130035400390625
1772702889435032600,5.089032470703125,-0.4073028564453125,0.4091339111328125,0.8284454345703125
1772702889445082600,5.09908251953125,-0.4149627685546875,0.40283203125,0.8291473388671875
1772702889455133700,5.1091337890625,-0.404541015625,0.3950653076171875,0.8211822509765625
1772702889465183500,5.11918359375,-0.3909912109375,0.3974761962890625,0.8149871826171875
1772702889475233500,5.129233642578125,-0.40228271484375,0.40728759765625,0.821685791015625
1772702889485283600,5.13928369140625,-0.4129791259765625,0.4038848876953125,0.817840576171875
1772702889495334700,5.149334716796875,-0.4110565185546875,0.4028472900390625,0.8136749267578125
1772702889505384700,5.159384765625,-0.413330078125,0.4040985107421875,0.817413330078125
1772702889515434500,5.1694345703125,-0.4121246337890625,0.40142822265625,0.818634033203125
1772702889525484500,5.179484619140625,-0.4044647216796875,0.405120849609375,0.8250579833984375
1772702889535534600,5.18953466796875,-0.411285400390625,0.40631103515625,0.8204803466796875
1772702889545585700,5.199585693359375,-0.41351318359375,0.4029998779296875,0.8149871826171875
1772702889555635700,5.2096357421875,-0.41107177734375,0.4014129638671875,0.8190460205078125
1772702889565685500,5.219685546875,-0.413726806640625,0.4025115966796875,0.8177947998046875
1772702889575735600,5.229735595703125,-0.4129486083984375,0.4048919677734375,0.8203887939453125
1772702889585785600,5.23978564453125,-0.4127044677734375,0.407440185546875,0.8209075927734375
1772702889595836700,5.249836669921875,-0.4134521484375,0.409576416015625,0.8172454833984375
1772702889605886700,5.25988671875,-0.4088897705078125,0.410797119140625,0.8135528564453125
1772702889615936500,5.2699365234375,-0.4072723388671875,0.4111328125,0.81573486328125
1772702889625986600,5.279986572265625,-0.4045562744140625,0.410369873046875,0.814056396484375
1772702889636036600,5.29003662109375,-0.3947296142578125,0.4088592529296875,0.8070068359375
1772702889646087700,5.300087646484375,-0.4070587158203125,0.415924072265625,0.8112030029296875
1772702889656137700,5.3101376953125,-0.4234619140625,0.414947509765625,0.80810546875
1772702889666186500,5.3201865234375,-0.4218292236328125,0.4139862060546875,0.811248779296875
1772702889676236500,5.330236572265625,-0.4127655029296875,0.4092559814453125,0.816162109375
1772702889686287600,5.34028759765625,-0.4078521728515625,0.411468505859375,0.8165283203125
1772702889696337700,5.350337646484375,-0.404998779296875,0.4113311767578125,0.812225341796875
1772702889706387500,5.360387451171875,-0.406402587890625,0.4114837646484375,0.809539794921875
1772702889716437500,5.3704375,-0.4097442626953125,0.4153594970703125,0.806732177734375
1772702889726488600,5.380488525390625,-0.41424560546875,0.414337158203125,0.8105316162109375
1772702889736538600,5.39053857421875,-0.416748046875,0.4148101806640625,0.8188629150390625
1772702889746588700,5.400588623046875,-0.4184112548828125,0.4133148193359375,0.8216400146484375
1772702889756638500,5.410638427734375,-0.4156341552734375,0.4115142822265625,0.8203277587890625
1772702889766688500,5.4206884765625,-0.4144287109375,0.4093475341796875,0.8175048828125
1772702889776739600,5.430739501953125,-0.410736083984375,0.4030303955078125,0.807830810546875
1772702889786789600,5.44078955078125,-0.40679931640625,0.40576171875,0.8022613525390625
1772702889796839700,5.450839599609375,-0.406402587890625,0.4087371826171875,0.8114166259765625
1772702889806889500,5.460889404296875,-0.40606689453125,0.4096527099609375,0.81488037109375
1772702889816939500,5.470939453125,-0.4132080078125,0.406707763671875,0.8149261474609375
1772702889826990600,5.480990478515625,-0.418670654296875,0.4075927734375,0.811614990234375
1772702889837040600,5.49104052734375,-0.421905517578125,0.4075469970703125,0.810943603515625
1772702889847090400,5.50109033203125,-0.4228973388671875,0.407501220703125,0.8126678466796875
1772702889857140500,5.511140380859375,-0.4204559326171875,0.4080352783203125,0.8156585693359375
1772702889867190500,5.5211904296875,-0.4197845458984375,0.4038238525390625,0.8191986083984375
1772702889877241600,5.53124169921875,-0.4158477783203125,0.4044342041015625,0.818878173828125
1772702889887291600,5.541291748046875,-0.4146728515625,0.40435791015625,0.8145294189453125
1772702889897341400,5.551341552734375,-0.4174957275390625,0.4072113037109375,0.81134033203125
1772702889907391500,5.5613916015625,-0.4181365966796875,0.4103546142578125,0.8070831298828125
1772702889917442600,5.571442626953125,-0.418243408203125,0.409698486328125,0.80987548828125
1772702889927492600,5.58149267578125,-0.4184417724609375,0.4040985107421875,0.8121490478515625
1772702889937542700,5.591542724609375,-0.418609619140625,0.4023590087890625,0.8141326904296875
1772702889947592400,5.601592529296875,-0.4158782958984375,0.399688720703125,0.8123626708984375
1772702889957642500,5.611642578125,-0.4145355224609375,0.3981170654296875,0.8077850341796875
1772702889967693600,5.621693603515625,-0.4171600341796875,0.3981475830078125,0.80780029296875
1772702889977743600,5.63174365234375,-0.4197235107421875,0.3976898193359375,0.8093719482421875
1772702889987793700,5.641793701171875,-0.4198150634765625,0.397491455078125,0.8095245361328125
1772702889997843500,5.651843505859375,-0.42333984375,0.3959808349609375,0.8134307861328125
1772702890007893500,5.6618935546875,-0.42169189453125,0.3965911865234375,0.8151092529296875
1772702890017944600,5.671944580078125,-0.423675537109375,0.39813232421875,0.8179473876953125
1772702890027994600,5.68199462890625,-0.4230499267578125,0.3977508544921875,0.816741943359375
1772702890038044700,5.692044677734375,-0.4235382080078125,0.3970184326171875,0.8131866455078125
1772702890048094500,5.702094482421875,-0.4209136962890625,0.3966827392578125,0.814453125
1772702890058144500,5.71214453125,-0.415802001953125,0.398162841796875,0.8166961669921875
1772702890068195600,5.722195556640625,-0.41668701171875,0.3967132568359375,0.8193817138671875
1772702890078245600,5.73224560546875,-0.4177703857421875,0.3953094482421875,0.822509765625
1772702890088295700,5.742295654296875,-0.4180755615234375,0.3946533203125,0.821258544921875
1772702890098345200,5.75234521484375,-0.416961669921875,0.39923095703125,0.818603515625
1772702890108395300,5.762395263671875,-0.4185943603515625,0.4014739990234375,0.818145751953125
1772702890118446300,5.7724462890625,-0.4176483154296875,0.403594970703125,0.820220947265625
1772702890128496400,5.782496337890625,-0.4175567626953125,0.403533935546875,0.8191986083984375
1772702890138546400,5.79254638671875,-0.42144775390625,0.4033660888671875,0.8165435791015625
1772702890148596200,5.80259619140625,-0.4208984375,0.399658203125,0.818328857421875
1772702890158647300,5.812647216796875,-0.420501708984375,0.3999481201171875,0.8174591064453125
1772702890168697300,5.822697265625,-0.420013427734375,0.397705078125,0.816680908203125
1772702890178747400,5.832747314453125,-0.4187164306640625,0.3968963623046875,0.8154296875
1772702890188797200,5.842797119140625,-0.4152069091796875,0.3972015380859375,0.817352294921875
1772702890198847200,5.85284716796875,-0.415740966796875,0.3988494873046875,0.815093994140625
1772702890208898300,5.862898193359375,-0.4148712158203125,0.4008331298828125,0.8144989013671875
1772702890218948400,5.8729482421875,-0.414520263671875,0.4034423828125,0.813873291015625
1772702890228998400,5.882998291015625,-0.418121337890625,0.4034576416015625,0.81634521484375
1772702890239048200,5.893048095703125,-0.4198150634765625,0.40130615234375,0.81732177734375
1772702890249098200,5.90309814453125,-0.42218017578125,0.4027099609375,0.8182373046875
1772702890259149300,5.9131494140625,-0.4203033447265625,0.4040985107421875,0.816253662109375
1772702890269199400,5.923199462890625,-0.414306640625,0.4053192138671875,0.8142242431640625
1772702890279249400,5.93324951171875,-0.4125823974609375,0.4091033935546875,0.8114776611328125
1772702890289299200,5.94329931640625,-0.4129791259765625,0.40911865234375,0.8106536865234375
1772702890299349200,5.953349365234375,-0.410919189453125,0.410675048828125,0.8102874755859375
1772702890309400300,5.963400390625,-0.4117279052734375,0.4110107421875,0.8124237060546875
1772702890319450400,5.973450439453125,-0.414825439453125,0.4079742431640625,0.8148651123046875
1772702890329500400,5.98350048828125,-0.4156036376953125,0.40704345703125,0.813629150390625
1772702890339550200,5.99355029296875,-0.4160003662109375,0.406951904296875,0.8155975341796875
1772702890349601300,6.003601318359375,-0.4147491455078125,0.4062652587890625,0.8163604736328125
1772702890359651300,6.0136513671875,-0.41510009765625,0.4054412841796875,0.8151397705078125
1772702890369701400,6.023701416015625,-0.4142913818359375,0.4056854248046875,0.81549072265625
1772702890379751400,6.03375146484375,-0.41290283203125,0.40625,0.8144378662109375
1772702890389801200,6.04380126953125,-0.4149627685546875,0.409149169921875,0.8119354248046875
1772702890399852300,6.053852294921875,-0.4183349609375,0.4085693359375,0.8150787353515625
1772702890409902300,6.06390234375,-0.4185791015625,0.4066314697265625,0.815673828125
1772702890419952400,6.073952392578125,-0.4156494140625,0.4093780517578125,0.8155059814453125
1772702890430002400,6.08400244140625,-0.4138031005859375,0.4107208251953125,0.8140716552734375
1772702890440052200,6.09405224609375,-0.410186767578125,0.4088592529296875,0.8144989013671875
1772702890450103300,6.104103271484375,-0.4110870361328125,0.4067840576171875,0.8090972900390625
1772702890460153300,6.1141533203125,-0.4152679443359375,0.4040374755859375,0.8107147216796875
1772702890470203400,6.124203369140625,-0.418975830078125,0.403045654296875,0.8144989013671875
1772702890480253400,6.13425341796875,-0.4222412109375,0.4070892333984375,0.8167572021484375
1772702890490303200,6.14430322265625,-0.4232940673828125,0.406707763671875,0.8166961669921875
1772702890500354300,6.154354248046875,-0.416900634765625,0.408966064453125,0.8177032470703125
1772702890510404400,6.164404296875,-0.4071197509765625,0.4125518798828125,0.812591552734375
1772702890520454400,6.174454345703125,-0.4039306640625,0.4132537841796875,0.808990478515625
1772702890530504400,6.18450439453125,-0.4095611572265625,0.4105682373046875,0.8058624267578125
1772702890540554200,6.19455419921875,-0.4174957275390625,0.4098052978515625,0.806976318359375
1772702890550605300,6.204605224609375,-0.419952392578125,0.40667724609375,0.8112945556640625
1772702890560655400,6.2146552734375,-0.4151153564453125,0.403900146484375,0.814208984375
1772702890570705400,6.224705322265625,-0.41253662109375,0.4024810791015625,0.8169708251953125
1772702890580755200,6.234755126953125,-0.412078857421875,0.403961181640625,0.8165130615234375
1772702890590806300,6.24480615234375,-0.414031982421875,0.4052581787109375,0.8144378662109375
1772702890600856300,6.254856201171875,-0.4131622314453125,0.406494140625,0.816436767578125
1772702890610906400,6.26490625,-0.411163330078125,0.4094085693359375,0.8199310302734375
1772702890620956400,6.274956298828125,-0.41094970703125,0.4111328125,0.81549072265625
1772702890631006200,6.285006103515625,-0.412872314453125,0.412628173828125,0.813140869140625
1772702890641057300,6.295057373046875,-0.4189910888671875,0.409515380859375,0.809356689453125
1772702890651107300,6.305107421875,-0.4222564697265625,0.4069366455078125,0.8155975341796875
1772702890661157400,6.315157470703125,-0.420135498046875,0.4079132080078125,0.821014404296875
1772702890671207400,6.32520751953125,-0.4133453369140625,0.4044952392578125,0.820709228515625
1772702890681257200,6.33525732421875,-0.4119415283203125,0.4051666259765625,0.818359375
1772702890691308300,6.345308349609375,-0.4130401611328125,0.4043121337890625,0.816192626953125
1772702890701358300,6.3553583984375,-0.4126129150390625,0.40576171875,0.814697265625
1772702890711408400,6.365408447265625,-0.412109375,0.406951904296875,0.8158721923828125
1772702890721458400,6.37545849609375,-0.4147186279296875,0.405914306640625,0.8150634765625
1772702890731508200,6.38550830078125,-0.416046142578125,0.4084320068359375,0.814697265625
1772702890741559300,6.395559326171875,-0.4156494140625,0.4090576171875,0.815216064453125
1772702890751609300,6.405609375,-0.414093017578125,0.408111572265625,0.8123321533203125
1772702890761659400,6.415659423828125,-0.4137725830078125,0.40924072265625,0.8137054443359375
1772702890771709400,6.42570947265625,-0.41290283203125,0.409332275390625,0.8134613037109375
1772702890781759200,6.43575927734375,-0.4172210693359375,0.4103546142578125,0.8109893798828125
1772702890791810300,6.445810302734375,-0.416656494140625,0.41339111328125,0.8100128173828125
1772702890801860400,6.4558603515625,-0.411163330078125,0.4139251708984375,0.806365966796875
1772702890811910400,6.465910400390625,-0.4101104736328125,0.4161376953125,0.8067169189453125
1772702890821960400,6.47596044921875,-0.40655517578125,0.4154815673828125,0.8120574951171875
1772702890832010200,6.48601025390625,-0.40740966796875,0.40789794921875,0.8160247802734375
1772702890842061300,6.496061279296875,-0.4285125732421875,0.3766937255859375,0.8159027099609375
1772702890852111400,6.506111328125,-0.371734619140625,0.3856964111328125,0.8248291015625
1772702890862161400,6.516161376953125,-0.360443115234375,0.4093780517578125,0.8773956298828125
1772702890872211500,6.52621142578125,-0.4028167724609375,0.399932861328125,0.8402862548828125
1772702890882261200,6.53626123046875,-0.467803955078125,0.3955078125,0.8048553466796875
1772702890892312300,6.546312255859375,-0.498687744140625,0.4051055908203125,0.805877685546875
1772702890902362400,6.5563623046875,-0.45855712890625,0.4089813232421875,0.8146820068359375
1772702890912412400,6.566412353515625,-0.398895263671875,0.4168548583984375,0.8028411865234375
1772702890922462500,6.57646240234375,-0.3704986572265625,0.4058074951171875,0.79217529296875
1772702890932513300,6.58651318359375,-0.3641510009765625,0.3873748779296875,0.811614990234375
1772702890942563300,6.596563232421875,-0.36865234375,0.398345947265625,0.8317413330078125
