time,seconds_elapsed,z,y,x
1772702884413690000,0.067690185546875,0.2037748521387577,-0.121104167714715,0.1830740094155073
1772702884423740200,0.077740234375,0.1856453212082386,-0.08883125288039445,0.13019406762123106
1772702884433790200,0.087790283203125,0.08429273266792296,-0.07718991492539644,0.016014146211743355
1772702884443841300,0.09784130859375,-0.012152794608473776,-0.06955459774136542,-0.01831131723821163
1772702884453891300,0.107891357421875,0.004749824875593185,-0.10185907675772905,0.027907997623085976
1772702884463941000,0.117941162109375,0.049829322052001954,-0.13321546126902103,0.09610475101470947
1772702884473991200,0.1279912109375,0.0614864420980215,-0.1485734816595912,0.14380641338825226
1772702884484042200,0.138042236328125,0.04420154529809951,-0.13762889379709958,0.161593414491415
1772702884494092300,0.14809228515625,0.020614625744521616,-0.09793459679037332,0.12975100002884865
1772702884504142300,0.158142333984375,-0.009796294610202311,-0.0971972224265337,0.06430851378142834
1772702884514192100,0.168192138671875,0.007383680510520935,-0.09375234266966581,0.03844458920657635
1772702884524243200,0.1782431640625,0.028355449129641053,-0.10448708717375993,0.12141162622869014
1772702884534293200,0.188293212890625,0.0187505854383111,-0.10739742166250943,0.16108955662250518
1772702884544343300,0.19834326171875,0.00987783541381359,-0.09378507589548826,0.12810966256260872
1772702884554393300,0.208393310546875,0.007603168480098247,-0.09710223761945962,0.08669161050319671
1772702884564444200,0.218444091796875,0.025696751314401627,-0.11815087086707353,0.11645078895092009
1772702884574494200,0.228494140625,0.021144787098467347,-0.118629302033782,0.16340017165243625
1772702884584544300,0.238544189453125,-0.005912438914179801,-0.0961973977342248,0.143769588509202
1772702884594594300,0.24859423828125,-0.026968086424469948,-0.06565905160754919,0.1195440787911415
1772702884604644400,0.258644287109375,0.0067281392112374305,-0.05723726022094488,0.09435293891131877
1772702884614695200,0.268695068359375,0.09220072931349277,-0.054898880401253694,0.08453881638348103
1772702884624745200,0.2787451171875,0.18740502435714004,-0.06222381646186113,0.06869827317297458
1772702884634795300,0.288795166015625,0.18912381097376346,-0.053387891316413874,0.057957683449983595
1772702884644845300,0.29884521484375,0.1025061424896121,-0.04706424125283956,0.06570201396644115
1772702884654896400,0.308896484375,0.0465615524277091,-0.034303251618146895,0.06786416043639183
1772702884664946200,0.3189462890625,0.018085984049737453,-0.05424596945047378,0.05909516304731369
1772702884674996200,0.328996337890625,0.03598462883383036,-0.03751315357536077,0.07645955482423306
1772702884685046300,0.33904638671875,0.04945931969583034,-0.03241816852390766,0.07360416539311408
1772702884695097000,0.34909716796875,0.032060733388364314,-0.01710837118923664,0.08726093482375144
1772702884705147400,0.3591474609375,0.0271487036883831,-0.06281593713611364,0.06486264053285122
1772702884715197200,0.369197265625,0.05125263285338878,-0.10640811836421489,0.10434709418117999
1772702884725247200,0.379247314453125,0.09242109406590461,-0.07065057628452777,0.10122574729025363
1772702884735297300,0.38929736328125,0.08922960454821587,-0.05927256544083356,0.09821019886136055
1772702884745348000,0.39934814453125,0.03919336174726486,-0.06430296082347631,0.09898702845275402
1772702884755398400,0.4093984375,0.021039865419268607,-0.0632186727181077,0.10788578970134258
1772702884765448200,0.4194482421875,0.01146948851943016,-0.07443594004213809,0.11927695228755474
1772702884775498200,0.429498291015625,0.004422492617368698,-0.11072919643372296,0.13592472022771834
1772702884785549000,0.439549072265625,-0.008570259946584701,-0.11934037291258573,0.12818915753960608
1772702884795599000,0.44959912109375,0.017946283318102357,-0.13012977021336555,0.1337181500941515
1772702884805649400,0.4596494140625,0.03936608796566725,-0.07950842100083827,0.07822422640919685
1772702884815699200,0.46969921875,0.08849135340154171,-0.0513520015746355,0.0401806192189455
1772702884825750000,0.47975,0.0978945570409298,-0.058199383251368995,0.027599370065331457
1772702884835800000,0.489800048828125,0.07279547935873269,-0.052853638309240336,0.06786006878316402
1772702884845850000,0.49985009765625,0.09849339971691369,-0.05848199958503246,0.09429390220046042
1772702884855900200,0.509900146484375,0.1300099432259798,-0.08932225126773119,0.08137538391649722
1772702884865951200,0.519951171875,0.14281594104617834,-0.09566869768500327,0.0713379740267992
1772702884876001000,0.5300009765625,0.13425941736400127,-0.07994915050566195,0.09310673824250698
1772702884886051000,0.540051025390625,0.09787789816707372,-0.08813742539733647,0.10224281537830829
1772702884896101000,0.55010107421875,0.07254559625089169,-0.08723170872926711,0.0822960058927536
1772702884906151200,0.560151123046875,0.06164367848634719,-0.07779138794988394,0.0587286678224802
1772702884916202000,0.570201904296875,0.03397533483803272,-0.08235913425683974,0.03993570454716682
1772702884926252000,0.580251953125,0.055519350387156004,-0.0866334505751729,0.06389291871786117
1772702884936302000,0.590302001953125,0.0792108993589878,-0.10860095223337411,0.09664192663133143
1772702884946352000,0.60035205078125,0.07403583480864763,-0.15290508112311363,0.1575280647486448
1772702884956403200,0.6104033203125,0.07596855643689632,-0.16133447129428385,0.15319208137094972
1772702884966453000,0.620452880859375,0.06655073975026607,-0.15079554162323475,0.11558160490095615
1772702884976503000,0.6305029296875,0.10130319644063711,-0.1225002982482314,0.09434826273620128
1772702884986553000,0.640552978515625,0.09022270723879337,-0.12627514061182737,0.068074588316679
1772702884996604200,0.650604248046875,0.03461275595873594,-0.11000175894200802,0.04552022668123245
1772702885006654200,0.660654296875,0.05738046808391809,-0.09656418522000312,0.0802998636394739
1772702885016704000,0.6707041015625,0.07945756759643555,-0.0989788451462984,0.09212357242405414
1772702885026754000,0.680754150390625,0.07522562911510466,-0.09447627303004265,0.11356149725019932
1772702885036804000,0.69080419921875,0.07769231148958206,-0.09408815049529075,0.12433715828657149
1772702885046855200,0.700855224609375,0.0674947426021099,-0.11184241837263106,0.0977332289993763
1772702885056905200,0.7109052734375,0.042590310709178444,-0.14558540575951337,0.09235738117992877
1772702885066955000,0.720955078125,0.06933920142501593,-0.16110153932124374,0.12159867323338985
1772702885077005000,0.731005126953125,0.1133373331055045,-0.13712620497196912,0.15740531515181064
1772702885087055400,0.741055419921875,0.11858429384827614,-0.09710311440229415,0.11799100413024424
1772702885097105400,0.75110546875,0.07227846974730491,-0.06508242076337337,0.07844809829294681
1772702885107155200,0.7611552734375,0.02204758115708828,-0.08005436444580555,0.07685702970921993
1772702885117205500,0.77120556640625,0.02590834823846817,-0.12100801386386155,0.09691197574436664
1772702885127256300,0.78125634765625,0.039246260978281496,-0.11311404574364423,0.09316577495336532
1772702885137306400,0.791306396484375,0.04093114532530308,-0.10670067157000303,0.07776829933524132
1772702885147356400,0.8013564453125,0.05609831931889057,-0.12859510799199342,0.09136837014257908
1772702885157406200,0.81140625,0.1047413541957736,-0.1247901627510786,0.14516659582555294
1772702885167457300,0.821457275390625,0.10617372508645057,-0.11095599092692136,0.12476269022226333
1772702885177507300,0.83150732421875,0.059084349392354484,-0.095885555306077,0.06497896038889885
1772702885187557400,0.841557373046875,0.0046028176203370096,-0.10592881041467189,0.016718495088815687
1772702885197607400,0.851607421875,-0.061137774790823454,-0.10326105251014232,0.0338584304600954
1772702885207657200,0.8616572265625,-0.06340688876658677,-0.11447598174661397,0.08126900093257426
1772702885217708300,0.871708251953125,-0.013500409825146198,-0.11749591408967971,0.0624538258254528
1772702885227758300,0.88175830078125,0.015841127732396126,-0.12997574869543313,0.06957447148561477
1772702885237808400,0.891808349609375,-0.005860124205052853,-0.13863514823019504,0.0852110165566206
1772702885247858400,0.9018583984375,0.007574819168448448,-0.12573708821237087,0.10384265179038048
1772702885257909500,0.911909423828125,0.03999415673613548,-0.1251364919707179,0.10253332275748252
1772702885267959300,0.921959228515625,0.022703414717316628,-0.1025149103179574,0.033517654198408124
1772702885278009300,0.93200927734375,-0.010752864682674407,-0.08239975852817297,0.04500701646208763
1772702885288059400,0.942059326171875,0.021640753921866415,-0.08589315360188483,0.05983633680343627
1772702885298110500,0.9521103515625,0.027629180681705473,-0.09081336660832166,0.06575754354596137
1772702885308160500,0.962160400390625,0.01658726992458105,-0.07088380051851272,0.04193126227855682
1772702885318210300,0.972210205078125,-0.006114391227066517,-0.062408817639946934,0.05550795221030712
1772702885328260400,0.98226025390625,-0.009761223296821117,-0.06799655464440583,0.01797989332675934
1772702885338310400,0.992310302734375,0.0016281857237219809,-0.06477730033695697,0.021762334474921225
1772702885348361500,1.002361572265625,0.029971359893679616,-0.08920447010695934,0.0234060100287199
1772702885358411500,1.01241162109375,0.010974398478865622,-0.1282379651173949,0.03569616728127002
1772702885368461300,1.02246142578125,0.006215221253037452,-0.1544265916019678,0.03798573952317238
1772702885378511400,1.032511474609375,0.014530629655718802,-0.16153613134622574,0.04111643876433372
1772702885388562400,1.0425625,-0.006045125383138656,-0.15204261907488106,0.05612929897904396
1772702885398612500,1.052612548828125,-0.013591302978992461,-0.11745119816511869,0.04880991587638855
1772702885408662300,1.062662353515625,-0.0027530981004238128,-0.07324205408245325,0.019884850165247915
1772702885418712300,1.07271240234375,-0.007293956400454044,-0.05966331832408905,0.006603343787789344
1772702885428763400,1.082763427734375,-0.0334229616522789,-0.08806319111734628,-0.011162030005455017
1772702885438813400,1.0928134765625,-0.0204302090883255,-0.11411036330461502,-0.005200491252541542
1772702885448863500,1.102863525390625,-0.004494973331689835,-0.10090338346809148,0.0269745161652565
1772702885458913300,1.112913330078125,0.05053951614797115,-0.10025310286581515,0.015814239725470542
1772702885468963300,1.12296337890625,0.02211713926196098,-0.07918108874261379,0.058869537597894664
1772702885479014400,1.133014404296875,0.006309329277276993,-0.07351327223926782,0.06539163284301758
1772702885489064400,1.143064453125,0.007915303169190884,-0.08120207317620515,0.08688917890191078
1772702885499114500,1.153114501953125,-0.0008165770798921585,-0.05299392356276512,0.05877309148609638
1772702885509164300,1.163164306640625,-0.002854220387339592,-0.02694529007077217,0.042753100055456156
1772702885519215400,1.17321533203125,-0.013250818978250025,-0.01472206057459116,0.055549453264474864
1772702885529265400,1.183265380859375,0.012952128292620182,-0.02669131530970335,0.06843348475694656
1772702885539315500,1.1933154296875,0.0459188706099987,-0.007241349430382251,0.07490472659766674
1772702885549365500,1.203365478515625,0.04757189851403236,0.01866203037202358,0.058745034435391426
1772702885559416600,1.21341650390625,0.04768588028252124,0.0008718143984675407,0.04867430679798126
1772702885569466400,1.22346630859375,0.03915887495577335,-0.017622165930271147,0.06425123063623905
1772702885579516400,1.233516357421875,0.056090720534324644,-0.027020108872652052,0.06429214716851711
1772702885589566500,1.24356640625,0.05033493348658084,-0.004769406358897685,0.05369768791794777
1772702885599616500,1.253616455078125,0.035330548839271066,0.0035009938582777973,0.019342998373508453
1772702885609667600,1.26366748046875,0.0180120420306921,-0.02518850953131914,0.055469373765587804
1772702885619717400,1.27371728515625,0.03328559900820255,-0.04737725272476673,0.10749006838202475
1772702885629767400,1.283767333984375,0.07970014418065548,-0.03481237018406391,0.0893628755390644
1772702885639817500,1.2938173828125,0.04031915090680122,-0.03420797455012798,0.04377367527484893
1772702885649868500,1.30386865234375,-0.04468114550858736,-0.034625907701253886,0.023557985720038414
1772702885659918600,1.313918701171875,-0.06576251198202371,-0.07941723558604717,0.02427051790356636
1772702885669968400,1.323968505859375,-0.019269933137297628,-0.09134382022321223,0.05311082794070243
1772702885680018400,1.334018310546875,0.02896072154641151,-0.0675885583654046,0.0724316144824028
1772702885690069500,1.344069580078125,0.022661329141259193,-0.08983692279160022,0.07264145784080028
1772702885700119600,1.35411962890625,0.002942483192682266,-0.09105068249553441,0.07668518027365208
1772702885710169300,1.36416943359375,0.007094342175126075,-0.06261544612795114,0.05756897639334201
1772702885720219400,1.374219482421875,0.01722644461095333,-0.07214519875645638,0.043000352814793585
1772702885730269400,1.38426953125,-0.017384850043058394,-0.07860007398426533,0.032788755401968954
1772702885740320500,1.394320556640625,-0.026292963641881942,-0.08476444183290004,0.06861760915219783
1772702885750370600,1.40437060546875,-0.013876549661159514,-0.10299480278939008,0.05040449159145355
1772702885760420400,1.41442041015625,0.008994038316607474,-0.11262772353142499,0.04366553872525692
1772702885770470400,1.424470458984375,0.003495440900325775,-0.1047650273323059,0.03765490013360977
1772702885780521500,1.434521484375,-0.003587795358896255,-0.11015724176466464,0.05009060333669185
1772702885790571500,1.444571533203125,-0.037628596648573875,-0.12928045990765094,0.06868775177896022
1772702885800621600,1.45462158203125,-0.06074409929811954,-0.15726649120301006,0.07928338007330894
1772702885810671400,1.46467138671875,-0.0390694431066513,-0.12895517347604035,0.05028992530107498
1772702885820721400,1.474721435546875,-0.03547872513830662,-0.09313771790266036,0.01772328821718693
1772702885830772500,1.4847724609375,0.008157879753410816,-0.0862830297023058,-0.001959317374229431
1772702885840822500,1.494822509765625,0.031436756271123883,-0.09840133751928806,-0.004303250151872635
1772702885850872600,1.50487255859375,0.028140052813291547,-0.12225538357645273,0.00680091218650341
1772702885860922400,1.51492236328125,0.016147417202591895,-0.1349482764109969,0.03384031028151512
1772702885870973400,1.524973388671875,0.0157660166695714,-0.14046294817924498,0.04879413378536701
1772702885881023500,1.5350234375,0.040750235800445074,-0.10630728833824396,0.07158055061101913
1772702885891073500,1.545073486328125,0.024949147817492485,-0.09325345323681831,0.05566928025186062
1772702885901123600,1.55512353515625,0.020189093808829783,-0.09279957198947668,0.05824585274159908
1772702885911174700,1.565174560546875,0.027074761669337748,-0.06944938380122184,0.04360007227361202
1772702885921224400,1.575224365234375,0.0811503429889679,-0.06340630424469709,0.06643091276288032
1772702885931274500,1.5852744140625,0.09975888960808516,-0.06007102234214544,0.06106617085933685
1772702885941324500,1.595324462890625,0.05843406879007816,-0.06083762280046939,0.02523088736832142
1772702885951374600,1.60537451171875,0.058710839904844755,-0.059903849081695076,0.025513795962929724
1772702885961425700,1.61542578125,0.07201952655017375,-0.05933598606586456,0.06660685385167599
1772702885971475500,1.625475341796875,0.08789806368350982,-0.06731295629441737,0.07162380523085594
1772702885981525500,1.635525390625,0.10006956299245356,-0.051044835321605204,0.0433832146525383
1772702885991575600,1.645575439453125,0.06361527082026004,-0.055527533693611617,0.06602993074655532
1772702886001626400,1.65562646484375,0.04384849407672882,-0.04369593386352062,0.08838497041761875
1772702886011676700,1.6656767578125,0.0761439130038023,-0.014201543831825255,0.038406595283746715
1772702886021726500,1.6757265625,0.1157271508514881,-0.000675122782588005,0.05046177473664284
1772702886031776500,1.685776611328125,0.0822109579578042,0.006780746181309223,0.045994858455657955
1772702886041827300,1.695827392578125,0.02756137614250183,-0.00832154588252306,0.06732756934165954
1772702886051877400,1.70587744140625,0.010465864434838294,-0.017488894939422607,0.09618483051359653
1772702886061927400,1.715927490234375,0.017059855872392653,-0.015400398227572441,0.09341302771270274
1772702886071977500,1.7259775390625,0.014603110370039939,-0.0261225755110383,0.09830313784182071
1772702886082027500,1.736027587890625,0.023047113588452336,-0.04442337135523557,0.11312953557372092
1772702886092078300,1.746078369140625,0.03903086466193199,-0.030382571043074128,0.09816694424152374
1772702886102128400,1.75612841796875,0.025761633244156836,-0.016598960362374782,0.07970014418065548
1772702886112178700,1.7661787109375,0.03740150989443063,-0.02177168682515621,0.03789981480538845
1772702886122228700,1.776228759765625,0.06810849058628082,-0.041060616923868656,0.004992401459813118
1772702886132279600,1.786279541015625,0.08758651351630688,-0.0500841735959053,0.04184475303888321
1772702886142329300,1.796329345703125,0.09491174183785915,-0.0397512878909707,0.044831075373291965
1772702886152379400,1.80637939453125,0.07161386835873126,-0.03815817348062992,0.057125908800959586
1772702886162429700,1.8164296875,0.07103197681754828,-0.05057604876607656,0.04630816218852996
1772702886172479700,1.826479736328125,0.09307049788534641,-0.06515227112919092,0.05996434709727764
1772702886182530600,1.836530517578125,0.1025344918012619,-0.0580225653797388,0.07517477571070194
1772702886192580400,1.846580322265625,0.07105097377896308,-0.0706432697609067,0.09318915582895278
1772702886202630400,1.85663037109375,0.06104980424642562,-0.07739128271639346,0.1048129581272602
1772702886212680700,1.8666806640625,0.03653495619297027,-0.0958005073711276,0.08196399745941162
1772702886222731500,1.8767314453125,0.034193946024775504,-0.10727467206567526,0.11912322303056716
1772702886232781600,1.886781494140625,0.05572539435327053,-0.10763707563728094,0.14024375247061252
1772702886242831400,1.896831298828125,0.06444295381605625,-0.09258154532462358,0.12822072172164917
1772702886252881400,1.90688134765625,0.07759148146361113,-0.09114595956355333,0.09955752181708812
1772702886262932500,1.916932373046875,0.058631637188792225,-0.08878186078071594,0.0824175864458084
1772702886272982500,1.926982421875,0.08694237039387226,-0.10867138712108135,0.08922083671987056
1772702886283032600,1.937032470703125,0.08866466414183377,-0.1609992479905486,0.10088964720368385
1772702886293082400,1.947082275390625,0.1180371813595295,-0.2033326613292098,0.10183365005552768
1772702886303132400,1.95713232421875,0.16955343358516692,-0.20205168160796164,0.12739245420396328
1772702886313183500,1.96718359375,0.1722819817662239,-0.18344751890301703,0.15775661280751227
1772702886323233500,1.977233642578125,0.1063049502506852,-0.22357553115189074,0.13315057933926583
1772702886333283600,1.98728369140625,0.05002192201465368,-0.19290303725153207,0.12195172445476055
1772702886343333400,1.99733349609375,0.07011690779924393,-0.15686872405707836,0.1023252329647541
1772702886353384400,2.007384521484375,0.10893968266844749,-0.12333674907237291,0.12143033092916011
1772702886363434500,2.0174345703125,0.0896335091739893,-0.09260726428776979,0.15728724173009395
1772702886373484500,2.027484619140625,0.05935819789767265,-0.07853753014206886,0.16238894878327845
1772702886383534600,2.03753466796875,0.055768064451217646,-0.07169745498895645,0.1493424202054739
1772702886393584400,2.04758447265625,0.10061462965458631,-0.0625733605518937,0.09544774841070175
1772702886403635500,2.057635498046875,0.1185375320971012,-0.05964227553606033,0.05734042833447456
1772702886413685500,2.067685546875,0.1478667946949601,-0.06405336997658014,0.038116087904572486
1772702886423735600,2.077735595703125,0.145584236715734,-0.026081951239705085,0.06628653585612773
1772702886433785300,2.087785400390625,0.11149287428259849,-0.015347791257500647,0.06571662701368332
1772702886443836400,2.09783642578125,0.06547989564836025,0.031608021184802056,0.08851531879901886
1772702886453886500,2.107886474609375,-0.016331833858788013,0.018191490250825882,0.07914309481978415
1772702886463936500,2.1179365234375,-0.09483663077503442,0.023386720806360242,0.059757426348328584
1772702886473986600,2.127986572265625,-0.1884369977533817,0.10750701951682567,0.0483937362909317
1772702886484036400,2.138036376953125,-0.17408406275212765,0.10594196215718985,0.01042377885878086
1772702886494087400,2.14808740234375,-0.12349778485298156,0.0414139604061842,0.011560673934221267
1772702886504137500,2.158137451171875,-0.05787994203865528,0.023512977534532544,0.048560325029492375
1772702886514187500,2.1681875,0.034788404786586756,0.06632482203990221,0.09636544777750969
1772702886524237600,2.178237548828125,0.04757540564537048,0.22461305750608443,0.06346329512894153
1772702886534288600,2.18828857421875,0.09126023359298706,-0.08194237014949321,-0.07685586066544055
1772702886544338400,2.19833837890625,0.1503571502059698,-0.26741993357539173,0.2944400424480438
1772702886554388500,2.208388427734375,0.3401151674300432,-0.0647822687730193,-0.07882102325856685
1772702886564438500,2.2184384765625,0.4129360734909773,-0.012684709528088568,-0.08447919515073299
1772702886574488600,2.228488525390625,0.2718482714116573,0.04604249698966741,0.0005284077882766723
1772702886584539600,2.23853955078125,0.10350772074759006,0.036578503073751926,-0.0503062919139862
1772702886594589400,2.24858935546875,0.05396978285759687,0.013863397918641567,-0.055281157717108724
1772702886604639500,2.258639404296875,0.027943653458356855,0.041922494450211525,-0.03323708369135856
1772702886614689500,2.268689453125,0.0034019173979759213,0.0659440060287714,-0.00400280590057373
1772702886624740600,2.27874072265625,0.04569149159491062,0.06553045679181814,-0.0235322667568922
1772702886634790700,2.288790771484375,0.15230594618618487,0.019282208096981047,0.0517225884526968
1772702886644840400,2.29884033203125,0.2684475230574608,-0.040965924377739424,0.13025602694153784
1772702886654890500,2.308890380859375,0.21918226462900636,-0.03215542593449354,0.2312771915704012
1772702886664940500,2.3189404296875,0.09485124382227658,0.03413637061864137,0.26948797202110286
1772702886674991600,2.32899169921875,0.04074117571115494,0.015395137530565262,0.15577566812336444
1772702886685041700,2.339041748046875,-0.011117606341838835,-0.032089082700014114,0.16454232742488384
1772702886695091500,2.349091552734375,0.03045885114967823,-0.037651685263216494,0.15293839887082575
1772702886705141500,2.3591416015625,0.07353460728824138,-0.04398439541608095,0.17081074016988276
1772702886715192600,2.369192626953125,0.04915010761618614,0.002531564304232597,0.3408101639568806
1772702886725242600,2.37924267578125,0.037815059131383895,-0.015699965696036815,0.3417839774250984
1772702886735292700,2.389292724609375,0.030711656866967675,0.03731587743759155,0.3630500528156757
1772702886745342500,2.399342529296875,0.0644385699018836,-0.1330687462747097,0.12535013472139836
1772702886755392500,2.409392578125,0.02574351306557655,-0.17404986822158097,0.11736731927394867
1772702886765443600,2.419443603515625,0.11471475893855095,-0.29421617056429383,-0.07950140673816204
1772702886775493600,2.42949365234375,0.08274258061647415,-0.2057832693517208,0.1431342132151127
1772702886785543400,2.43954345703125,0.05788111108243465,-0.10326689772903919,0.10056114590167999
1772702886795593500,2.449593505859375,-0.009431845211982726,-0.09968523984998463,0.11642097833454608
1772702886805644500,2.45964453125,0.004381576085090637,-0.09737637838572263,0.1484013399630785
1772702886815694600,2.469694580078125,-0.01288461601436138,-0.034433892260491844,0.23441139794290064
1772702886825744600,2.47974462890625,0.016329203510284423,-0.03399316275566816,0.11956044540405272
1772702886835794400,2.48979443359375,-0.026319851648807523,-0.13802490737736225,0.030052023914456365
1772702886845845500,2.499845458984375,-0.002526303607225418,-0.24840602102577686,-0.08981061930656432
1772702886855895600,2.5098955078125,-0.0014268179327249525,-0.30737989578098057,-0.07941139036715031
1772702886865945600,2.519945556640625,-0.028262802410125732,-0.2282321247860789,-0.0028442835152149197
1772702886875995600,2.52999560546875,0.027555530923604965,-0.18448387621343135,-0.017977555239200593
1772702886886045400,2.54004541015625,-0.021131050834059716,-0.09398410559892655,0.06845569658875465
1772702886896096500,2.550096435546875,0.02570610366463661,-0.16694120526015757,-0.007855974197387695
1772702886906146600,2.560146484375,-0.04496083923280239,-0.15448299796432255,0.024534137275815007
1772702886916196600,2.570196533203125,-0.02935468930006027,-0.2336544420957565,-0.17993103521466255
1772702886926246700,2.58024658203125,-0.0826423351123929,-0.24708090990185735,-0.12377601727247238
1772702886936297700,2.590297607421875,-0.12136077282428741,-0.14775573553591967,-0.020073066213726995
1772702886946347500,2.600347412109375,-0.07810089229047298,-0.04833236149251461,0.05839665938913822
1772702886956397600,2.6103974609375,-0.004665653723478317,-0.032928456133604046,0.12725392251610756
1772702886966447600,2.620447509765625,0.04411971223354339,-0.05269669418185949,0.1878624127358198
1772702886976497700,2.63049755859375,0.13554653456509114,-0.09422492861747742,0.1248030222326517
1772702886986548700,2.640548828125,0.2120055048674345,-0.09970511359423398,-0.05343523758947849
1772702886996598500,2.6505986328125,0.21077742437720298,-0.1515291165947914,-0.2148755073457956
1772702887006648600,2.660648681640625,0.09739829795658587,-0.18736118521541356,-0.1792313625127077
1772702887016698600,2.67069873046875,-0.017737316742539404,-0.08689970029592514,-0.06828676976263523
1772702887026748700,2.680748779296875,-0.06986205625534057,-0.024197160406410692,0.02479775664806366
1772702887036799700,2.6907998046875,-0.07707710220068693,-0.014202128353714942,0.08216331942379475
1772702887046849500,2.700849609375,-0.019238661216199396,-0.0038204350709915157,0.155576930680871
1772702887056899600,2.710899658203125,0.03783960905075073,-0.02280599830895662,0.21957973951399326
1772702887066949600,2.72094970703125,0.09073591745793819,-0.019308511582016945,0.18036708854436873
1772702887077000700,2.731000732421875,0.113884737855196,-0.01194090542346239,0.13504852191507816
1772702887087050000,2.741050048828125,0.09596475802212953,-0.03368745780736208,0.14475275432765483
1772702887097100000,2.75110009765625,0.12732874131798744,-0.03576777121275663,0.1413987677246332
1772702887107150000,2.761150146484375,0.08551087628602981,-0.05974924304187298,0.09545359362959861
1772702887117200100,2.7712001953125,0.07899579530358314,-0.1009305637359619,0.06636310822367668
1772702887127251200,2.781251220703125,0.12125146723091601,-0.15127835670411585,0.024854455271363256
1772702887137301000,2.791301025390625,0.1525526144236326,-0.18932605554759502,-0.020550620597600936
1772702887147351000,2.80135107421875,0.14375439094007014,-0.1952200820222497,0.033791210442781446
1772702887157401000,2.811401123046875,0.18056991764008998,-0.22420856835842132,0.06541735180616379
1772702887167452200,2.8214521484375,0.18303250836133955,-0.19382044435739515,0.12158698279559611
1772702887177502200,2.831502197265625,0.18778993202149866,-0.13195610885769127,0.13463877207040786
1772702887187552000,2.841552001953125,0.114433019387722,-0.12167232299149036,0.1828653351008892
1772702887197602000,2.85160205078125,0.06449205365478992,-0.11234656850248574,0.2340606848090887
1772702887207652000,2.861652099609375,0.03725742524862289,-0.1322539227604866,0.260628958261013
1772702887217703200,2.871703125,0.020602058523893355,-0.1129214457809925,0.22396248464286325
1772702887227753200,2.881753173828125,0.015645897421240805,-0.10284691875129938,0.14606734405755994
1772702887237803000,2.891802978515625,0.031977439019083974,-0.0960205798625946,0.056390580263733864
1772702887247853000,2.90185302734375,0.060466451400518414,-0.06765431707799434,0.03291501213014126
1772702887257904000,2.911904052734375,0.08174480175077915,-0.045620179924368856,0.0017301847934722899
1772702887267954200,2.9219541015625,0.06596241846829652,-0.047264147739112375,-0.013897592449188232
1772702887278004200,2.932004150390625,-0.0156330379396677,-0.047401510383188725,-0.003601239362359047
1772702887288054000,2.942053955078125,-0.03550824349373579,-0.0780693281084299,-0.022650807747244834
1772702887298104000,2.95210400390625,-0.06263035143613815,-0.09491232635974883,-0.022137013006210324
1772702887308155100,2.962155029296875,-0.025415011763572692,-0.06119125854372978,-0.0001876315265893936
1772702887318205200,2.972205078125,-0.017107786667346952,-0.05330547372996807,-0.02481120065152645
1772702887328255000,2.9822548828125,0.011817863565683364,-0.04057634053826332,-0.006937690308690071
1772702887338305000,2.992304931640625,0.05428747050464153,-0.028763737669587133,-0.010471125131845473
1772702887348356000,3.002356201171875,0.03985708635300397,-0.047104573263227936,-0.012904489758610724
1772702887358406100,3.01240625,0.027780864112079143,-0.06070347502678632,-0.05221358684003353
1772702887368456200,3.022456298828125,-0.004138999500870704,-0.06628945846557617,-0.0456400536686182
1772702887378506000,3.032506103515625,-0.039057752668857575,-0.09005904110968112,-0.003715221130847931
1772702887388556000,3.04255615234375,-0.02456862406730652,-0.11153466759771108,0.056928924924135205
1772702887398607000,3.052607177734375,0.00253448691368103,-0.08441489774286746,0.1042377885878086
1772702887408657200,3.0626572265625,0.008991992489993572,-0.0792263891890645,0.1405932965606451
1772702887418707200,3.072707275390625,-0.009389175114035605,-0.06358925959616898,0.1400567054659128
1772702887428757000,3.082757080078125,0.02834872712790966,-0.03912058877199888,0.14105156172215938
1772702887438808000,3.09280810546875,0.05326572624146938,-0.03712561556249857,0.1318967798858881
1772702887448858000,3.102858154296875,0.057735857392847534,0.01758241844177246,0.09205635240674018
1772702887458908200,3.112908203125,0.03138122669160366,0.026356968788802622,0.05610767166912555
1772702887468958200,3.122958251953125,-0.018466800060868264,0.007145195579528808,0.018010872986912726
1772702887479008000,3.133008056640625,-0.044508127029240126,0.0076256725728511806,0.045428456744551655
1772702887489059000,3.14305908203125,-0.0047165071278810495,-0.005551496647298336,0.04703589194118976
1772702887499109000,3.153109130859375,0.04935790514796972,-0.01185030453056097,0.04875497081875801
1772702887509159200,3.1631591796875,0.08689794673025608,-0.033976503881812094,-0.010461188259720802
1772702887519209200,3.173209228515625,0.04242927492856979,-0.04919073188751936,-0.016762334230542183
1772702887529259000,3.183259033203125,-0.0144523037225008,-0.04603139107376337,0.03296703457832336
1772702887539310000,3.19331005859375,-0.061461015395820134,-0.07990121971070765,0.08739829746782779
1772702887549360000,3.203360107421875,-0.048558571463823315,-0.03931728038787841,0.06728957541882992
1772702887559410200,3.21341015625,-0.03581131809353828,-0.04329056793302297,0.032169162198901174
1772702887569460200,3.223460205078125,-0.0020896657556295395,-0.019526830507814882,0.01811959405839443
1772702887579511000,3.233510986328125,-0.022547347372770307,-0.004402034351229668,-0.01285071374475956
1772702887589561000,3.24356103515625,-0.037655484655499456,-0.007221475686132907,-0.0373965414583683
1772702887599611100,3.253611083984375,-0.05883592758923769,-0.018253157310187815,-0.026077275064587593
1772702887609661200,3.2636611328125,-0.02547697108387947,-0.02470569445043802,-0.025243746849894524
1772702887619711200,3.273711181640625,0.020239070430397986,-0.03869651814103126,0.030065467917919156
1772702887629762000,3.283761962890625,0.023065233767032622,-0.04198883768469095,0.04706511803567409
1772702887639812000,3.29381201171875,0.035057869377732274,-0.04619067328870296,0.04471124838590622
1772702887649862100,3.303862060546875,0.016197101563215254,-0.056039282608032225,0.038735681107640266
1772702887659912200,3.313912109375,0.014110942938923834,-0.042271454018354415,0.024269933381676673
1772702887669963000,3.323962890625,-0.0033183307677507397,-0.01769581568837166,0.033037177205085755
1772702887680013000,3.334012939453125,0.010628069259226321,-0.02277384960502386,0.02892155857980251
1772702887690063000,3.34406298828125,0.03863689690828323,-0.021694822196662425,0.05245850151181221
1772702887700113200,3.354113037109375,0.058603872399032114,-0.018742402131855487,0.03234159615635872
1772702887710163200,3.3641630859375,0.07375760238915681,-0.0122933721229434,0.04714461301267147
1772702887720214000,3.374214111328125,0.042078269533812995,-0.01612023693472147,0.039437691897153855
1772702887730264000,3.38426416015625,0.01441138719022274,0.0007809212446212769,0.04862696052491665
1772702887740314000,3.394314208984375,-0.002305938854813576,0.012671265524625778,0.02977028436362743
1772702887750364200,3.4043642578125,0.008080430603027343,0.01330342594832182,0.042377837002277374
1772702887760415000,3.4144150390625,0.012459668600559234,-0.01926730278879404,0.02278992395699024
1772702887770465000,3.424465087890625,0.056022915995121,0.009542319849133491,0.015567571488022803
1772702887780515000,3.43451513671875,0.06979542075991631,-0.01538344709277153,0.007806289836764335
1772702887790565000,3.444565185546875,0.06631576195061206,-0.024498189179599283,0.04889291798472404
1772702887800615200,3.454615234375,0.06960749697238207,-0.03384907810986042,0.06382452965676784
1772702887810666000,3.464666015625,0.07182984919697046,-0.0476747743666172,0.02841886975467205
1772702887820716000,3.474716064453125,0.0956459013313055,-0.07301175245791673,0.0005664017111063003
1772702887830766000,3.48476611328125,0.0930813115403056,-0.08415507776290178,-0.029031448695063588
1772702887840816000,3.494816162109375,0.08010112619698047,-0.07353519181013107,-0.0219072959035635
1772702887850866200,3.5048662109375,0.037650808480381964,-0.06051321315169334,0.010723638588190079
1772702887860917000,3.5149169921875,0.040056408317387104,-0.06927168914675712,0.07129705749452114
1772702887870967000,3.524967041015625,0.05449439125359058,-0.05713701471686363,0.0796381848603487
1772702887881017000,3.53501708984375,0.054901218488812444,-0.060273266915976995,0.08658288943171501
1772702887891067100,3.545067138671875,0.06101297936737537,-0.06103782154768705,0.06759411132335662
1772702887901118000,3.555117919921875,0.07325637486875057,-0.07122428451925515,0.07553074954152107
1772702887911168000,3.56516796875,0.05691138926744461,-0.08335486729592084,0.07708499324619769
1772702887921218000,3.575218017578125,0.0536284220740199,-0.09337532605081796,0.06568915448486805
1772702887931268000,3.58526806640625,0.052938393983244895,-0.1088520043849945,0.05583762255609035
1772702887941318100,3.595318115234375,0.0660439592719078,-0.13259616032689808,0.07900339408814906
1772702887951369000,3.605368896484375,0.07867021661102772,-0.13356003692299126,0.10414368056356907
1772702887961419000,3.6154189453125,0.09367138638794421,-0.1158162904396653,0.13815174862742424
1772702887971469000,3.625468994140625,0.08971037380248308,-0.09889701208174229,0.13441782279610634
1772702887981519000,3.63551904296875,0.08528203596621751,-0.08681874401420354,0.09008768268227577
1772702887991569200,3.645569091796875,0.046211716076731676,-0.05824234561026096,0.04611234735548496
1772702888001620000,3.655619873046875,0.007101356437802314,-0.04861731591373682,0.038705870491266246
1772702888011670000,3.665669921875,0.0089057755112648,-0.07229308279454708,0.030410335832834243
1772702888021720000,3.675719970703125,0.04635375489592552,-0.05629793354421854,0.03633388066291809
1772702888031770000,3.68577001953125,0.06726210289001465,-0.03099251963496208,0.04675882856547832
1772702888041821000,3.695821044921875,0.06496054794937371,-0.048130701440572736,0.055934653189778326
1772702888051871000,3.70587109375,0.06115618723034858,-0.06666179890930653,0.0731195967465639
1772702888061921000,3.715921142578125,0.06490121897757054,-0.06371171693205833,0.054015083304047584
1772702888071970800,3.725970703125,0.04577215561568737,-0.06256371594071387,0.012552023059129714
1772702888082021000,3.736021240234375,0.02365092470049858,-0.047047874639928336,-0.006086041915416717
1772702888092072000,3.746072021484375,0.0135112234801054,-0.07298778706043958,0.045920039653778076
1772702888102122000,3.7561220703125,0.0009480945050716399,-0.06906330709308385,0.07370937933325768
1772702888112172000,3.766172119140625,0.024264088162779807,-0.10415420195758342,0.08485679629147053
1772702888122221800,3.776221923828125,0.0351829570621252,-0.09806582195460796,0.07623276033103465
1772702888132273000,3.78627294921875,0.028075170883536338,-0.10747107142060995,0.08958265576958656
1772702888142323000,3.796322998046875,0.04113572798669338,-0.11008096165806054,0.08959083907604216
1772702888152373000,3.806373046875,0.04531798210740089,-0.08855974246263504,0.07503332141339779
1772702888162423000,3.816423095703125,0.05068301627188921,-0.08333645485639572,0.07589841381013393
1772702888172472800,3.826472900390625,0.017648469415307046,-0.08950783696770667,0.10205401480793952
1772702888182524000,3.83652392578125,-0.0009843348622322083,-0.080698799829185,0.09802198281288146
1772702888192574000,3.846573974609375,-0.023966566520929336,-0.08830021474361419,0.09696633628010749
1772702888202624000,3.8566240234375,-0.019772914223372934,-0.09538608135133982,0.080204586571455
1772702888212674000,3.866674072265625,0.02946633298099041,-0.10067308184355497,0.0725666390389204
1772702888222723800,3.876723876953125,0.06332417891919613,-0.06837357126325369,0.054662733557820316
1772702888232775000,3.88677490234375,0.06737579239755868,-0.05591682527214288,0.04230769437551498
1772702888242825000,3.896824951171875,0.07427022808641195,-0.05861790092438459,0.04133563447296619
1772702888252875000,3.906875,0.037464638258516786,-0.06632482203990221,0.03844984990358352
1772702888262925000,3.916925048828125,0.02887538135051727,-0.07902794400751591,0.025765140375494957
1772702888272976100,3.92697607421875,0.006934183177351951,-0.0736710931494832,0.03074409783184528
1772702888283026000,3.93702587890625,-0.0038619361251592634,-0.05812427218854427,0.02731470790505409
1772702888293076000,3.947075927734375,0.0015144962161779403,-0.0572732083171606,0.025190555357933044
1772702888303126000,3.9571259765625,-0.0020157237365841865,-0.060410629560053344,0.011552490627765654
1772702888313176000,3.967176025390625,-0.007360299634933471,-0.07727817773073911,0.046453708139061925
1772702888323227100,3.97722705078125,0.008198504024744034,-0.09150748635232447,0.053612347722053526
1772702888333277000,3.98727685546875,0.0337888723552227,-0.08106880218535661,0.03713409112989902
1772702888343327000,3.997326904296875,0.04982055422365665,-0.04746668457388878,0.011754150679707526
1772702888353377000,4.007376953125,0.05913987897187471,-0.052960605815052984,-0.006106500181555748
1772702888363428000,4.017427978515625,0.04786123684942722,-0.08629472014009952,-0.008825696012377739
1772702888373478100,4.02747802734375,0.03399170145094395,-0.07244564300775527,0.019675591328740118
1772702888383528000,4.03752783203125,0.024071195939183235,-0.06611234833300113,0.03923720088899135
1772702888393578000,4.047577880859375,0.0395358915746212,-0.05415507629662752,0.04549509223997593
1772702888403628000,4.0576279296875,0.04181815729290247,-0.07308627899885177,0.057743163916468616
1772702888413679000,4.06767919921875,-0.0008180383846163749,-0.07748860561102629,0.023805823001265526
1772702888423729000,4.07772900390625,-0.01229600247144699,-0.08385404898971319,0.04377309075295925
1772702888433779000,4.087779052734375,-0.0013324176475405691,-0.09808803378641605,0.037224692022800446
1772702888443829000,4.0978291015625,0.024749825853109357,-0.08788403515815735,0.008951368218660355
1772702888453879000,4.107879150390625,0.028207272830605506,-0.07378975109308958,-0.025403905847668645
1772702888463930000,4.11793017578125,0.016502806511521338,-0.0771437376961112,-0.03625321664214134
1772702888473980000,4.12797998046875,0.012740823629498481,-0.0875698546424508,-0.025530747097730636
1772702888484030000,4.138030029296875,0.05140168593525886,-0.07529168008863925,0.01584872651696205
1772702888494080000,4.148080078125,0.05535422295331954,-0.09106997171789408,0.04903028062880039
1772702888504130000,4.158130126953125,0.06802315039038657,-0.07725684268176555,0.06480360382199286
1772702888514181000,4.16818115234375,0.09251520209014415,-0.06418167253136635,0.04847030865848064
1772702888524231000,4.17823095703125,0.0885769858583808,-0.05957125612646341,0.02358078207373619
1772702888534281000,4.188281005859375,0.010165712444484233,-0.050693829926848406,0.023738602983951567
1772702888544331000,4.1983310546875,-0.022625381045043465,-0.051390580019354815,0.04080547311902046
1772702888554382000,4.208382080078125,0.005465279668569564,-0.020843466064333915,0.03963409125208855
1772702888564432100,4.21843212890625,0.03117459820359945,-0.014380992051959036,0.04579845910072326
1772702888574482000,4.22848193359375,0.039055999103188514,-0.039109190595149994,0.07450666719079017
1772702888584532000,4.238531982421875,0.03018821751475334,-0.03459229769259691,0.08304887008666992
1772702888594582000,4.24858203125,0.03196574858129024,-0.008952245001494883,0.08387129238545894
1772702888604633000,4.258633056640625,0.021379472637176513,0.006736614778637886,0.07465864288210869
1772702888614683100,4.26868310546875,-0.0046820203363895415,-0.00900952814668417,0.07275602413117885
1772702888624733000,4.27873291015625,-0.012890168972313404,-0.027651392513513562,0.049424832904338835
1772702888634783000,4.288782958984375,-0.039033202749490736,-0.05310293689519167,0.05008943429291248
1772702888644833000,4.2988330078125,-0.008990531185269355,-0.05030541513115167,0.04841828621029853
1772702888654884000,4.308884033203125,-0.03367313702106475,-0.054390346357226366,0.043482583373785015
1772702888664934100,4.31893408203125,-0.021094225955009458,-0.0626569471821189,0.03847206173539162
1772702888674984000,4.32898388671875,-0.01794365296959877,-0.047209494942426676,0.024376900887489318
1772702888685034000,4.339033935546875,-0.02302782436609268,-0.026994682170450687,0.02734744113087654
1772702888695085000,4.3490849609375,-0.03559621403813362,-0.0439057772219181,0.041266660889983174
1772702888705135000,4.359135009765625,-0.06307254224568605,-0.04131780655533075,0.04944003047347068
1772702888715185200,4.36918505859375,-0.08325111466050147,-0.05294716181159019,0.03949965121746063
1772702888725235000,4.37923486328125,-0.07750584900677204,-0.07144727962017058,0.02140752968788147
1772702888735285000,4.389284912109375,-0.06031739831864834,-0.05667699598968029,-0.041941199150681494
1772702888745336000,4.399336181640625,-0.061434419649839395,-0.08386866203695535,0.015401567271351814
1772702888755386000,4.40938623046875,-0.05624591109603643,-0.06169657771736383,0.04330196610987186
1772702888765436200,4.419436279296875,-0.0634954438328743,-0.033465631750226016,0.04738777411878109
1772702888775486000,4.42948583984375,-0.09269991100728511,-0.006436755049228668,0.03154255473315715
1772702888785536000,4.439535888671875,-0.10350479813814163,-0.03235211755037307,0.046754736912250516
1772702888795587000,4.449587158203125,-0.10001052628159522,-0.06393383525013924,0.0838642781227827
1772702888805637000,4.45963720703125,-0.07526654564738273,-0.07195347557663917,0.1032879405170679
1772702888815687000,4.46968701171875,-0.029598142667114732,-0.07790741554498672,0.05634849468767643
1772702888825737000,4.479737060546875,-0.01701864707916975,-0.07801701339930295,0.05726619405448436
1772702888835788000,4.4897880859375,-0.006922200478613376,-0.10597118825167418,0.037192543318867684
1772702888845838000,4.499838134765625,-0.02670826644450426,-0.12013093876838683,-0.010108137038350104
1772702888855888100,4.50988818359375,-0.017682956206798554,-0.11538579006791114,-0.02013970170915127
1772702888865938000,4.51993798828125,0.03356850760281086,-0.10427841285914181,-0.016063830572366714
1772702888875988000,4.529988037109375,0.0531909074395895,-0.08511018653064965,-0.022108371433615683
1772702888886039000,4.5400390625,0.07835632835626602,-0.08053454917818308,0.009445873737335204
1772702888896089000,4.550089111328125,0.0667258040562272,-0.07565262235552073,0.025585692155361175
1772702888906139100,4.56013916015625,0.041155017209053034,-0.0844637053206563,0.021464812833070755
1772702888916189000,4.57018896484375,0.016532617127895353,-0.08119038273841142,0.011466565909981727
1772702888926239000,4.580239013671875,0.001364274090528488,-0.06900076325088739,0.026643092253804207
1772702888936290000,4.5902900390625,0.0026519758135080335,-0.05785773020684719,0.03194353674948215
1772702888946340000,4.600340087890625,0.012707505881786346,-0.04172112665921449,0.012794599643349646
1772702888956390100,4.61039013671875,0.018270985227823257,-0.03116729167997837,-0.005362988337874412
1772702888966440000,4.62043994140625,0.020837620845437048,0.013688625873625277,-0.010443068081140518
1772702888976491000,4.630490966796875,-0.0006523264288902282,0.029119711500406265,0.003852583774924278
1772702888986541000,4.640541015625,0.012599369332194327,0.05357201571166515,0.015676292559504507
1772702888996591000,4.650591064453125,0.04697714749127626,0.05909603983014822,0.029798341414332387
1772702889006641200,4.66064111328125,0.05083996039927006,0.062168579143285746,0.04741524664759636
1772702889016691000,4.67069091796875,0.03490297107696533,0.09669102647006511,0.03762567403912544
1772702889026742000,4.680741943359375,0.033683658415079115,0.07940437610447407,0.02520633744895458
1772702889036792000,4.6907919921875,0.0465048538044095,0.04995499425828456,0.02755143927037716
1772702889046842000,4.700842041015625,0.05518412708342075,0.021476503270864485,0.030728315740823745
1772702889056892200,4.71089208984375,0.03129062579870224,0.004257072922587394,0.052777065941691396
1772702889066942000,4.72094189453125,0.023289982433617115,-0.019568039301037787,0.0541144520252943
1772702889076993000,4.730992919921875,-0.00971533832848072,-0.052183776223659516,0.016578794357180595
1772702889087043000,4.74104296875,-0.006402852779626846,-0.08659457986950873,0.035629531785845756
1772702889097093600,4.75109375,0.005968553015589714,-0.12249240720272063,0.06941489700973033
1772702889107143700,4.761143798828125,-0.004003390422463417,-0.12679156570136546,0.12271861717402935
1772702889117193700,4.77119384765625,0.026411621585488317,-0.11475275286138056,0.13188275136053562
1772702889127244800,4.781244873046875,0.045967093665897844,-0.11332301231920719,0.12611527387499807
1772702889137294600,4.791294677734375,0.12740706725120543,-0.1437824479907751,-0.02131809783875942
1772702889147344600,4.8013447265625,0.1297176822811365,-0.08371785538941622,0.012342764222621917
1772702889157394700,4.811394775390625,0.02713876681625843,-0.02379208673685789,-0.05984218202233314
1772702889167445800,4.82144580078125,-0.010773907470703125,-0.05518734195381403,-0.08143968132436274
1772702889177495600,4.83149560546875,0.008449263915419577,-0.01919189946502447,0.03972586118876934
1772702889187545600,4.841545654296875,0.07966010443121195,-0.022375497937202452,0.032520459854602814
1772702889197595600,4.851595703125,-0.01921937199383974,0.025268589030206203,0.10692775832414626
1772702889207645700,4.861645751953125,-0.07728899138569831,-0.041165246342122555,0.08402677520811558
1772702889217696800,4.87169677734375,0.000862169787287712,-0.053936172848939895,0.20228549036383628
1772702889227746600,4.88174658203125,0.08541618373990058,-0.030471126109361646,0.14345453121066093
1772702889237796600,4.891796630859375,0.13359715406298636,-0.011873977667093276,0.13581716820001602
1772702889247846700,4.9018466796875,0.07011895362585782,-0.0403635745704174,0.048366848284006114
1772702889257896700,4.911896728515625,0.06805734492093324,-0.04618161319941282,0.0652466714143753
1772702889267947800,4.92194775390625,0.03782821087390184,0.011707681189477443,0.09379238241910934
1772702889277997600,4.93199755859375,0.006209960556030273,0.07347849318683147,0.07952771022319793
1772702889288047600,4.942047607421875,0.08441898939609527,0.05508680418878793,0.07795768442749977
1772702889298097700,4.95209765625,0.08787585185170173,0.09086451227366923,0.17322540009617804
1772702889308147700,4.962147705078125,0.08001958539336919,0.016105623887479305,0.04346446319520473
1772702889318198800,4.97219873046875,0.16566636301875112,-0.045534255206584925,-0.007995090407133101
1772702889328248600,4.98224853515625,0.13023849128484724,-0.025009938094019888,0.08502923024892807
1772702889338298600,4.992298583984375,0.019696634116768835,-0.03614303426593542,0.015379939961433409
1772702889348348700,5.0023486328125,0.0326776962429285,-0.034168519322574135,0.0873152953594923
1772702889358399700,5.012399658203125,0.15100333915501832,-0.0058110243663191796,0.05940145251750946
1772702889368449800,5.02244970703125,0.09167086022049188,0.022355331932008265,0.08489537473618984
1772702889378499600,5.03249951171875,0.09146335494965314,-0.05565262137800455,0.08347498654425144
1772702889388549600,5.042549560546875,0.14574731832295656,-0.06518909600824117,0.0463110847979784
1772702889398599700,5.052599609375,0.18139409350454805,-0.0321092487052083,0.06965747359395026
1772702889408650800,5.062650634765625,0.08765139544606208,-0.002815641942620277,0.06788111157119274
1772702889418700800,5.07270068359375,0.08068155643343924,-0.09278905059546232,0.04859890347421169
1772702889428750600,5.08275048828125,0.23275720099508762,-0.13301847739219666,0.03118073568344116
1772702889438800600,5.092800537109375,0.17924188390672205,-0.023591011206805703,0.16787936289310454
1772702889448850700,5.1028505859375,0.07707944028824568,-0.04447451702058315,0.2069990748822689
1772702889458901800,5.11290185546875,0.13335282391309738,-0.1410638366818428,0.1483697757810354
1772702889468951800,5.122951904296875,0.3006745529234409,-0.14189239646047352,0.049558103895187375
1772702889479001600,5.133001708984375,0.2142307797014713,-0.03320347368270159,0.12809563403725624
1772702889489051600,5.1430517578125,0.09547463641762732,-0.040814533208310605,0.09496785593926906
1772702889499102700,5.153102783203125,0.09142331520020962,-0.06818009451776742,0.05386486117839813
1772702889509152800,5.16315283203125,0.08714052331447601,-0.05346475594490766,0.07179565466642379
1772702889519202800,5.173202880859375,0.054207975527644156,-0.06537351266443729,0.0976893898576498
1772702889529252600,5.183252685546875,0.1598535850867629,-0.06728986767977475,0.10518529857099056
1772702889539302700,5.193302734375,0.1126993274629116,-0.013031331008672714,0.14106091407239435
1772702889549353500,5.203353515625,0.06666238343119621,-0.052825288997590536,0.039919337934255596
1772702889559403800,5.21340380859375,0.09469546873867511,-0.06167261231988668,0.07427753461003303
1772702889569453800,5.223453857421875,0.08006313227415085,-0.06423983245939016,0.08590601308345794
1772702889579503600,5.233503662109375,0.07289864747226238,-0.03828881412297487,0.09054653236567974
1772702889589553700,5.2435537109375,0.08421966743171215,-0.018373861080408095,0.10438391906023024
1772702889599604500,5.2536044921875,0.07582944022715091,0.01027910969108343,0.08080372150838375
1772702889609654800,5.26365478515625,0.11624269915819167,0.01962941409945488,0.04301613490581512
1772702889619704600,5.27370458984375,0.14048749809861183,0.03853402105569839,0.0574520720154047
1772702889629754600,5.283754638671875,0.15242051247656344,0.02443389177173376,0.049907647985219954
1772702889639804700,5.2938046875,0.24791999107450247,-0.004750701658427715,-0.029604280146956444
1772702889649855500,5.30385546875,0.18291911111474035,0.0722311234742403,0.021988544446229934
1772702889659905800,5.31390576171875,-0.006663549542427063,0.0708741559073329,-0.017407061874866486
1772702889669955600,5.32395556640625,-0.026756781761348245,0.06974281378984451,-0.0063935004293918605
1772702889680005600,5.334005615234375,0.05410802228450775,0.025175357788801193,0.04233049072921276
1772702889690056400,5.344056396484375,0.12209142518639564,0.035200784979760646,0.06316285087764263
1772702889700106500,5.3541064453125,0.1540688642054796,0.0460714308232069,0.03488426637649536
1772702889710156800,5.36415673828125,0.14918401477336882,0.02559972068071365,-0.011207038190960883
1772702889720206600,5.37420654296875,0.1170820725917816,0.08213526237308978,-0.029652795463800428
1772702889730256600,5.384256591796875,0.07887889092564582,0.07299363227933645,-0.02264262444078922
1772702889740307500,5.394307373046875,0.047097266739606854,0.07352583945989609,0.05817863272428512
1772702889750357500,5.404357421875,0.02466390113532543,0.07260229487419129,0.10962532684504986
1772702889760407800,5.41440771484375,0.05160509955286979,0.0433373296841979,0.09795651636123656
1772702889770457600,5.42445751953125,0.06919044060409069,0.03545154487043619,0.08490414256453514
1772702889780507600,5.434507568359375,0.09862696296870709,-0.028806407767534254,-0.005004676419496536
1772702889790558500,5.444558349609375,0.13079261803627013,-0.019892448949813842,-0.07948796273469924
1772702889800608500,5.4546083984375,0.14934709638059138,0.01737462090998888,-0.022184943801164626
1772702889810658800,5.464658935546875,0.15408464629650115,0.02439589784890413,0.04146247572302818
1772702889820708600,5.47470849609375,0.09925941565334796,0.002168576210737228,0.03892506619989872
1772702889830758700,5.484758544921875,0.027535072657465933,0.0015825930163264274,0.021903788772225378
1772702889840809500,5.4948095703125,0.007007248413562774,0.007319383102655411,0.0019587328523397443
1772702889850859500,5.504859619140625,-0.018262801921367644,0.006132803666591644,0.017530980515480042
1772702889860909800,5.514909912109375,0.0048620530784130095,0.014722645096480845,0.03941080389022827
1772702889870959600,5.524959716796875,0.019575638085603714,-0.027436580719053742,0.0739390964359045
1772702889881009700,5.535009765625,0.05122282223701477,-0.026800328642129896,0.08956044393777847
1772702889891060500,5.545060546875,0.07292553547918797,-0.028168694385886192,0.05638356600105762
1772702889901110500,5.555110595703125,0.051933016332983965,-0.005903671085834503,0.019876082336902617
1772702889911160800,5.565160888671875,0.0477051695048809,0.024575346069037912,-0.026435586982965466
1772702889921210600,5.575210693359375,0.03621697628498077,0.029157120901346204,-0.0029798925936222074
1772702889931261400,5.585261474609375,0.033038346248865126,-0.019880173990130423,0.01680383528470993
1772702889941311500,5.5953115234375,0.03476794652044773,-0.0412546781912446,0.040998365342617034
1772702889951361500,5.605361572265625,0.05546820472180843,-0.06702186439335346,0.02763327233493328
1772702889961411800,5.615411865234375,0.07414484814107418,-0.08312485793232917,-0.013204349488019943
1772702889971461600,5.625461669921875,0.05408113427758217,-0.09270137231200933,-0.028203765699267386
1772702889981512400,5.635512451171875,0.02223696624934673,-0.0895762260288,-0.008003273713588714
1772702889991562500,5.6455625,0.02156125894486904,-0.09605068273991346,-0.012532149314880371
1772702890001612500,5.655612548828125,-0.015646774204075335,-0.10256547146141529,0.016241525226831435
1772702890011662600,5.66566259765625,-0.008689502412080764,-0.11473697077035903,0.047640287575125694
1772702890021712600,5.675712646484375,-0.01317746148109436,-0.0996937154173851,0.06330664326250553
1772702890031763500,5.685763427734375,-0.02712181568145752,-0.09329261620342731,0.0795423232704401
1772702890041813500,5.6958134765625,-0.02569090609550476,-0.10686316865533589,0.02418985388278961
1772702890051863600,5.705863525390625,-0.02029343096613884,-0.10827040510475634,0.04770400046110153
1772702890061914600,5.71591455078125,0.03825754220187664,-0.1062163951843977,0.0604454086124897
1772702890071964400,5.72596435546875,0.04290682931244373,-0.10268646749258041,0.08388532091081143
1772702890082014500,5.736014404296875,0.029615970584750174,-0.1315472357958555,0.11425240212380885
1772702890092064300,5.746064208984375,0.024247137027978895,-0.13389701379239557,0.11369769085049629
1772702890102114600,5.756114501953125,0.04156301348805427,-0.0977218308225274,0.0876373669207096
1772702890112165400,5.766165283203125,0.026483225516974924,-0.07040420030802488,0.07427402747869491
1772702890122215200,5.776215087890625,0.029230770659446716,-0.05374971036612987,0.09371581005156039
1772702890132265200,5.78626513671875,0.032737025214731694,-0.04811959552466869,0.08657996682226657
1772702890142315300,5.796315185546875,-0.004502864377200603,-0.044242169569432735,0.06548924799859523
1772702890152365600,5.806365478515625,-0.007279051092267036,-0.07767156096249818,0.07647650595903396
1772702890162416400,5.81641650390625,-0.0012339257091283798,-0.08657119899392128,0.0754337189078331
1772702890172466200,5.826466064453125,-0.004202712386846542,-0.09457914888262749,0.06615151129961014
1772702890182516200,5.83651611328125,0.006699789899587631,-0.11440233198851346,0.055277066063880914
1772702890192566300,5.846566162109375,0.04297697193920612,-0.11466945849210024,0.06541910537183285
1772702890202616600,5.856616455078125,0.048802317091822624,-0.09223755419254302,0.05451426499783992
1772702890212667400,5.86666748046875,0.056443771755695336,-0.08346329610645771,0.04714285944700241
1772702890222717200,5.87671728515625,0.07002572238445282,-0.04549743032753467,0.03270750685930252
1772702890232767200,5.886767333984375,0.03936521118283272,-0.04632920497655868,0.060062546774744985
1772702890242817300,5.8968173828125,0.01606733770370483,-0.06393734238147736,0.07479951265752315
1772702890252868400,5.906868408203125,-0.015696166303753853,-0.05799976902604103,0.07661211503744125
1772702890262918100,5.916918212890625,-0.0035828269228339194,-0.041054771704971786,0.0653209056943655
1772702890272968200,5.92696826171875,0.04895487730503082,-0.03798427821844816,0.0514087001979351
1772702890283018200,5.937018310546875,0.0783399617433548,0.003826572550833225,0.024053660282492638
1772702890293068300,5.947068359375,0.07938713270872831,0.007995382668077946,0.016380056914687156
1772702890303119400,5.957119384765625,0.10816489890366791,0.015644728377461434,0.0018178630769252776
1772702890313169200,5.967169189453125,0.1017979942202568,0.03742313720434904,0.02328501399755478
1772702890323219200,5.97721923828125,0.07312310387790202,0.003214285871386528,0.052609892681241034
1772702890333269200,5.987269287109375,0.058007367810606954,-0.008337035712599753,0.04274959292411804
1772702890343319300,5.9973193359375,0.05548574037849903,-0.0060404492080211635,0.050965048083662985
1772702890353370400,6.007370361328125,0.05915653784573078,-0.014912906971573828,0.05948620819151401
1772702890363420200,6.017420166015625,0.06849544407725333,-0.02069382846057415,0.05402560469806194
1772702890373470200,6.02747021484375,0.07548603361696005,-0.01448328338265419,0.04878945761024952
1772702890383520300,6.037520263671875,0.08549567871689796,-0.02718757439404726,0.042104865279793735
1772702890393570300,6.0475703125,0.07210135961472988,0.008994915099442004,0.025091186636686323
1772702890403621400,6.057621337890625,0.0332440979540348,0.013540157313644885,0.043106735798716544
1772702890413671200,6.067671142578125,0.01974748752117157,-0.013937632198631762,0.05008768072724342
1772702890423721200,6.07772119140625,0.04918751701712608,0.0021349662020802495,0.05555705204904079
1772702890433771300,6.087771240234375,0.06815232972800732,0.02417845570594072,0.03939560632109642
1772702890443821300,6.0978212890625,0.09250175808668136,0.018839432765543458,0.045888475471734996
1772702890453872400,6.107872314453125,0.09857727860808371,-0.007337503281235695,-0.002835515686869621
1772702890463922200,6.117922119140625,0.05736965442895889,-0.04228372897803783,-0.003927402576804161
1772702890473972200,6.12797216796875,0.018231237739324568,-0.053362172353267665,0.02901274399459362
1772702890484022300,6.138022216796875,-0.01956044051647186,-0.018017594988644123,0.06009937165379524
1772702890494073300,6.1480732421875,-0.04214870442152023,-0.01839928778260946,0.06720481974482535
1772702890504123400,6.158123291015625,0.010317688135802746,-0.004097206185758114,0.07904489514231682
1772702890514173200,6.168173095703125,0.1024628878697753,0.0258829215362668,0.0315711963057518
1772702890524223200,6.17822314453125,0.15625146894156933,0.05281944377869367,0.00876724382340908
1772702890534273300,6.188273193359375,0.11831366021335124,0.0274079391464591,-0.04458031548261642
1772702890544324400,6.198324462890625,0.04849778118729591,0.00467120668143034,-0.04360124131739139
1772702890554374400,6.20837451171875,-0.004140168544650077,-0.018280629839003085,-0.0014531214177608488
1772702890564424200,6.218424072265625,0.025085925939679145,-0.044669455070793625,0.034494390276074406
1772702890574474200,6.22847412109375,0.06612111616134643,-0.06134878719300031,0.06431260543465614
1772702890584524300,6.238524169921875,0.07103577620983123,-0.061530281239748,0.07163140401542187
1772702890594575400,6.248575439453125,0.05205693497359752,-0.041214053919911384,0.049640521481633185
1772702890604625400,6.25862548828125,0.04968903679847717,-0.031041619473695752,0.055013446691632266
1772702890614675200,6.26867529296875,0.07256313190758228,-0.00818038384616375,0.08408698096275329
1772702890624725200,6.278725341796875,0.07325695939064025,0.013389058405160904,0.06277472834289073
1772702890634775300,6.288775390625,0.060435471740365024,0.023507716837525366,0.030713118171691894
1772702890644826400,6.298826416015625,0.01543137788772583,0.011271920120716095,-0.008341711887717247
1772702890654876200,6.308876220703125,-0.027084990802407262,-0.018419746048748492,0.0294014510512352
1772702890664926200,6.31892626953125,-0.026177228307723996,-0.01840016456544399,0.0925567031443119
1772702890674976300,6.328976318359375,0.04397650437057018,-0.043076632921397684,0.10294891782104969
1772702890685026300,6.3390263671875,0.07165858428329229,-0.04500672420114279,0.07459142286479473
1772702890695077400,6.349077392578125,0.06704056909382343,-0.04768324993401766,0.06449789887368679
1772702890705127200,6.359127197265625,0.05517945090830326,-0.044105683708190915,0.04443652309775352
1772702890715177200,6.36917724609375,0.07480535787642002,-0.03355418681651354,0.04298924689888954
1772702890725227300,6.379227294921875,0.04425999748706817,-0.0401022932857275,0.05478665219843387
1772702890735278300,6.3892783203125,0.02971417026221752,-0.028074586361646652,0.0414221437126398
1772702890745328400,6.399328369140625,0.027898937533795833,-0.017158347810804844,0.04678337848484516
1772702890755378200,6.409378173828125,0.04226064036339521,-0.027003449998795986,0.015766308930516244
1772702890765428200,6.41942822265625,0.03783376383185386,-0.01214227321445942,0.022925533035397527
1772702890775478300,6.429478271484375,0.05118570509701967,-0.00473871895968914,0.03424538395106792
1772702890785529300,6.439529296875,0.013475567644834518,-0.005901917520165443,0.0106225163012743
1772702890795579400,6.449579345703125,0.007316460493206977,0.026394670450687406,-0.002885200047492981
1772702890805629200,6.459629150390625,0.04994476512521505,0.027848668651282785,-0.034789573830366134
1772702890815679200,6.46967919921875,0.06477700807601212,0.062195467150211334,-0.04879764091670513
1772702890825729300,6.479729248046875,0.08631225579679012,0.060953358134627336,-0.0008919804036617279
1772702890835780400,6.4897802734375,0.09047142130285502,0.017566051828861236,0.024317279654741286
1772702890845830400,6.499830322265625,-0.10504968949258327,-0.19678280129432676,0.050664019310474394
1772702890855880200,6.509880126953125,0.20586013398021458,-0.3115539665952325,-0.01061725560426712
1772702890865930200,6.51993017578125,0.5486638098418712,0.020829145278036594,0.5283060814678668
1772702890875980300,6.529980224609375,0.19485387905836105,-0.051529111707210536,0.38577217223346233
1772702890886031400,6.54003125,-0.4054021708548069,-0.11199351728111505,-0.07175824526548386
1772702890896081400,6.550081298828125,-0.849950357183814,-0.05866933885067701,-0.09663666593432425
1772702890906131200,6.560131103515625,-0.5878662316784262,0.006979775884747505,-0.016744214051961897
1772702890916181200,6.57018115234375,0.0159489720210433,0.04179448415637016,-0.05503273591399192
1772702890926231300,6.580231201171875,0.378827467662096,0.03210077313780785,-0.219367558068037
1772702890936282400,6.590282470703125,0.4662953232347965,-0.19042378765642642,-0.08289747891724109
