time,seconds_elapsed,z,y,x
1772702884413690000,0.067690185546875,0.018536178395152092,0.034554362297058105,-0.03387328237295151
1772702884423740200,0.077740234375,0.020521968603134155,0.050444960594177246,-0.03863385692238808
1772702884433790200,0.087790283203125,0.020153386518359184,0.06093728169798851,-0.026602227240800858
1772702884443841300,0.09784130859375,0.01717517338693142,0.06108281761407852,-0.01643381454050541
1772702884453891300,0.107891357421875,0.01728862337768078,0.0654972717165947,-0.016109708696603775
1772702884463941000,0.117941162109375,0.016803793609142303,0.06724878400564194,-0.01769544743001461
1772702884473991200,0.1279912109375,0.015364622697234154,0.062004752457141876,-0.016811810433864594
1772702884484042200,0.138042236328125,0.01576968841254711,0.060134679079055786,-0.017426734790205956
1772702884494092300,0.14809228515625,0.014928929507732391,0.06274644285440445,-0.01697666011750698
1772702884504142300,0.158142333984375,0.01664626970887184,0.058377984911203384,-0.014091495424509048
1772702884514192100,0.168192138671875,0.014596434310078621,0.042434170842170715,-0.016536809504032135
1772702884524243200,0.1782431640625,0.014078715816140175,0.02405836060643196,-0.019688928499817848
1772702884534293200,0.188293212890625,0.017163455486297607,0.017273958772420883,-0.02362055331468582
1772702884544343300,0.19834326171875,0.017357733100652695,0.01051211915910244,-0.01856863871216774
1772702884554393300,0.208393310546875,0.01619047112762928,-0.0034034312702715397,-0.024750100448727608
1772702884564444200,0.218444091796875,0.015578409656882286,-0.015761729329824448,-0.030388394370675087
1772702884574494200,0.228494140625,0.010952765122056007,-0.03209542855620384,-0.029709821566939354
1772702884584544300,0.238544189453125,0.006846169475466013,-0.043805480003356934,-0.0256753321737051
1772702884594594300,0.24859423828125,0.005155595019459724,-0.04160916805267334,-0.01558780949562788
1772702884604644400,0.258644287109375,0.005280163139104843,-0.031303826719522476,-0.010215728543698788
1772702884614695200,0.268695068359375,0.009888497181236744,-0.019080448895692825,-0.011207490228116512
1772702884624745200,0.2787451171875,0.01168872695416212,-0.00796138308942318,-0.01625429466366768
1772702884634795300,0.288795166015625,0.01598254218697548,0.0013943016529083252,-0.011470992118120193
1772702884644845300,0.29884521484375,0.01036500371992588,0.004544745199382305,-0.010819419287145138
1772702884654896400,0.308896484375,0.006831522099673748,0.0031937239691615105,-0.007077412214130163
1772702884664946200,0.3189462890625,-0.000045891269110143185,-0.00465225288644433,-0.005156658589839935
1772702884674996200,0.328996337890625,0.002682783640921116,-0.0061641293577849865,0.00009429594501852989
1772702884685046300,0.33904638671875,0.015332799404859543,-0.006239763461053371,0.010484086349606514
1772702884695097000,0.34909716796875,0.00433154683560133,0.015147551894187927,0.015548620373010635
1772702884705147400,0.3591474609375,0.0004152370383962989,0.03139143064618111,0.02230042964220047
1772702884715197200,0.369197265625,-0.0031411482486873865,0.03786477446556091,0.023313229903578758
1772702884725247200,0.379247314453125,-0.0018887317273765802,0.03839365020394325,0.023184286430478096
1772702884735297300,0.38929736328125,-0.0016426555812358856,0.03950711712241173,0.024698026478290558
1772702884745348000,0.39934814453125,-0.004891313146799803,0.040229570120573044,0.026769466698169708
1772702884755398400,0.4093984375,-0.005316619761288166,0.035713646560907364,0.02966565452516079
1772702884765448200,0.4194482421875,-0.008805428631603718,0.026677781715989113,0.03269468620419502
1772702884775498200,0.429498291015625,-0.009978285059332848,0.017780693247914314,0.030719153583049774
1772702884785549000,0.439549072265625,-0.013899056240916252,0.007801386993378401,0.0318177193403244
1772702884795599000,0.44959912109375,-0.012599965557456017,-0.0016230079345405102,0.03243477642536163
1772702884805649400,0.4596494140625,-0.015114257112145424,-0.01096084900200367,0.030288800597190857
1772702884815699200,0.46969921875,-0.01677074283361435,-0.02132001332938671,0.027618715539574623
1772702884825750000,0.47975,-0.02003311552107334,-0.024755224585533142,0.028248552232980728
1772702884835800000,0.489800048828125,-0.02032393217086792,-0.025197841227054596,0.033102430403232574
1772702884845850000,0.49985009765625,-0.020722541958093643,-0.011447903700172901,0.033370260149240494
1772702884855900200,0.509900146484375,-0.017926223576068878,0.0010345987975597382,0.03414151072502136
1772702884865951200,0.519951171875,-0.017061561346054077,0.009432332590222359,0.03406410664319992
1772702884876001000,0.5300009765625,-0.0147035988047719,0.017603443935513496,0.03453708440065384
1772702884886051000,0.540051025390625,-0.014834688976407051,0.019599419087171555,0.03688792884349823
1772702884896101000,0.55010107421875,-0.012992581352591515,0.013403575867414474,0.0346657857298851
1772702884906151200,0.560151123046875,-0.011189622804522514,0.012905169278383255,0.032698046416044235
1772702884916202000,0.570201904296875,-0.013479407876729965,0.006757794413715601,0.03304478898644447
1772702884926252000,0.580251953125,-0.012579260393977165,0.003466126974672079,0.03392256796360016
1772702884936302000,0.590302001953125,-0.015869062393903732,0.008235849440097809,0.03325491398572922
1772702884946352000,0.60035205078125,-0.016500165686011314,0.011164160445332527,0.03174128755927086
1772702884956403200,0.6104033203125,-0.014893213286995888,0.015764504671096802,0.02994498610496521
1772702884966453000,0.620452880859375,-0.011509865522384644,0.013880345970392227,0.02560141682624817
1772702884976503000,0.6305029296875,-0.012052351608872414,0.00491614593192935,0.02012702263891697
1772702884986553000,0.640552978515625,-0.009474808350205421,-0.0030582286417484283,0.013519086875021458
1772702884996604200,0.650604248046875,-0.00934777595102787,-0.007742995396256447,0.01374518871307373
1772702885006654200,0.660654296875,-0.011927185580134392,-0.011793315410614014,0.009439095854759216
1772702885016704000,0.6707041015625,-0.011130101047456264,-0.007325064390897751,0.010438580065965652
1772702885026754000,0.680754150390625,-0.009164024144411087,-0.005441195331513882,0.006560125388205051
1772702885036804000,0.69080419921875,-0.0054832687601447105,-0.014108452945947647,0.003368060104548931
1772702885046855200,0.700855224609375,-0.004048088565468788,-0.007770685479044914,0.006149723194539547
1772702885056905200,0.7109052734375,-0.002032608026638627,0.001226537860929966,0.010937021113932133
1772702885066955000,0.720955078125,-0.00262702745385468,0.011353484354913235,0.013263962231576443
1772702885077005000,0.731005126953125,0.0016966145485639572,0.013402520678937435,0.010404792614281178
1772702885087055400,0.741055419921875,0.007748847361654043,0.006960701197385788,0.003800570033490658
1772702885097105400,0.75110546875,0.005952545441687107,0.0015158690512180328,0.003809624817222357
1772702885107155200,0.7611552734375,0.0025604162365198135,-0.0039884052239358425,0.0017779743066057563
1772702885117205500,0.77120556640625,0.006191103719174862,-0.003254437819123268,-0.001415422186255455
1772702885127256300,0.78125634765625,0.007853646762669086,-0.006473696790635586,-0.001736914156936109
1772702885137306400,0.791306396484375,0.010468071326613426,0.011709834448993206,-0.00017869856674224138
1772702885147356400,0.8013564453125,0.009109392762184143,0.026688020676374435,0.007133993320167065
1772702885157406200,0.81140625,0.007088053040206432,0.032942455261945724,0.0010880851186811924
1772702885167457300,0.821457275390625,0.014257288537919521,0.030430153012275696,-0.007528775837272406
1772702885177507300,0.83150732421875,0.01777479238808155,0.0237746462225914,-0.01647220365703106
1772702885187557400,0.841557373046875,0.016303587704896927,0.018901443108916283,-0.011366235092282295
1772702885197607400,0.851607421875,0.014536580070853233,0.018685992807149887,-0.007185338996350765
1772702885207657200,0.8616572265625,0.010862349532544613,0.005715268198400736,-0.008790924213826656
1772702885217708300,0.871708251953125,0.01923159882426262,-0.002238794695585966,-0.013130012899637222
1772702885227758300,0.88175830078125,0.01976563222706318,0.0022340118885040283,-0.009398077614605427
1772702885237808400,0.891808349609375,0.02133769541978836,0.0014686193317174911,-0.005203066393733025
1772702885247858400,0.9018583984375,0.019064951688051224,-0.0038892573211342096,-0.013145076110959053
1772702885257909500,0.911909423828125,0.018897971138358116,-0.00484879408031702,-0.014733385294675827
1772702885267959300,0.921959228515625,0.021010393276810646,-0.011443717405200005,-0.013125703670084476
1772702885278009300,0.93200927734375,0.017216453328728676,-0.012305250391364098,-0.012110773473978043
1772702885288059400,0.942059326171875,0.022232316434383392,-0.010108104906976223,-0.018478205427527428
1772702885298110500,0.9521103515625,0.022924205288290977,-0.014622429385781288,-0.02384447492659092
1772702885308160500,0.962160400390625,0.020594405010342598,-0.017215309664607048,-0.021786166355013847
1772702885318210300,0.972210205078125,0.023237859830260277,-0.018034499138593674,-0.02023487538099289
1772702885328260400,0.98226025390625,0.028177227824926376,-0.018269270658493042,-0.022577863186597824
1772702885338310400,0.992310302734375,0.026742050424218178,-0.012096595019102097,-0.02327268198132515
1772702885348361500,1.002361572265625,0.030498769134283066,0.0007076626643538475,-0.026497449725866318
1772702885358411500,1.01241162109375,0.03406713902950287,0.006360754370689392,-0.023105381056666374
1772702885368461300,1.02246142578125,0.03651571646332741,0.01616041734814644,-0.023092549294233322
1772702885378511400,1.032511474609375,0.03599879518151283,0.02008058875799179,-0.027503810822963715
1772702885388562400,1.0425625,0.03343351185321808,0.02566516026854515,-0.02210715226829052
1772702885398612500,1.052612548828125,0.029939178377389908,0.024859555065631866,-0.02879168651998043
1772702885408662300,1.062662353515625,0.0320834144949913,0.014765994623303413,-0.03362148627638817
1772702885418712300,1.07271240234375,0.03400088846683502,0.010037818923592567,-0.04026607424020767
1772702885428763400,1.082763427734375,0.035070355981588364,-0.0018142354674637318,-0.04117606580257416
1772702885438813400,1.0928134765625,0.03368178382515907,-0.004372201394289732,-0.04316278547048569
1772702885448863500,1.102863525390625,0.037603020668029785,-0.003879770403727889,-0.05118848383426666
1772702885458913300,1.112913330078125,0.034941721707582474,0.0038457936607301235,-0.05218929797410965
1772702885468963300,1.12296337890625,0.036427829414606094,-0.0006670090369880199,-0.05087144300341606
1772702885479014400,1.133014404296875,0.03394629433751106,-0.004147760570049286,-0.050712984055280685
1772702885489064400,1.143064453125,0.032390814274549484,-0.0173270795494318,-0.051085323095321655
1772702885499114500,1.153114501953125,0.03144752234220505,-0.023543430492281914,-0.045496679842472076
1772702885509164300,1.163164306640625,0.031169690191745758,-0.027226082980632782,-0.04211145266890526
1772702885519215400,1.17321533203125,0.02782023325562477,-0.03348451107740402,-0.043231844902038574
1772702885529265400,1.183265380859375,0.03162875026464462,-0.03027276135981083,-0.042353179305791855
1772702885539315500,1.1933154296875,0.028510453179478645,-0.03118089959025383,-0.0394790954887867
1772702885549365500,1.203365478515625,0.027312828227877617,-0.025636592879891396,-0.03747739642858505
1772702885559416600,1.21341650390625,0.024185212329030037,-0.020354745909571648,-0.03378971666097641
1772702885569466400,1.22346630859375,0.022478731349110603,-0.017394758760929108,-0.032705433666706085
1772702885579516400,1.233516357421875,0.02313067391514778,-0.016472239047288895,-0.03581760451197624
1772702885589566500,1.24356640625,0.019259566441178322,-0.014128752052783966,-0.035443708300590515
1772702885599616500,1.253616455078125,0.01906861737370491,-0.011030697263777256,-0.03073737397789955
1772702885609667600,1.26366748046875,0.013695422559976578,0.006155746057629585,-0.028123214840888977
1772702885619717400,1.27371728515625,0.01984279789030552,0.013417121954262257,-0.027559690177440643
1772702885629767400,1.283767333984375,0.0184643417596817,0.012413917109370232,-0.03129196912050247
1772702885639817500,1.2938173828125,0.018854495137929916,0.007351514417678118,-0.027481254190206528
1772702885649868500,1.30386865234375,0.018823204562067986,0.008850011974573135,-0.02164064347743988
1772702885659918600,1.313918701171875,0.01704341359436512,0.01091955415904522,-0.01633269712328911
1772702885669968400,1.323968505859375,0.013641227036714554,0.013555541634559631,-0.013891246169805527
1772702885680018400,1.334018310546875,0.015531805343925953,0.02378527633845806,-0.013485114090144634
1772702885690069500,1.344069580078125,0.01057872548699379,0.03247550129890442,-0.006273841019719839
1772702885700119600,1.35411962890625,0.012554790824651718,0.033464331179857254,-0.008648315444588661
1772702885710169300,1.36416943359375,0.013654077425599098,0.030520576983690262,-0.011319582350552082
1772702885720219400,1.374219482421875,0.011491323821246624,0.03333127498626709,-0.009215419180691242
1772702885730269400,1.38426953125,0.011624551378190517,0.040982961654663086,-0.0063735791482031345
1772702885740320500,1.394320556640625,0.011495121754705906,0.048919983208179474,-0.002307731192559004
1772702885750370600,1.40437060546875,0.013460398651659489,0.05128773674368858,-0.0017911744071170688
1772702885760420400,1.41442041015625,0.01669507473707199,0.05024031549692154,-0.0027368629816919565
1772702885770470400,1.424470458984375,0.014308149926364422,0.04412773251533508,-0.004704556427896023
1772702885780521500,1.434521484375,0.01582774892449379,0.031808748841285706,-0.006918441969901323
1772702885790571500,1.444571533203125,0.016584090888500214,0.02243201807141304,-0.00675798999145627
1772702885800621600,1.45462158203125,0.01727890968322754,0.005740654654800892,-0.005440790206193924
1772702885810671400,1.46467138671875,0.013566059060394764,0.0016236156225204468,-0.005596947856247425
1772702885820721400,1.474721435546875,0.01585424691438675,-0.0036505088210105896,-0.009385826997458935
1772702885830772500,1.4847724609375,0.01860223151743412,-0.005988303106278181,-0.011299943551421165
1772702885840822500,1.494822509765625,0.01860649324953556,-0.00536672119051218,-0.011315922252833843
1772702885850872600,1.50487255859375,0.016157714650034904,0.0010236701928079128,-0.010990415699779987
1772702885860922400,1.51492236328125,0.016081014648079872,0.00611962890252471,-0.011590425856411457
1772702885870973400,1.524973388671875,0.016768909990787506,0.0050042965449392796,-0.014148924499750137
1772702885881023500,1.5350234375,0.016336679458618164,-0.004755123518407345,-0.011863932944834232
1772702885891073500,1.545073486328125,0.015679411590099335,-0.00431424006819725,-0.009593656286597252
1772702885901123600,1.55512353515625,0.016422966495156288,0.00035747699439525604,-0.0042553492821753025
1772702885911174700,1.565174560546875,0.01573653519153595,-0.0017444845288991928,-0.00854559987783432
1772702885921224400,1.575224365234375,0.013950353488326073,0.0005519594997167587,-0.008554121479392052
1772702885931274500,1.5852744140625,0.01223654206842184,0.0012948154471814632,-0.010726844891905785
1772702885941324500,1.595324462890625,0.007273741066455841,0.002535050269216299,-0.007800296414643526
1772702885951374600,1.60537451171875,0.0076581682078540325,0.004117436241358519,-0.008011718280613422
1772702885961425700,1.61542578125,0.008875498548150063,0.007118552457541227,-0.007068159990012646
1772702885971475500,1.625475341796875,0.00905559677630663,0.020906031131744385,-0.005437192041426897
1772702885981525500,1.635525390625,0.00559934601187706,0.027640100568532944,-0.0058433241210877895
1772702885991575600,1.645575439453125,0.010654691606760025,0.03937552124261856,0.0015701514203101397
1772702886001626400,1.65562646484375,0.008324958384037018,0.04110178351402283,-0.0004666341992560774
1772702886011676700,1.6656767578125,0.0024920348078012466,0.03105604276061058,-0.003500821068882942
1772702886021726500,1.6757265625,0.004411641508340836,0.026624545454978943,-0.010360857471823692
1772702886031776500,1.685776611328125,-0.0010124167893081903,0.02701122686266899,-0.011054481379687786
1772702886041827300,1.695827392578125,-0.002352785784751177,0.02123935893177986,-0.006964665371924639
1772702886051877400,1.70587744140625,-0.0013421145267784595,0.01818297803401947,-0.005406517535448074
1772702886061927400,1.715927490234375,-0.0018318698275834322,0.0184831153601408,0.00188841309864074
1772702886071977500,1.7259775390625,-0.0015195480082184076,0.01069640088826418,0.0071530998684465885
1772702886082027500,1.736027587890625,-0.001562158577144146,0.014946539886295795,0.012481818906962872
1772702886092078300,1.746078369140625,0.0015060678124427795,0.022047728300094604,0.018048958852887154
1772702886102128400,1.75612841796875,-0.0034474118147045374,0.009666692465543747,0.02133955992758274
1772702886112178700,1.7661787109375,-0.0071936110034585,0.004175680689513683,0.022869791835546494
1772702886122228700,1.776228759765625,-0.008151816204190254,0.006694764830172062,0.02001648209989071
1772702886132279600,1.786279541015625,-0.008403554558753967,0.0018463204614818096,0.017868928611278534
1772702886142329300,1.796329345703125,-0.008886918425559998,0.011217985302209854,0.021541960537433624
1772702886152379400,1.80637939453125,-0.008675127290189266,0.012201116420328617,0.018567722290754318
1772702886162429700,1.8164296875,-0.008223455399274826,0.021947752684354782,0.014192415401339531
1772702886172479700,1.826479736328125,-0.004953628871589899,0.02591986209154129,0.011537912301719189
1772702886182530600,1.836530517578125,-0.0070569938980042934,0.025542758405208588,0.002614192431792617
1772702886192580400,1.846580322265625,-0.007296278141438961,0.023228004574775696,0.0030053770169615746
1772702886202630400,1.85663037109375,-0.006057375110685825,0.01759728416800499,-0.0014900390524417162
1772702886212680700,1.8666806640625,-0.006218360736966133,0.011413353495299816,-0.0025396926794201136
1772702886222731500,1.8767314453125,-0.0036220450419932604,0.005860663019120693,-0.004155432339757681
1772702886232781600,1.886781494140625,-0.0053104218095541,-0.002943048719316721,-0.012395668774843216
1772702886242831400,1.896831298828125,-0.00141421752050519,-0.01568121463060379,-0.016546737402677536
1772702886252881400,1.90688134765625,0.00394152756780386,-0.015433195978403091,-0.02879224717617035
1772702886262932500,1.916932373046875,0.007235857658088207,-0.02053714357316494,-0.03769759088754654
1772702886272982500,1.926982421875,0.005274839699268341,-0.024808257818222046,-0.03375428542494774
1772702886283032600,1.937032470703125,0.009200870990753174,-0.02128702774643898,-0.027834873646497726
1772702886293082400,1.947082275390625,0.008000854402780533,-0.011230937205255032,-0.03678189963102341
1772702886303132400,1.95713232421875,0.01291358657181263,-0.011945730075240135,-0.04594823345541954
1772702886313183500,1.96718359375,0.01314495038241148,-0.017880085855722427,-0.04472709447145462
1772702886323233500,1.977233642578125,0.01775861158967018,-0.01130980160087347,-0.04161279276013374
1772702886333283600,1.98728369140625,0.019320616498589516,-0.007680127862840891,-0.035743262618780136
1772702886343333400,1.99733349609375,0.02241920307278633,-0.008937939070165157,-0.03575098514556885
1772702886353384400,2.007384521484375,0.03157835453748703,-0.007241792045533657,-0.03309622406959534
1772702886363434500,2.0174345703125,0.0334542877972126,-0.007850323803722858,-0.025187430903315544
1772702886373484500,2.027484619140625,0.03327404707670212,-0.00796786043792963,-0.021282050758600235
1772702886383534600,2.03753466796875,0.032171234488487244,-0.00035548070445656776,-0.014439857564866543
1772702886393584400,2.04758447265625,0.02985302172601223,0.009332329966127872,-0.010952933691442013
1772702886403635500,2.057635498046875,0.03183334693312645,0.02233414724469185,-0.010205117985606194
1772702886413685500,2.067685546875,0.029613075777888298,0.04056854173541069,-0.01322581060230732
1772702886423735600,2.077735595703125,0.02793661504983902,0.0333324670791626,-0.0096451910212636
1772702886433785300,2.087785400390625,0.024277497082948685,0.032073624432086945,-0.003310943953692913
1772702886443836400,2.09783642578125,0.028991559520363808,0.021235093474388123,0.006964330095797777
1772702886453886500,2.107886474609375,0.026714887470006943,0.013139115646481514,0.01795537956058979
1772702886463936500,2.1179365234375,0.01971396990120411,0.010622428730130196,0.03865586593747139
1772702886473986600,2.127986572265625,0.023231210187077522,-0.00022329716011881828,0.05396384373307228
1772702886484036400,2.138036376953125,0.029803624376654625,-0.0012321025133132935,0.0699918121099472
1772702886494087400,2.14808740234375,0.04339579492807388,0.03476381674408913,0.09112907946109772
1772702886504137500,2.158137451171875,0.06631815433502197,0.06597234308719635,0.11368764936923981
1772702886514187500,2.1681875,0.06358055770397186,0.09480499476194382,0.114895299077034
1772702886524237600,2.178237548828125,0.014742709696292877,0.02310257963836193,0.11625616997480392
1772702886534288600,2.18828857421875,-0.009112617932260036,-0.01873799040913582,0.09610497951507568
1772702886544338400,2.19833837890625,-0.026264172047376633,0.05837330222129822,0.05154762417078018
1772702886554388500,2.208388427734375,-0.021970229223370552,0.032579466700553894,0.015956247225403786
1772702886564438500,2.2184384765625,-0.03533397242426872,-0.01841660775244236,0.006298559717833996
1772702886574488600,2.228488525390625,-0.04622110724449158,-0.010456353425979614,0.002372759860008955
1772702886584539600,2.23853955078125,-0.05105554312467575,-0.0015914896503090858,0.011242950335144997
1772702886594589400,2.24858935546875,-0.048554569482803345,0.014673500321805477,0.02623707987368107
1772702886604639500,2.258639404296875,-0.04811807721853256,0.02910330519080162,0.051138170063495636
1772702886614689500,2.268689453125,-0.0506463460624218,0.04419909790158272,0.0630144402384758
1772702886624740600,2.27874072265625,-0.04710753634572029,0.05791517719626427,0.06534203886985779
1772702886634790700,2.288790771484375,-0.048002030700445175,0.051049184054136276,0.05672696232795715
1772702886644840400,2.29884033203125,-0.04231112077832222,0.03468912094831467,0.0618724562227726
1772702886654890500,2.308890380859375,-0.041205909103155136,0.02621973305940628,0.0635976493358612
1772702886664940500,2.3189404296875,-0.039296954870224,0.02549562230706215,0.0688595250248909
1772702886674991600,2.32899169921875,-0.027467994019389153,0.04077751189470291,0.07117068767547607
1772702886685041700,2.339041748046875,-0.03418208658695221,0.005201407242566347,0.08189123868942261
1772702886695091500,2.349091552734375,-0.03456857427954674,0.0005155326798558235,0.08676024526357651
1772702886705141500,2.3591416015625,-0.013371146284043789,-0.002847773488610983,0.09030038863420486
1772702886715192600,2.369192626953125,0.012835826724767685,0.002330407965928316,0.08162769675254822
1772702886725242600,2.37924267578125,0.039132412523031235,-0.055941954255104065,0.08276460319757462
1772702886735292700,2.389292724609375,0.03903833031654358,-0.03381284326314926,0.07268695533275604
1772702886745342500,2.399342529296875,0.02886931784451008,-0.061520639806985855,0.07526489347219467
1772702886755392500,2.409392578125,-0.0005631397943943739,-0.026023898273706436,0.06417282670736313
1772702886765443600,2.419443603515625,0.009538229554891586,-0.06751168519258499,0.05984705314040184
1772702886775493600,2.42949365234375,0.0056825065985322,-0.06378739327192307,0.05966109782457352
1772702886785543400,2.43954345703125,0.021016722545027733,-0.035491835325956345,0.06341562420129776
1772702886795593500,2.449593505859375,0.03562775254249573,0.014946915209293365,0.04342564195394516
1772702886805644500,2.45964453125,0.07607504725456238,-0.004908815957605839,0.049531470984220505
1772702886815694600,2.469694580078125,0.07758412510156631,0.007500768639147282,0.04652765020728111
1772702886825744600,2.47974462890625,0.07991093397140503,-0.012338715605437756,0.04875645041465759
1772702886835794400,2.48979443359375,0.07561992108821869,-0.03932312875986099,0.043941956013441086
1772702886845845500,2.499845458984375,0.06428630650043488,0.00263097882270813,0.025292903184890747
1772702886855895600,2.5098955078125,0.07827022671699524,-0.015457376837730408,0.0322236604988575
1772702886865945600,2.519945556640625,0.07121603935956955,0.03327633813023567,0.018089735880494118
1772702886875995600,2.52999560546875,0.08128252625465393,0.004478780087083578,0.030036941170692444
1772702886886045400,2.54004541015625,0.07349783927202225,0.0474235825240612,0.022594472393393517
1772702886896096500,2.550096435546875,0.0690324455499649,0.01624579355120659,0.021073825657367706
1772702886906146600,2.560146484375,0.031977225095033646,0.003792586736381054,0.019125457853078842
1772702886916196600,2.570196533203125,0.016166239976882935,-0.0006527961231768131,0.020734354853630066
1772702886926246700,2.58024658203125,0.015544657595455647,0.0032005319371819496,0.01824137009680271
1772702886936297700,2.590297607421875,0.020597076043486595,0.01044253259897232,0.021556971594691277
1772702886946347500,2.600347412109375,0.02478010207414627,0.019804075360298157,0.029970696195960045
1772702886956397600,2.6103974609375,0.0292432252317667,0.029822856187820435,0.030623123049736023
1772702886966447600,2.620447509765625,0.029380112886428833,0.03302557393908501,0.02399398200213909
1772702886976497700,2.63049755859375,0.023823827505111694,0.029153667390346527,-0.00026718340814113617
1772702886986548700,2.640548828125,0.0002410023007541895,0.013721183873713017,-0.020845428109169006
1772702886996598500,2.6505986328125,-0.009685530327260494,0.002135433256626129,-0.025374967604875565
1772702887006648600,2.660648681640625,-0.014646734111011028,0.005700606852769852,-0.0140674514696002
1772702887016698600,2.67069873046875,-0.012370731681585312,0.001674877479672432,-0.007942994125187397
1772702887026748700,2.680748779296875,-0.007081959862262011,-0.01037672534584999,0.0037277762312442064
1772702887036799700,2.6907998046875,-0.004087433218955994,-0.006303923204541206,0.013351689092814922
1772702887046849500,2.700849609375,0.0036328041460365057,0.014028512872755527,0.017426593229174614
1772702887056899600,2.710899658203125,0.006132784299552441,0.023729771375656128,0.023931343108415604
1772702887066949600,2.72094970703125,0.012158718891441822,0.02578653022646904,0.02691062167286873
1772702887077000700,2.731000732421875,0.01687011308968067,0.0197901614010334,0.022099491208791733
1772702887087050000,2.741050048828125,0.02004273794591427,0.009743918664753437,0.014267400838434696
1772702887097100000,2.75110009765625,0.022672545164823532,-0.004426931031048298,0.004535958636552095
1772702887107150000,2.761150146484375,0.017283638939261436,-0.013182871043682098,-0.005375794135034084
1772702887117200100,2.7712001953125,0.01619080826640129,-0.022969121113419533,-0.015421935357153416
1772702887127251200,2.781251220703125,0.012243736535310745,-0.01597752422094345,-0.0344904363155365
1772702887137301000,2.791301025390625,0.01478559710085392,-0.005449985153973103,-0.04621011018753052
1772702887147351000,2.80135107421875,0.003921497147530317,0.006845563650131226,-0.05635755509138107
1772702887157401000,2.811401123046875,0.009373585693538189,0.015814591199159622,-0.062802754342556
1772702887167452200,2.8214521484375,0.013543296605348587,0.019846085458993912,-0.07133578509092331
1772702887177502200,2.831502197265625,0.022786596789956093,0.015895817428827286,-0.07975537329912186
1772702887187552000,2.841552001953125,0.03238862380385399,-0.0007971427403390408,-0.07867759466171265
1772702887197602000,2.85160205078125,0.04325364902615547,-0.0192788727581501,-0.07705522328615189
1772702887207652000,2.861652099609375,0.04908916726708412,-0.028027359396219254,-0.0741630271077156
1772702887217703200,2.871703125,0.04998452961444855,-0.03009331226348877,-0.06609079241752625
1772702887227753200,2.881753173828125,0.05224635452032089,-0.022479334846138954,-0.05943608283996582
1772702887237803000,2.891802978515625,0.05061282962560654,-0.01165488176047802,-0.054527558386325836
1772702887247853000,2.90185302734375,0.04797576740384102,-0.0031197168864309788,-0.05564315617084503
1772702887257904000,2.911904052734375,0.04756244644522667,-0.004189508967101574,-0.0617591068148613
1772702887267954200,2.9219541015625,0.04058736190199852,-0.012172866612672806,-0.056797370314598083
1772702887278004200,2.932004150390625,0.03584227338433266,-0.014821711927652359,-0.052626561373472214
1772702887288054000,2.942053955078125,0.034919485449790955,-0.017527751624584198,-0.05027259513735771
1772702887298104000,2.95210400390625,0.031019356101751328,-0.023484809324145317,-0.050369683653116226
1772702887308155100,2.962155029296875,0.02953224815428257,-0.029373589903116226,-0.05089006572961807
1772702887318205200,2.972205078125,0.025700094178318977,-0.02083876170217991,-0.04925498366355896
1772702887328255000,2.9822548828125,0.020266979932785034,-0.01586291193962097,-0.052118945866823196
1772702887338305000,2.992304931640625,0.0213078074157238,0.005302862264215946,-0.054117731750011444
1772702887348356000,3.002356201171875,0.01571037620306015,0.008163629099726677,-0.05745307728648186
1772702887358406100,3.01240625,0.013090552762150764,0.0009516282007098198,-0.057697270065546036
1772702887368456200,3.022456298828125,0.0073679531924426556,0.0031386157497763634,-0.05006784573197365
1772702887378506000,3.032506103515625,0.010989454574882984,-0.0008612559176981449,-0.04977792873978615
1772702887388556000,3.04255615234375,0.01355461124330759,-0.010406823828816414,-0.05478547140955925
1772702887398607000,3.052607177734375,0.02173018455505371,-0.016480330377817154,-0.06164482608437538
1772702887408657200,3.0626572265625,0.027413636445999146,-0.017932817339897156,-0.056751798838377
1772702887418707200,3.072707275390625,0.030024265870451927,-0.004360182210803032,-0.04550804942846298
1772702887428757000,3.082757080078125,0.027619697153568268,0.006565968506038189,-0.03623918443918228
1772702887438808000,3.09280810546875,0.03276766091585159,0.009119170717895031,-0.03120243176817894
1772702887448858000,3.102858154296875,0.03713471442461014,0.012455579824745655,-0.033028826117515564
1772702887458908200,3.112908203125,0.03394150733947754,0.009932204149663448,-0.031628452241420746
1772702887468958200,3.122958251953125,0.03274282068014145,0.0043193260207772255,-0.02545444667339325
1772702887479008000,3.133008056640625,0.0278788935393095,0.011620812118053436,-0.02484220266342163
1772702887489059000,3.14305908203125,0.022468149662017822,0.013976376503705978,-0.02641213685274124
1772702887499109000,3.153109130859375,0.018180392682552338,0.01174048613756895,-0.036593250930309296
1772702887509159200,3.1631591796875,0.019195323809981346,-0.0019721295684576035,-0.04288523644208908
1772702887519209200,3.173209228515625,0.016911866143345833,-0.013599390164017677,-0.04572708159685135
1772702887529259000,3.183259033203125,0.019751861691474915,-0.024425938725471497,-0.03988064453005791
1772702887539310000,3.19331005859375,0.023997602984309196,-0.027155613526701927,-0.03255631402134895
1772702887549360000,3.203360107421875,0.01902334950864315,-0.017262768000364304,-0.02651679888367653
1772702887559410200,3.21341015625,0.018569545820355415,-0.008176461793482304,-0.02629302628338337
1772702887569460200,3.223460205078125,0.018158886581659317,-0.008683526888489723,-0.026287168264389038
1772702887579511000,3.233510986328125,0.016452059149742126,-0.012201018631458282,-0.01906280592083931
1772702887589561000,3.24356103515625,0.014894642867147923,-0.011383961886167526,-0.008302569389343262
1772702887599611100,3.253611083984375,0.010784127749502659,-0.009748359210789204,-0.011873757466673851
1772702887609661200,3.2636611328125,0.010103690437972546,-0.010209085419774055,-0.011920629069209099
1772702887619711200,3.273711181640625,0.0062841190956532955,-0.013947132974863052,-0.010697889141738415
1772702887629762000,3.283761962890625,0.009144887328147888,-0.013384141027927399,-0.013747207820415497
1772702887639812000,3.29381201171875,0.006525261327624321,-0.013925488106906414,-0.014196246862411499
1772702887649862100,3.303862060546875,0.003670619335025549,-0.019204672425985336,-0.016109462827444077
1772702887659912200,3.313912109375,0.003857704810798168,-0.021371880546212196,-0.017124822363257408
1772702887669963000,3.323962890625,0.000009703333489596844,-0.02489098161458969,-0.01551654003560543
1772702887680013000,3.334012939453125,-0.000140691758133471,-0.01980285719037056,-0.015460236929357052
1772702887690063000,3.34406298828125,-0.0027985263150185347,-0.0142698734998703,-0.016605393961071968
1772702887700113200,3.354113037109375,-0.005431135650724173,-0.012946300208568573,-0.018389223143458366
1772702887710163200,3.3641630859375,-0.008361944928765297,-0.019176233559846878,-0.008171739056706429
1772702887720214000,3.374214111328125,-0.00652022659778595,-0.02864784747362137,-0.00595236849039793
1772702887730264000,3.38426416015625,-0.010036398656666279,-0.03635317087173462,-0.00390546303242445
1772702887740314000,3.394314208984375,-0.01023147813975811,-0.04373165965080261,0.0039914436638355255
1772702887750364200,3.4043642578125,-0.007537957280874252,-0.04056462645530701,0.01147785596549511
1772702887760415000,3.4144150390625,-0.011949945241212845,-0.03355688601732254,0.01715143397450447
1772702887770465000,3.424465087890625,-0.012144356034696102,-0.025522928684949875,0.01938289776444435
1772702887780515000,3.43451513671875,-0.011542952619493008,-0.022302329540252686,0.023739349097013474
1772702887790565000,3.444565185546875,-0.008331180550158024,-0.018018104135990143,0.027797209098935127
1772702887800615200,3.454615234375,-0.01061277836561203,-0.007243386469781399,0.02662396803498268
1772702887810666000,3.464666015625,-0.011422378942370415,0.0030649113468825817,0.020455554127693176
1772702887820716000,3.474716064453125,-0.01685442216694355,0.006223815027624369,0.015303201973438263
1772702887830766000,3.48476611328125,-0.018942873924970627,0.009784195572137833,0.013997454196214676
1772702887840816000,3.494816162109375,-0.02166648954153061,0.015554333105683327,0.016375990584492683
1772702887850866200,3.5048662109375,-0.01872502826154232,0.014874428510665894,0.0165922399610281
1772702887860917000,3.5149169921875,-0.020129647105932236,0.009156988933682442,0.019698966294527054
1772702887870967000,3.524967041015625,-0.017964230850338936,0.010621460154652596,0.01889069750905037
1772702887881017000,3.53501708984375,-0.014811309985816479,0.005527099594473839,0.02175159752368927
1772702887891067100,3.545067138671875,-0.009829333983361721,0.004893800243735313,0.023772137239575386
1772702887901118000,3.555117919921875,-0.0049408357590436935,0.008060297928750515,0.021372629329562187
1772702887911168000,3.56516796875,-0.0043679894879460335,0.011474204249680042,0.020937735214829445
1772702887921218000,3.575218017578125,-0.0009872494265437126,0.013215851970016956,0.020351609215140343
1772702887931268000,3.58526806640625,0.0006260936497710645,0.01719008758664131,0.019819775596261024
1772702887941318100,3.595318115234375,0.00044746650382876396,0.018012365326285362,0.0162495244294405
1772702887951369000,3.605368896484375,0.0003870127256959677,0.022471031174063683,0.012656386010348797
1772702887961419000,3.6154189453125,0.0022206639405339956,0.02579468861222267,0.011967078782618046
1772702887971469000,3.625468994140625,0.0008810939034447074,0.026437044143676758,0.0058631133288145065
1772702887981519000,3.63551904296875,-0.0006083294283598661,0.019367052242159843,0.0021535761188715696
1772702887991569200,3.645569091796875,-0.0016208633314818144,0.0083953607827425,0.0052375164814293385
1772702888001620000,3.655619873046875,-0.005255554337054491,0.006793599110096693,0.003589486703276634
1772702888011670000,3.665669921875,-0.006330139935016632,0.0031426711939275265,0.0010264606680721045
1772702888021720000,3.675719970703125,-0.004794899374246597,0.0036991061642766,0.000022733351215720177
1772702888031770000,3.68577001953125,-0.006179742980748415,0.007143639028072357,0.002000929322093725
1772702888041821000,3.695821044921875,-0.0018570274114608765,0.011630332097411156,0.0010710516944527626
1772702888051871000,3.70587109375,-0.0017638166900724173,0.015531063079833984,-0.0007180598913691938
1772702888061921000,3.715921142578125,-0.004644233733415604,0.011708266101777554,0.0027753280010074377
1772702888071970800,3.725970703125,-0.0012116851285099983,0.016612477600574493,0.002563074231147766
1772702888082021000,3.736021240234375,-0.0025756177492439747,0.01361568458378315,0.0045008878223598
1772702888092072000,3.746072021484375,0.004418908152729273,0.007794015575200319,0.006248454097658396
1772702888102122000,3.7561220703125,0.00480413343757391,0.004506542347371578,0.0010729003697633743
1772702888112172000,3.766172119140625,0.0027612224221229553,0.005527598783373833,-0.0010744063183665276
1772702888122221800,3.776221923828125,0.0059065441600978374,0.009517749771475792,-0.005626644939184189
1772702888132273000,3.78627294921875,0.003689729142934084,0.019329100847244263,-0.005111056845635176
1772702888142323000,3.796322998046875,0.00514641497284174,0.031007425859570503,-0.007011207286268473
1772702888152373000,3.806373046875,0.006957097910344601,0.026389239355921745,-0.011405156925320625
1772702888162423000,3.816423095703125,0.005635440349578857,0.016835181042551994,-0.014897311106324196
1772702888172472800,3.826472900390625,0.008812591433525085,0.004982515703886747,-0.019145851954817772
1772702888182524000,3.83652392578125,0.0083133764564991,-0.003950854763388634,-0.017659639939665794
1772702888192574000,3.846573974609375,0.008702464401721954,-0.0026970384642481804,-0.021317491307854652
1772702888202624000,3.8566240234375,0.014651104807853699,-0.001884676981717348,-0.018844464793801308
1772702888212674000,3.866674072265625,0.013861743733286858,-0.0009728106670081615,-0.016740834340453148
1772702888222723800,3.876723876953125,0.017794638872146606,0.0020885919220745564,-0.02056724950671196
1772702888232775000,3.88677490234375,0.017007140442728996,0.0069291540421545506,-0.018804768100380898
1772702888242825000,3.896824951171875,0.022087184712290764,0.007240244187414646,-0.023006785660982132
1772702888252875000,3.906875,0.01574273593723774,0.008384871296584606,-0.022554848343133926
1772702888262925000,3.916925048828125,0.017579717561602592,0.009517611935734749,-0.019750123843550682
1772702888272976100,3.92697607421875,0.01311013475060463,0.007247800473123789,-0.02141486667096615
1772702888283026000,3.93702587890625,0.014320008456707,0.0022634281776845455,-0.021811677142977715
1772702888293076000,3.947075927734375,0.014970352873206139,0.0004881653003394604,-0.022359488531947136
1772702888303126000,3.9571259765625,0.017193764448165894,0.0010733623057603836,-0.020076077431440353
1772702888313176000,3.967176025390625,0.017212405800819397,-0.0013868659734725952,-0.017007850110530853
1772702888323227100,3.97722705078125,0.014825279824435711,-0.004433589056134224,-0.017437119036912918
1772702888333277000,3.98727685546875,0.014562958851456642,0.0028552161529660225,-0.02225504256784916
1772702888343327000,3.997326904296875,0.012349535711109638,0.0038237744010984898,-0.023089727386832237
1772702888353377000,4.007376953125,0.00934602227061987,0.0034003318287432194,-0.025549689307808876
1772702888363428000,4.017427978515625,0.007688605692237616,0.005484322085976601,-0.02698303759098053
1772702888373478100,4.02747802734375,0.007830286398530006,0.009722743183374405,-0.026048799976706505
1772702888383528000,4.03752783203125,0.008553799241781235,0.005721443332731724,-0.03064499795436859
1772702888393578000,4.047577880859375,0.004600869491696358,0.007543577812612057,-0.031155792996287346
1772702888403628000,4.0576279296875,0.008359191939234734,0.013693117536604404,-0.027365000918507576
1772702888413679000,4.06767919921875,0.009510742500424385,0.010809713043272495,-0.022846415638923645
1772702888423729000,4.07772900390625,0.011463507078588009,0.009024661965668201,-0.02103416807949543
1772702888433779000,4.087779052734375,0.010730339214205742,0.0082355672493577,-0.026401236653327942
1772702888443829000,4.0978291015625,0.011428087018430233,0.012696362100541592,-0.028703005984425545
1772702888453879000,4.107879150390625,0.013043025508522987,0.012969469651579857,-0.028119973838329315
1772702888463930000,4.11793017578125,0.012471378780901432,0.015700608491897583,-0.02414337545633316
1772702888473980000,4.12797998046875,0.011727291159331799,0.01546784769743681,-0.029362371191382408
1772702888484030000,4.138030029296875,0.013189230114221573,0.016850359737873077,-0.030712228268384933
1772702888494080000,4.148080078125,0.012129824608564377,0.021947383880615234,-0.03208082541823387
1772702888504130000,4.158130126953125,0.012997619807720184,0.024379316717386246,-0.035364601761102676
1772702888514181000,4.16818115234375,0.008530699647963047,0.023341484367847443,-0.04147655516862869
1772702888524231000,4.17823095703125,0.011508442461490631,0.023660428822040558,-0.0431908518075943
1772702888534281000,4.188281005859375,0.009342759847640991,0.024021819233894348,-0.039619818329811096
1772702888544331000,4.1983310546875,0.006984266452491283,0.020003776997327805,-0.037910401821136475
1772702888554382000,4.208382080078125,0.007122218608856201,0.016441799700260162,-0.03908272460103035
1772702888564432100,4.21843212890625,0.009920143522322178,0.017177501693367958,-0.03963633254170418
1772702888574482000,4.22848193359375,0.009471666999161243,0.019611630588769913,-0.033656734973192215
1772702888584532000,4.238531982421875,0.008726909756660461,0.028889082372188568,-0.0351160503923893
1772702888594582000,4.24858203125,0.007866709493100643,0.034823402762413025,-0.029608896002173424
1772702888604633000,4.258633056640625,0.008176557719707489,0.030322063714265823,-0.031388651579618454
1772702888614683100,4.26868310546875,0.0099531514570117,0.033344484865665436,-0.028910314664244652
1772702888624733000,4.27873291015625,0.007538403384387493,0.03751362860202789,-0.024000296369194984
1772702888634783000,4.288782958984375,0.005580713506788015,0.03813467547297478,-0.020271072164177895
1772702888644833000,4.2988330078125,0.004915191791951656,0.037371814250946045,-0.013831880874931812
1772702888654884000,4.308884033203125,0.00048582255840301514,0.03639443591237068,-0.01032316591590643
1772702888664934100,4.31893408203125,0.000839557615108788,0.03552854061126709,-0.009457255713641644
1772702888674984000,4.32898388671875,0.00414187740534544,0.03794535994529724,-0.011874075047671795
1772702888685034000,4.339033935546875,0.008977105841040611,0.03175017982721329,-0.004351774696260691
1772702888695085000,4.3490849609375,0.011001108214259148,0.02575513906776905,-0.005121428519487381
1772702888705135000,4.359135009765625,0.013312209397554398,0.02220567874610424,-0.0016697075916454196
1772702888715185200,4.36918505859375,0.02061139978468418,0.01937607116997242,0.005659311544150114
1772702888725235000,4.37923486328125,0.014238518662750721,0.02761952020227909,0.0032368842512369156
1772702888735285000,4.389284912109375,0.011184671893715858,0.029002496972680092,0.002913043834269047
1772702888745336000,4.399336181640625,0.011317501775920391,0.024278419092297554,0.00007040178752504289
1772702888755386000,4.40938623046875,0.01374896802008152,0.012435607612133026,0.004766886122524738
1772702888765436200,4.419436279296875,0.014205357059836388,0.0026443288661539555,0.00807788036763668
1772702888775486000,4.42948583984375,0.007009761407971382,-0.005935577675700188,0.008839543908834457
1772702888785536000,4.439535888671875,0.004049995914101601,-0.014530232176184654,0.010293079540133476
1772702888795587000,4.449587158203125,0.003182870801538229,-0.02063046768307686,0.011662743985652924
1772702888805637000,4.45963720703125,0.004494485445320606,-0.022572308778762817,0.016157958656549454
1772702888815687000,4.46968701171875,0.00654698396101594,-0.017323751002550125,0.013684680685400963
1772702888825737000,4.479737060546875,0.010577535256743431,-0.0158845167607069,0.008221173658967018
1772702888835788000,4.4897880859375,0.008663788437843323,-0.016275200992822647,0.004043472930788994
1772702888845838000,4.499838134765625,0.008008381351828575,-0.015375452116131783,0.002273603342473507
1772702888855888100,4.50988818359375,0.008344472385942936,-0.00858998391777277,0.000022965949028730392
1772702888865938000,4.51993798828125,0.0010828967206180096,-0.0065145487897098064,-0.003662931267172098
1772702888875988000,4.529988037109375,-0.000006336136721074581,-0.008314579725265503,-0.0060392701998353004
1772702888886039000,4.5400390625,0.0018570148386061192,-0.007734178099781275,-0.009411615319550037
1772702888896089000,4.550089111328125,-0.0018335937056690454,-0.0019982620142400265,-0.010514430701732635
1772702888906139100,4.56013916015625,-0.0019506332464516163,-0.0010035024024546146,-0.014579647220671177
1772702888916189000,4.57018896484375,6.648479029536247e-7,0.00579075375571847,-0.015584990382194519
1772702888926239000,4.580239013671875,-0.0010190648026764393,0.009203326888382435,-0.013247399590909481
1772702888936290000,4.5902900390625,-0.003300062147900462,0.00850744266062975,-0.011353359557688236
1772702888946340000,4.600340087890625,-0.0074233002960681915,0.00985586829483509,-0.009101424366235733
1772702888956390100,4.61039013671875,-0.008995630778372288,0.011912094429135323,-0.0032438018824905157
1772702888966440000,4.62043994140625,-0.018283208832144737,0.014324884861707687,0.0016417179722338915
1772702888976491000,4.630490966796875,-0.01822728104889393,0.015080424025654793,0.009784599766135216
1772702888986541000,4.640541015625,-0.02314121462404728,0.017039377242326736,0.015385260805487633
1772702888996591000,4.650591064453125,-0.02343948930501938,0.013882999308407307,0.020156580954790115
1772702889006641200,4.66064111328125,-0.025208093225955963,0.007022697478532791,0.024410977959632874
1772702889016691000,4.67069091796875,-0.027855008840560913,0.002994133159518242,0.029353275895118713
1772702889026742000,4.680741943359375,-0.0259554460644722,-0.006091804709285498,0.035611122846603394
1772702889036792000,4.6907919921875,-0.025626545771956444,-0.013476483523845673,0.03473254665732384
1772702889046842000,4.700842041015625,-0.023203928023576736,-0.025775263085961342,0.03158197179436684
1772702889056892200,4.71089208984375,-0.022062763571739197,-0.02383621595799923,0.03641427680850029
1772702889066942000,4.72094189453125,-0.018639005720615387,-0.016540352255105972,0.035474248230457306
1772702889076993000,4.730992919921875,-0.017790790647268295,-0.006694380193948746,0.0350918173789978
1772702889087043000,4.74104296875,-0.015972312539815903,0.010365063324570656,0.04200250282883644
1772702889097093600,4.75109375,-0.009100026451051235,0.029188551008701324,0.054602187126874924
1772702889107143700,4.761143798828125,-0.005339701659977436,0.05190315842628479,0.06263077259063721
1772702889117193700,4.77119384765625,0.0023288708180189133,0.06671352684497833,0.059416066855192184
1772702889127244800,4.781244873046875,-0.00010972167365252972,0.12529884278774261,0.02380152978003025
1772702889137294600,4.791294677734375,0.023396404460072517,0.08309546113014221,0.008691021241247654
1772702889147344600,4.8013447265625,-0.00872359424829483,0.016979224979877472,0.03165842592716217
1772702889157394700,4.811394775390625,-0.01865718513727188,0.009119438007473946,0.03579431399703026
1772702889167445800,4.82144580078125,-0.013427866622805595,0.025568418204784393,0.024612046778202057
1772702889177495600,4.83149560546875,-0.00009927875362336636,0.06231285259127617,0.005229562055319548
1772702889187545600,4.841545654296875,-0.021735791116952896,-0.0013820724561810493,0.033108312636613846
1772702889197595600,4.851595703125,-0.022649522870779037,-0.00025688670575618744,0.05065774545073509
1772702889207645700,4.861645751953125,-0.012279247865080833,0.03707420825958252,0.04435572773218155
1772702889217696800,4.87169677734375,-0.007528434507548809,0.08785562217235565,0.025361796841025352
1772702889227746600,4.88174658203125,-0.00546887144446373,0.038617439568042755,0.032260745763778687
1772702889237796600,4.891796630859375,-0.024284902960062027,-0.01815822347998619,0.04432166740298271
1772702889247846700,4.9018466796875,-0.025262754410505295,-0.01361576933413744,0.030585601925849915
1772702889257896700,4.911896728515625,-0.020205942913889885,-0.001047513447701931,0.023354319855570793
1772702889267947800,4.92194775390625,-0.019968386739492416,0.005630762316286564,0.03596671670675278
1772702889277997600,4.93199755859375,-0.010563699528574944,0.0611848384141922,0.03570066764950752
1772702889288047600,4.942047607421875,-0.014705776236951351,0.01595061458647251,0.046709656715393066
1772702889298097700,4.95209765625,-0.019328758120536804,0.011737493798136711,0.05538091063499451
1772702889308147700,4.962147705078125,-0.020063061267137527,0.07752259820699692,0.020722217857837677
1772702889318198800,4.97219873046875,-0.013925006613135338,0.02657179720699787,0.027323395013809204
1772702889328248600,4.98224853515625,-0.028509408235549927,-0.0025724386796355247,0.0512731671333313
1772702889338298600,4.992298583984375,-0.01991911605000496,0.02588050812482834,0.047400400042533875
1772702889348348700,5.0023486328125,-0.0058304546400904655,0.052998680621385574,0.0238022617995739
1772702889358399700,5.012399658203125,-0.01499918568879366,0.004117159638553858,0.03625813499093056
1772702889368449800,5.02244970703125,-0.018801655620336533,0.0011465316638350487,0.044495224952697754
1772702889378499600,5.03249951171875,-0.01933881640434265,0.0465632826089859,0.019838614389300346
1772702889388549600,5.042549560546875,-0.003651523729786277,0.03938310593366623,0.016580186784267426
1772702889398599700,5.052599609375,-0.007489937357604504,-0.002109477762132883,0.04181922972202301
1772702889408650800,5.062650634765625,-0.012088754214346409,-0.0005712714046239853,0.04742193967103958
1772702889418700800,5.07270068359375,-0.007474562153220177,0.06912445276975632,0.00694428663700819
1772702889428750600,5.08275048828125,0.0029485849663615227,0.01179528422653675,0.017479335889220238
1772702889438800600,5.092800537109375,0.003723298665136099,0.006473754998296499,0.03772734850645065
1772702889448850700,5.1028505859375,0.0035973344929516315,0.014126749709248543,0.032393235713243484
1772702889458901800,5.11290185546875,0.009754296392202377,0.0853082463145256,0.00003103679046034813
1772702889468951800,5.122951904296875,0.00931672565639019,0.027028031647205353,0.004911880474537611
1772702889479001600,5.133001708984375,0.0041597806848585606,0.005806898232549429,0.018976300954818726
1772702889489051600,5.1430517578125,0.0036563186440616846,0.006210301071405411,0.015166147612035275
1772702889499102700,5.153102783203125,0.009377853944897652,0.0105741573497653,0.009776175953447819
1772702889509152800,5.16315283203125,0.01167975552380085,0.027829241007566452,0.015883902087807655
1772702889519202800,5.173202880859375,0.023365439847111702,0.05862071365118027,-0.002846907824277878
1772702889529252600,5.183252685546875,0.011812920682132244,-0.00047083478420972824,0.011286354623734951
1772702889539302700,5.193302734375,0.01004591304808855,-0.011945863254368305,0.007765655405819416
1772702889549353500,5.203353515625,0.014339993707835674,0.008523458614945412,-0.005272382404655218
1772702889559403800,5.21340380859375,0.013003086671233177,-0.003252506721764803,-0.010786723345518112
1772702889569453800,5.223453857421875,0.008941495791077614,-0.0139087475836277,-0.006233982741832733
1772702889579503600,5.233503662109375,0.008530836552381516,-0.022310221567749977,-0.0049809655174613
1772702889589553700,5.2435537109375,0.015727439895272255,-0.024949975311756134,-0.008333402685821056
1772702889599604500,5.2536044921875,0.013581731356680393,-0.024593643844127655,-0.009568576700985432
1772702889609654800,5.26365478515625,0.014111895114183426,-0.022581394761800766,-0.003524050349369645
1772702889619704600,5.27370458984375,0.014338530600070953,-0.009960674680769444,-0.004412746988236904
1772702889629754600,5.283754638671875,0.02262987196445465,0.06665001064538956,-0.029424123466014862
1772702889639804700,5.2938046875,0.021523062139749527,-0.009182438254356384,-0.019456710666418076
1772702889649855500,5.30385546875,0.00898163765668869,-0.03254305571317673,0.001449786825105548
1772702889659905800,5.31390576171875,0.01608961448073387,-0.002466910984367132,0.0014074424980208278
1772702889669955600,5.32395556640625,0.02016139030456543,0.001153556164354086,0.004912012722343206
1772702889680005600,5.334005615234375,0.015912048518657684,-0.0014089373871684074,0.008662542328238487
1772702889690056400,5.344056396484375,0.015232617035508156,-0.00572275510057807,0.00718603515997529
1772702889700106500,5.3541064453125,0.01032547652721405,0.006589837837964296,-0.0022375602275133133
1772702889710156800,5.36415673828125,0.007482345215976238,0.0036582588218152523,-0.005738767795264721
1772702889720206600,5.37420654296875,0.00607646256685257,0.005968285258859396,-0.001117650419473648
1772702889730256600,5.384256591796875,0.00342262489721179,0.0006977571174502373,0.0018061671871691942
1772702889740307500,5.394307373046875,0.0037528567481786013,-0.010493379086256027,0.0019132263259962201
1772702889750357500,5.404357421875,0.0090964175760746,-0.01699858345091343,0.007843038067221642
1772702889760407800,5.41440771484375,0.012112447060644627,-0.017203912138938904,0.012184790335595608
1772702889770457600,5.42445751953125,0.010020006448030472,-0.008818416856229305,0.006839425303041935
1772702889780507600,5.434507568359375,0.0005641867755912244,-0.004103024024516344,0.007816272787749767
1772702889790558500,5.444558349609375,-0.0015521538443863392,0.0032719713635742664,0.004978124983608723
1772702889800608500,5.4546083984375,-0.002800377318635583,0.00031639588996768,0.0023674280382692814
1772702889810658800,5.464658935546875,-0.005637252703309059,0.004004304297268391,0.0029811044223606586
1772702889820708600,5.47470849609375,-0.0057768020778894424,0.00959800835698843,0.006243743002414703
1772702889830758700,5.484758544921875,-0.0056939697824418545,0.008115829899907112,0.013274820521473885
1772702889840809500,5.4948095703125,-0.004260656423866749,0.008286537602543831,0.014810132794082165
1772702889850859500,5.504859619140625,-0.00801452249288559,-0.0038415687158703804,0.020084956660866737
1772702889860909800,5.514909912109375,-0.010191656649112701,-0.004801372066140175,0.022541455924510956
1772702889870959600,5.524959716796875,-0.012304862029850483,-0.012168733403086662,0.02419501170516014
1772702889881009700,5.535009765625,-0.017880190163850784,-0.010408650152385235,0.024288754910230637
1772702889891060500,5.545060546875,-0.01924140751361847,0.0021015089005231857,0.024173257872462273
1772702889901110500,5.555110595703125,-0.01870051957666874,0.012778121046721935,0.027980512008070946
1772702889911160800,5.565160888671875,-0.02264026738703251,0.020718935877084732,0.03239786624908447
1772702889921210600,5.575210693359375,-0.02409728243947029,0.022889677435159683,0.037756145000457764
1772702889931261400,5.585261474609375,-0.02745918557047844,0.017382564023137093,0.03791119158267975
1772702889941311500,5.5953115234375,-0.03005443699657917,0.02332514151930809,0.03857218846678734
1772702889951361500,5.605361572265625,-0.03380662947893143,0.02941056340932846,0.034583188593387604
1772702889961411800,5.615411865234375,-0.03094746172428131,0.03289584442973137,0.034119799733161926
1772702889971461600,5.625461669921875,-0.034184541553258896,0.03531398996710777,0.03423444926738739
1772702889981512400,5.635512451171875,-0.027175897732377052,0.029743723571300507,0.028671370819211006
1772702889991562500,5.6455625,-0.027643416076898575,0.02855202555656433,0.0234289038926363
1772702890001612500,5.655612548828125,-0.025592781603336334,0.024490170180797577,0.022428087890148163
1772702890011662600,5.66566259765625,-0.022230662405490875,0.01858934760093689,0.02086644433438778
1772702890021712600,5.675712646484375,-0.026739927008748055,0.013801250606775284,0.02002488449215889
1772702890031763500,5.685763427734375,-0.027313245460391045,0.01633940450847149,0.023310409858822823
1772702890041813500,5.6958134765625,-0.029349232092499733,0.01990164816379547,0.02564573660492897
1772702890051863600,5.705863525390625,-0.02069629356265068,0.026526156812906265,0.023400407284498215
1772702890061914600,5.71591455078125,-0.019651003181934357,0.02409176155924797,0.021101834252476692
1772702890071964400,5.72596435546875,-0.01683150976896286,0.022122489288449287,0.02572501450777054
1772702890082014500,5.736014404296875,-0.01714416593313217,0.021863099187612534,0.02446161024272442
1772702890092064300,5.746064208984375,-0.014118549413979053,0.027236023917794228,0.026860851794481277
1772702890102114600,5.756114501953125,-0.012798420153558254,0.02784855104982853,0.027106929570436478
1772702890112165400,5.766165283203125,-0.011651402339339256,0.02411959134042263,0.026471631601452827
1772702890122215200,5.776215087890625,-0.014674355275928974,0.021379997953772545,0.02252376265823841
1772702890132265200,5.78626513671875,-0.011855458840727806,0.01928965374827385,0.02498127706348896
1772702890142315300,5.796315185546875,-0.01118913572281599,0.014263736084103584,0.022824382409453392
1772702890152365600,5.806365478515625,-0.00994889810681343,0.0014295661821961403,0.020411759614944458
1772702890162416400,5.81641650390625,-0.011402451433241367,-0.005180399864912033,0.013600990176200867
1772702890172466200,5.826466064453125,-0.007577096577733755,-0.00795022677630186,0.017707785591483116
1772702890182516200,5.83651611328125,-0.007349130231887102,-0.010125230066478252,0.015375922434031963
1772702890192566300,5.846566162109375,-0.006215888075530529,-0.008506127633154392,0.017087917774915695
1772702890202616600,5.856616455078125,-0.006816163659095764,0.0019608940929174423,0.015544350259006023
1772702890212667400,5.86666748046875,-0.004768254701048136,0.002959150355309248,0.01704132929444313
1772702890222717200,5.87671728515625,-0.003328816033899784,0.007873481139540672,0.0139973359182477
1772702890232767200,5.886767333984375,-0.009547630324959755,0.006739339791238308,0.012235271744430065
1772702890242817300,5.8968173828125,-0.00819527730345726,0.003659660927951336,0.015139982104301453
1772702890252868400,5.906868408203125,-0.009525728411972523,-0.005075209774076939,0.02154054120182991
1772702890262918100,5.916918212890625,-0.01486909482628107,-0.013723292388021946,0.022227102890610695
1772702890272968200,5.92696826171875,-0.011359237134456635,-0.01427638903260231,0.020744170993566513
1772702890283018200,5.937018310546875,-0.009680913761258125,-0.007234459277242422,0.020814478397369385
1772702890293068300,5.947068359375,-0.007522165775299072,-0.0008693789131939411,0.020930524915456772
1772702890303119400,5.957119384765625,-0.00904256384819746,0.0050489637069404125,0.020573928952217102
1772702890313169200,5.967169189453125,-0.010677007026970387,0.013356265611946583,0.025317834690213203
1772702890323219200,5.97721923828125,-0.013311938382685184,0.008148188702762127,0.026219580322504044
1772702890333269200,5.987269287109375,-0.01349590439349413,0.015022101812064648,0.030622635036706924
1772702890343319300,5.9973193359375,-0.015070099383592606,0.009955436922609806,0.026429221034049988
1772702890353370400,6.007370361328125,-0.018083928152918816,0.011559227481484413,0.029019195586442947
1772702890363420200,6.017420166015625,-0.015152053907513618,0.019626475870609283,0.02626628614962101
1772702890373470200,6.02747021484375,-0.01758318580687046,0.02320699580013752,0.024727627635002136
1772702890383520300,6.037520263671875,-0.018465491011738777,0.013062482699751854,0.024700462818145752
1772702890393570300,6.0475703125,-0.018187128007411957,0.016024217009544373,0.02334030531346798
1772702890403621400,6.057621337890625,-0.019918182864785194,0.020543867722153664,0.025798402726650238
1772702890413671200,6.067671142578125,-0.022286854684352875,0.01997498981654644,0.025064384564757347
1772702890423721200,6.07772119140625,-0.020976845175027847,0.02737857773900032,0.029014652594923973
1772702890433771300,6.087771240234375,-0.02016405202448368,0.037537600845098495,0.029686367139220238
1772702890443821300,6.0978212890625,-0.018919557332992554,0.045109234750270844,0.028720440343022346
1772702890453872400,6.107872314453125,-0.01898661069571972,0.05293469876050949,0.025714047253131866
1772702890463922200,6.117922119140625,-0.02032511495053768,0.03780075162649155,0.023794440552592278
1772702890473972200,6.12797216796875,-0.02182207629084587,0.006116725038737059,0.020357297733426094
1772702890484022300,6.138022216796875,-0.022066820412874222,-0.007928254082798958,0.015961483120918274
1772702890494073300,6.1480732421875,-0.021726470440626144,-0.0034596044570207596,0.021663645282387733
1772702890504123400,6.158123291015625,-0.023119037970900536,0.007181588560342789,0.025052251294255257
1772702890514173200,6.168173095703125,-0.021352287381887436,0.017292417585849762,0.019918806850910187
1772702890524223200,6.17822314453125,-0.016346344724297523,0.024456053972244263,0.012215880677103996
1772702890534273300,6.188273193359375,-0.01696799322962761,0.02668681927025318,0.013971852138638496
1772702890544324400,6.198324462890625,-0.018082259222865105,0.02849484048783779,0.014124983921647072
1772702890554374400,6.20837451171875,-0.01637190580368042,0.02322128415107727,0.018803410232067108
1772702890564424200,6.218424072265625,-0.014080256223678589,0.019137058407068253,0.01408748421818018
1772702890574474200,6.22847412109375,-0.015711987391114235,0.01807764545083046,0.014186554588377476
1772702890584524300,6.238524169921875,-0.013121798634529114,0.02392594702541828,0.01591707579791546
1772702890594575400,6.248575439453125,-0.014782601967453957,0.027543289586901665,0.02007954753935337
1772702890604625400,6.25862548828125,-0.01625586301088333,0.03902790695428848,0.024965383112430573
1772702890614675200,6.26867529296875,-0.016931645572185516,0.0400112085044384,0.022982491180300713
1772702890624725200,6.278725341796875,-0.013025054708123207,0.023357398808002472,0.015452670864760876
1772702890634775300,6.288775390625,-0.012205593287944794,0.01630561798810959,0.009681201539933681
1772702890644826400,6.298826416015625,-0.012677239254117012,-0.0008070562034845352,0.008864142931997776
1772702890654876200,6.308876220703125,-0.013416144996881485,-0.001273582223802805,0.014241032302379608
1772702890664926200,6.31892626953125,-0.016051074489951134,-0.002046165056526661,0.010296358726918697
1772702890674976300,6.328976318359375,-0.014432670548558235,0.0007729250937700272,0.007330595050007105
1772702890685026300,6.3390263671875,-0.016074776649475098,0.0013457713648676872,0.011781536042690277
1772702890695077400,6.349077392578125,-0.014898921363055706,0.0088438019156456,0.010696148499846458
1772702890705127200,6.359127197265625,-0.01134413480758667,0.0029438347555696964,0.009976295754313469
1772702890715177200,6.36917724609375,-0.009501759894192219,0.0061276438646018505,0.007546959910541773
1772702890725227300,6.379227294921875,-0.010432268492877483,0.0023363674990832806,0.010662592947483063
1772702890735278300,6.3892783203125,-0.007639198563992977,0.016804367303848267,0.013543483801186085
1772702890745328400,6.399328369140625,-0.0067816609516739845,0.02139166370034218,0.015525675378739834
1772702890755378200,6.409378173828125,-0.0077423411421477795,0.029224243015050888,0.014750777743756771
1772702890765428200,6.41942822265625,-0.00398435490205884,0.031553708016872406,0.020043278113007545
1772702890775478300,6.429478271484375,-0.004231485538184643,0.03567269816994667,0.020154397934675217
1772702890785529300,6.439529296875,-0.002594973426312208,0.03885304555296898,0.024313723668456078
1772702890795579400,6.449579345703125,-0.0026815934106707573,0.04378025606274605,0.026714179664850235
1772702890805629200,6.459629150390625,-0.004008646588772535,0.05185576155781746,0.027501676231622696
1772702890815679200,6.46967919921875,-0.006386725232005119,0.07189890742301941,0.02625681459903717
1772702890825729300,6.479729248046875,-0.003660447197034955,0.07813256978988647,0.02493828348815441
1772702890835780400,6.4897802734375,0.0299666915088892,0.321310818195343,0.2968979775905609
1772702890845830400,6.499830322265625,-0.010731203481554985,0.4220539331436157,0.31093549728393555
1772702890855880200,6.509880126953125,-0.004753671120852232,0.31875622272491455,0.12988433241844177
1772702890865930200,6.51993017578125,-0.003427949734032154,0.07474569231271744,-0.04684249311685562
1772702890875980300,6.529980224609375,-0.012980104424059391,-0.09010154753923416,-0.1092645451426506
1772702890886031400,6.54003125,-0.03160412609577179,-0.15541450679302216,-0.06555861234664917
1772702890896081400,6.550081298828125,-0.03884392976760864,-0.18999512493610382,-0.0371587909758091
1772702890906131200,6.560131103515625,-0.010832538828253746,-0.16564425826072693,-0.06572039425373077
1772702890916181200,6.57018115234375,-0.0009885544423013926,-0.05255250260233879,-0.07711116969585419
1772702890926231300,6.580231201171875,-0.0000702965771779418,0.06732063740491867,-0.03526358678936958
1772702890936282400,6.590282470703125,-0.009166259318590164,0.07014601677656174,0.026122724637389183
