time,seconds_elapsed,z,y,x
1772702884404897300,0.058897216796875,0.013796771876513958,0.02304912731051445,-0.029395971447229385
1772702884414947300,0.068947265625,0.015517174266278744,0.047199737280607224,-0.03496863692998886
1772702884424997000,0.0789970703125,0.018312428146600723,0.060685984790325165,-0.037759628146886826
1772702884435048200,0.089048095703125,0.01685328222811222,0.06910769641399384,-0.02816479280591011
1772702884445098200,0.09909814453125,0.018223479390144348,0.0692022368311882,-0.01685727760195732
1772702884455148300,0.109148193359375,0.015053518116474152,0.07486438751220703,-0.017038637772202492
1772702884465198300,0.1191982421875,0.01224601361900568,0.07322733849287033,-0.017346499487757683
1772702884475249400,0.12924951171875,0.014068680815398693,0.06825096160173416,-0.015988286584615707
1772702884485299200,0.13929931640625,0.013110741972923279,0.07016923278570175,-0.017846375703811646
1772702884495349200,0.149349365234375,0.011157846078276634,0.06864430755376816,-0.01269768550992012
1772702884505399300,0.1593994140625,0.01347373053431511,0.0654304027557373,-0.012509400025010109
1772702884515449300,0.169449462890625,0.014797587879002094,0.044859349727630615,-0.014576279558241367
1772702884525500400,0.17950048828125,0.012764264829456806,0.031189611181616783,-0.019698603078722954
1772702884535550200,0.18955029296875,0.013620737008750439,0.02335033006966114,-0.02322196587920189
1772702884545600300,0.199600341796875,0.015870574861764908,0.016598151996731758,-0.021873872727155685
1772702884555650300,0.209650390625,0.015233281068503857,0.002983539365231991,-0.028130171820521355
1772702884565701000,0.219701171875,0.01134213712066412,-0.009551427327096462,-0.028170917183160782
1772702884575751200,0.229751220703125,0.009988452307879925,-0.027542145922780037,-0.028013525530695915
1772702884585801200,0.23980126953125,0.004478638060390949,-0.038125813007354736,-0.025475798174738884
1772702884595851300,0.249851318359375,0.004796885885298252,-0.03798945993185043,-0.014853248372673988
1772702884605902000,0.259902099609375,0.0031989889685064554,-0.022232068702578545,-0.010448912158608437
1772702884615952100,0.2699521484375,0.0091170659288764,-0.008964466862380505,-0.012108061462640762
1772702884626002200,0.280002197265625,0.010308297351002693,0.0011470235185697675,-0.017488179728388786
1772702884636052200,0.29005224609375,0.016349945217370987,0.010029198601841927,-0.013073191046714783
1772702884646102300,0.300102294921875,0.009615875780582428,0.010792460292577744,-0.010337592102587223
1772702884656153000,0.310153076171875,0.0015504923649132252,0.008242483250796795,-0.006077599711716175
1772702884666203100,0.320203125,-0.0014863101532682776,0.0038802255876362324,-0.004733236040920019
1772702884676253200,0.330253173828125,0.005666407756507397,0.0016708672046661377,-0.001050617080181837
1772702884686303200,0.34030322265625,0.010962369851768017,0.00503896689042449,0.010171676985919476
1772702884696354000,0.35035400390625,0.0017022925894707441,0.02575729414820671,0.014786402694880962
1772702884706404000,0.360404052734375,-0.0014213290996849537,0.039202794432640076,0.023982297629117966
1772702884716454100,0.3704541015625,-0.000883636821527034,0.04405134543776512,0.02365339733660221
1772702884726504200,0.380504150390625,-0.0040765004232525826,0.04711238294839859,0.021164940670132637
1772702884736555000,0.390554931640625,-0.0032735576387494802,0.04652063176035881,0.023924240842461586
1772702884746605000,0.40060498046875,-0.0062453788705170155,0.0448785237967968,0.023687219247221947
1772702884756655000,0.410655029296875,-0.00824115239083767,0.0375971756875515,0.030015690252184868
1772702884766705200,0.420705078125,-0.011378355324268341,0.032339297235012054,0.032281775027513504
1772702884776756200,0.430756103515625,-0.012722719460725784,0.02431679144501686,0.030882814899086952
1772702884786806000,0.440805908203125,-0.015776298940181732,0.015955263748764992,0.03268497437238693
1772702884796856000,0.45085595703125,-0.01715688221156597,0.003655987558886409,0.030419690534472466
1772702884806906000,0.460906005859375,-0.016954747959971428,-0.0070216902531683445,0.030531810596585274
1772702884816956200,0.4709560546875,-0.01661359705030918,-0.016448747366666794,0.026450516656041145
1772702884827007200,0.48100732421875,-0.02263260819017887,-0.017241304740309715,0.027213511988520622
1772702884837057000,0.49105712890625,-0.02418150193989277,-0.01625513657927513,0.03142769634723663
1772702884847107000,0.501107177734375,-0.022114090621471405,0.00002902845517382957,0.03412681072950363
1772702884857157000,0.5111572265625,-0.019663449376821518,0.010553840547800064,0.03178589418530464
1772702884867208200,0.521208251953125,-0.017660485580563545,0.017368603497743607,0.03225327655673027
1772702884877258200,0.53125830078125,-0.017112674191594124,0.026196183636784554,0.03942250832915306
1772702884887308000,0.54130810546875,-0.01438293419778347,0.02876533567905426,0.03746961057186127
1772702884897358000,0.551358154296875,-0.013438310474157333,0.024518392980098724,0.03374358266592026
1772702884907409200,0.5614091796875,-0.013859090395271778,0.019459983333945274,0.0350693054497242
1772702884917459200,0.571459228515625,-0.017302291467785835,0.012939766980707645,0.0292377807199955
1772702884927509000,0.581509033203125,-0.014179734513163567,0.010547183454036713,0.03092649020254612
1772702884937559000,0.59155908203125,-0.018095113337039948,0.011872371658682823,0.02887958474457264
1772702884947609000,0.601609130859375,-0.01725994609296322,0.019883692264556885,0.031741950660943985
1772702884957660200,0.61166015625,-0.018132664263248444,0.0220901221036911,0.030672425404191017
1772702884967710200,0.621710205078125,-0.014597318135201931,0.022224878892302513,0.025059813633561134
1772702884977760000,0.631760009765625,-0.011234012432396412,0.010024670511484146,0.014214621856808662
1772702884987810000,0.64181005859375,-0.008832906372845173,0.006686398293823004,0.012123508378863335
1772702884997861000,0.651861083984375,-0.011611915193498135,-0.0026381274219602346,0.016021044924855232
1772702885007911200,0.6619111328125,-0.014488661661744118,-0.0017925737192854285,0.012456669472157955
1772702885017961200,0.671961181640625,-0.01161564327776432,-0.00036139096482656896,0.00806298665702343
1772702885028011000,0.682010986328125,-0.0139554962515831,0.0008751147543080151,0.0064834654331207275
1772702885038062000,0.69206201171875,-0.006388390902429819,-0.005911685060709715,0.0008578042034059763
1772702885048112000,0.702112060546875,-0.004313522018492222,0.004209924954921007,0.006521016359329224
1772702885058162200,0.712162109375,-0.002058357233181596,0.009254218079149723,0.01296533364802599
1772702885068212200,0.722212158203125,-0.0031308121979236603,0.0190205629914999,0.012765063904225826
1772702885078263300,0.73226318359375,0.001871136948466301,0.01817980222404003,0.008866994641721249
1772702885088312300,0.742312255859375,0.0029907298739999533,0.014879613183438778,0.00227939966134727
1772702885098362400,0.7523623046875,0.0041401502676308155,0.009994843043386936,0.0009302421822212636
1772702885108412400,0.762412353515625,0.0015592807903885841,0.00566880451515317,0.0023193468805402517
1772702885118462200,0.772462158203125,0.004535363521426916,0.003049319377169013,0.002228266792371869
1772702885128513300,0.78251318359375,0.004479703027755022,0.0027662254869937897,-0.001770469476468861
1772702885138563300,0.792563232421875,0.0063005066476762295,0.021098626777529716,0.001862082164734602
1772702885148613400,0.80261328125,0.00560968229547143,0.03485651686787605,0.006478405557572842
1772702885158663400,0.812663330078125,0.009362609125673771,0.04021346569061279,0.00039547940832562745
1772702885168714500,0.822714599609375,0.01296586636453867,0.03489193692803383,-0.008615858852863312
1772702885178764300,0.832764404296875,0.015123292803764343,0.029747774824500084,-0.015247928909957409
1772702885188814300,0.842814453125,0.014511564746499062,0.027394339442253113,-0.013276923447847366
1772702885198864400,0.852864501953125,0.012739230878651142,0.02497752197086811,-0.006600378546863794
1772702885208915500,0.86291552734375,0.012206865474581718,0.011004714295268059,-0.008509065955877304
1772702885218965500,0.872965576171875,0.018086591735482216,0.004098072182387114,-0.0138993039727211
1772702885229015300,0.883015380859375,0.018332401290535927,0.009917345829308033,-0.012408998794853687
1772702885239065300,0.8930654296875,0.0202243123203516,0.008114918135106564,-0.007225688546895981
1772702885249115400,0.903115478515625,0.0182328000664711,0.004634166602045298,-0.014504107646644115
1772702885259166500,0.91316650390625,0.01679682359099388,0.00166607357095927,-0.01780536212027073
1772702885269216500,0.923216552734375,0.018384600058197975,-0.00352868833579123,-0.012677712365984917
1772702885279266300,0.933266357421875,0.018017349764704704,-0.004141747951507568,-0.010510697960853577
1772702885289316400,0.94331640625,0.019524432718753815,0.0015182681381702423,-0.018626147881150246
1772702885299367400,0.953367431640625,0.018971294164657593,-0.0070608388632535934,-0.023968715220689774
1772702885309417500,0.96341748046875,0.01834891363978386,-0.008085357025265694,-0.023994814604520798
1772702885319467500,0.973467529296875,0.02033722959458828,-0.012753612361848354,-0.022158564999699593
1772702885329517300,0.983517333984375,0.025888055562973022,-0.008814530447125435,-0.02527446299791336
1772702885339568400,0.993568359375,0.027233751490712166,-0.0031196267809718847,-0.025172198191285133
1772702885349618400,1.003618408203125,0.03158615529537201,0.010963968001306057,-0.02521081455051899
1772702885359668500,1.01366845703125,0.03220454230904579,0.015030348673462868,-0.024507740512490273
1772702885369718300,1.02371826171875,0.036558542400598526,0.0255208071321249,-0.02486034296452999
1772702885379769300,1.033769287109375,0.03279310092329979,0.031147798523306847,-0.026125876232981682
1772702885389819400,1.0438193359375,0.029705164954066277,0.03506424278020859,-0.022670958191156387
1772702885399869400,1.053869384765625,0.02901247702538967,0.028477713465690613,-0.028305673971772194
1772702885409919500,1.06391943359375,0.03129693493247032,0.02201848290860653,-0.0368027538061142
1772702885419969300,1.07396923828125,0.03271986171603203,0.013161874376237392,-0.039628636091947556
1772702885430020400,1.084020263671875,0.031750474125146866,0.0020719394087791443,-0.042149316519498825
1772702885440070400,1.0940703125,0.03213290125131607,0.0028069717809557915,-0.04375919699668884
1772702885450120400,1.104120361328125,0.03543895110487938,0.004060521721839905,-0.05239742621779442
1772702885460170500,1.11417041015625,0.03517769277095795,0.011507784947752953,-0.05275988578796387
1772702885470221600,1.1242216796875,0.035778503865003586,0.004748416133224964,-0.04969778284430504
1772702885480271400,1.134271240234375,0.031259652227163315,0.003014432033523917,-0.05260249227285385
1772702885490321400,1.1443212890625,0.02996109426021576,-0.009467004798352718,-0.051783300936222076
1772702885500371500,1.154371337890625,0.030964840203523636,-0.014415424317121506,-0.044262804090976715
1772702885510421500,1.16442138671875,0.029253492131829262,-0.020114855840802193,-0.044607147574424744
1772702885520472600,1.17447265625,0.029679864645004272,-0.023966586217284203,-0.04351871460676193
1772702885530522400,1.1845224609375,0.028627915307879448,-0.022596389055252075,-0.041962362825870514
1772702885540572400,1.194572509765625,0.022531939670443535,-0.023737553507089615,-0.040109600871801376
1772702885550622500,1.20462255859375,0.026918699964880943,-0.017666878178715706,-0.03665681555867195
1772702885560673500,1.214673583984375,0.020796092227101326,-0.01471716072410345,-0.03570526838302612
1772702885570723600,1.2247236328125,0.018612565472722054,-0.008782572112977505,-0.03489327058196068
1772702885580773400,1.2347734375,0.01967383548617363,-0.009333847090601921,-0.03586186096072197
1772702885590823400,1.244823486328125,0.019641345366835594,-0.006314621306955814,-0.03327086940407753
1772702885600874500,1.25487451171875,0.015789881348609924,-0.00026604978484101593,-0.03033393807709217
1772702885610924500,1.264924560546875,0.01501410361379385,0.014451110735535622,-0.027308320626616478
1772702885620974600,1.274974609375,0.014652978628873825,0.021627264097332954,-0.028194885700941086
1772702885631024400,1.2850244140625,0.0183505117893219,0.018975289538502693,-0.0315890833735466
1772702885641074400,1.295074462890625,0.01811801828444004,0.014824219979345798,-0.02629045955836773
1772702885651125500,1.30512548828125,0.013409548439085484,0.013805028051137924,-0.020021378993988037
1772702885661175600,1.315175537109375,0.014459366910159588,0.019651198759675026,-0.018201373517513275
1772702885671225600,1.3252255859375,0.012895558960735798,0.024561801925301552,-0.014300642535090446
1772702885681275400,1.335275390625,0.011974637396633625,0.03291400894522667,-0.01119113527238369
1772702885691326500,1.345326416015625,0.008687498047947884,0.04204971715807915,-0.01019884180277586
1772702885701376500,1.35537646484375,0.009863816201686859,0.043054524809122086,-0.009037436917424202
1772702885711426600,1.365426513671875,0.013342703692615032,0.03839852288365364,-0.011502458713948727
1772702885721476400,1.375476318359375,0.012635900638997555,0.04208460450172424,-0.009689378552138805
1772702885731527400,1.38552734375,0.012921124696731567,0.04829855635762215,-0.00592420157045126
1772702885741577500,1.395577392578125,0.011147992685437202,0.05444939434528351,-0.0023574302904307842
1772702885751627500,1.40562744140625,0.011385013349354267,0.05811070650815964,-0.00464721629396081
1772702885761677600,1.415677490234375,0.01181937474757433,0.05619988963007927,-0.0008133294177241623
1772702885771727400,1.425727294921875,0.012406069785356522,0.04953799024224281,-0.004590224474668503
1772702885781778400,1.4357783203125,0.01366174966096878,0.03869599848985672,-0.00708747049793601
1772702885791828500,1.445828369140625,0.012645754031836987,0.029499035328626633,-0.0035089810844510794
1772702885801878500,1.45587841796875,0.012201272882521152,0.01335655152797699,-0.00691915862262249
1772702885811928600,1.465928466796875,0.013514743186533451,0.010190851986408234,-0.008492288179695606
1772702885821979600,1.475979736328125,0.014841264113783836,0.004381432663649321,-0.007305583450943232
1772702885832029400,1.486029541015625,0.015508119948208332,0.0036509274505078793,-0.010241452604532242
1772702885842079500,1.49607958984375,0.015153919346630573,0.003855990944430232,-0.010321080684661865
1772702885852129500,1.506129638671875,0.014882543124258518,0.008727178908884525,-0.010998322628438473
1772702885862180400,1.516180419921875,0.012750948779284954,0.013139237649738789,-0.009354885667562485
1772702885872230700,1.526230712890625,0.01612251065671444,0.013290771283209324,-0.012802081182599068
1772702885882280400,1.536280517578125,0.016146745532751083,0.004086354281753302,-0.007733287289738655
1772702885892330500,1.54633056640625,0.012267318554222584,0.007774299941956997,-0.007201187312602997
1772702885902380500,1.556380615234375,0.011832158081233501,0.004099670331925154,-0.004659466445446014
1772702885912431400,1.566431396484375,0.012295814231038094,0.00857271533459425,-0.009578324854373932
1772702885922481700,1.576481689453125,0.010432400740683079,0.00606375141069293,-0.009123457595705986
1772702885932531500,1.586531494140625,0.010123740881681442,0.009176986292004585,-0.009611348621547222
1772702885942581500,1.59658154296875,0.0076187714003026485,0.011531220749020576,-0.00740385428071022
1772702885952632300,1.60663232421875,0.005131645128130913,0.011990882456302643,-0.007564442697912455
1772702885962682400,1.616682373046875,0.008716526441276073,0.016482038423419,-0.005958290304988623
1772702885972732400,1.626732421875,0.006585464812815189,0.02851579710841179,-0.005929528269916773
1772702885982782500,1.636782470703125,0.005849899724125862,0.03734816983342171,-0.005666407756507397
1772702885992832500,1.64683251953125,0.007921040058135986,0.0480322390794754,0.0036661075428128242
1772702886002883300,1.65688330078125,0.005714344792068005,0.047925714403390884,0.0007321029552258551
1772702886012933400,1.666933349609375,0.001996838254854083,0.038910381495952606,-0.007006244268268347
1772702886022983400,1.6769833984375,-0.00009800432599149644,0.033302564173936844,-0.010834804736077785
1772702886033033500,1.687033447265625,-0.004443218000233173,0.035767585039138794,-0.010908041149377823
1772702886043084300,1.697084228515625,-0.002781405346468091,0.031258851289749146,-0.009739979170262814
1772702886053134300,1.70713427734375,-0.0034562505315989256,0.026790335774421692,-0.005877862684428692
1772702886063184400,1.717184326171875,-0.006128998938947916,0.02581189014017582,0.00018988338706549257
1772702886073234400,1.727234375,-0.0038890140131115913,0.016860738396644592,0.008650746196508408
1772702886083285500,1.737285400390625,-0.004320712294429541,0.021638715639710426,0.013436180539429188
1772702886093335600,1.74733544921875,-0.0002564624010119587,0.028189560398459435,0.019585419446229935
1772702886103385300,1.75738525390625,-0.005471464246511459,0.014025005511939526,0.019650133326649666
1772702886113435400,1.767435302734375,-0.008527974598109722,0.012561864219605923,0.01968076080083847
1772702886123485400,1.7774853515625,-0.007939948700368404,0.014608503319323063,0.02101180888712406
1772702886133536500,1.78753662109375,-0.0075822859071195126,0.01005156897008419,0.01696380414068699
1772702886143586600,1.797586669921875,-0.009850233793258667,0.018036523833870888,0.018624018877744675
1772702886153636400,1.80763623046875,-0.011873437091708183,0.022652581334114075,0.01744716800749302
1772702886163686400,1.817686279296875,-0.01179327629506588,0.027629230171442032,0.01426202617585659
1772702886173737500,1.827737548828125,-0.007309578359127045,0.03327513113617897,0.008279767818748951
1772702886183787500,1.83778759765625,-0.008010256104171276,0.03484826162457466,0.005567338317632675
1772702886193837600,1.847837646484375,-0.006961503066122532,0.02912699244916439,0.000922519015148282
1772702886203887400,1.857887451171875,-0.008271245285868645,0.022225145250558853,-0.001972603378817439
1772702886213937400,1.8679375,-0.007523163687437773,0.019123626872897148,-0.0020098877139389515
1772702886223988500,1.877988525390625,-0.005920473486185074,0.012279036454856396,-0.0057409764267504215
1772702886234038500,1.88803857421875,-0.006739927921444178,0.004542820155620575,-0.013142167590558529
1772702886244088600,1.898088623046875,-0.002612827345728874,-0.00911493506282568,-0.018936673179268837
1772702886254138400,1.908138427734375,0.002576608443632722,-0.004792358260601759,-0.027765851467847824
1772702886264189400,1.918189453125,0.003245594445616007,-0.012467321939766407,-0.03716787323355675
1772702886274239500,1.928239501953125,0.004381166305392981,-0.019026953727006912,-0.03219548612833023
1772702886284289500,1.93828955078125,0.005733785685151815,-0.013382118195295334,-0.026328276842832565
1772702886294339600,1.948339599609375,0.008564193733036518,-0.0036421390250325203,-0.03792927414178848
1772702886304389400,1.958389404296875,0.012134959921240807,-0.0037739656399935484,-0.048110805451869965
1772702886314440400,1.9684404296875,0.015241803601384163,-0.008597482927143574,-0.04671051353216171
1772702886324490500,1.978490478515625,0.015328622423112392,-0.005375057924538851,-0.04036553204059601
1772702886334540500,1.98854052734375,0.019579293206334114,0.0010988202411681414,-0.03305568918585777
1772702886344590600,1.998590576171875,0.02256070263683796,-0.004321245010942221,-0.034322019666433334
1772702886354641700,2.0086416015625,0.027349598705768585,0.0003326288133393973,-0.031850606203079224
1772702886364691500,2.01869140625,0.0312734991312027,0.0014008227735757828,-0.02803589589893818
1772702886374741500,2.028741455078125,0.032409071922302246,0.0013518205378204584,-0.01985839381814003
1772702886384791600,2.03879150390625,0.03225327655673027,0.007755924016237259,-0.014926218427717686
1772702886394842600,2.048842529296875,0.029217805713415146,0.01751774176955223,-0.011773568578064442
1772702886404892400,2.058892333984375,0.03032914362847805,0.031095068901777267,-0.01284762192517519
1772702886414942500,2.0689423828125,0.029651103541254997,0.0472404807806015,-0.01119140163064003
1772702886424992500,2.078992431640625,0.021692778915166855,0.0400954894721508,-0.012525378726422787
1772702886435042600,2.08904248046875,0.02215110883116722,0.040950361639261246,-0.0030088394414633512
1772702886445093600,2.09909375,0.02774268202483654,0.029196500778198242,0.0055090151727199554
1772702886455143400,2.109143310546875,0.0263674259185791,0.019897541031241417,0.02285631373524666
1772702886465193500,2.119193359375,0.018822424113750458,0.016441024839878082,0.03861077502369881
1772702886475243500,2.129243408203125,0.021644575521349907,0.005542837083339691,0.05547497794032097
1772702886485294600,2.139294677734375,0.03044552356004715,0.006856041960418224,0.07165580987930298
1772702886495344600,2.1493447265625,0.04236982762813568,0.04547134414315224,0.09111925959587097
1772702886505394400,2.15939453125,0.06932101398706436,0.08539878576993942,0.11872079223394394
1772702886515444500,2.169444580078125,0.054849933832883835,0.09612919390201569,0.11379527300596237
1772702886525494500,2.17949462890625,0.00811864621937275,0.01780429668724537,0.11899615824222565
1772702886535545600,2.189545654296875,-0.012210060842335224,-0.004580370616167784,0.09264738112688065
1772702886545595600,2.199595703125,-0.02599564753472805,0.07057057321071625,0.045592520385980606
1772702886555645400,2.2096455078125,-0.023443007841706276,0.02911767177283764,0.009521067142486572
1772702886565695500,2.219695556640625,-0.03784218803048134,-0.011137072928249836,0.00418489146977663
1772702886575746600,2.22974658203125,-0.04881787300109863,-0.0011470235185697675,0.0013371731620281935
1772702886585796600,2.239796630859375,-0.05205361545085907,0.009137571789324284,0.00890933908522129
1772702886595846700,2.2498466796875,-0.04694327339529991,0.02340785413980484,0.030253775417804718
1772702886605896400,2.259896484375,-0.05247918516397476,0.041138648986816406,0.05431756749749184
1772702886615946500,2.269946533203125,-0.0515846312046051,0.05205467715859413,0.0641491562128067
1772702886625997600,2.27999755859375,-0.04891135171055794,0.06789995729923248,0.06396619975566864
1772702886636047600,2.290047607421875,-0.04815021902322769,0.05549521744251251,0.054189201444387436
1772702886646097700,2.30009765625,-0.04632355645298958,0.0424657016992569,0.060136307030916214
1772702886656147500,2.3101474609375,-0.040760744363069534,0.03550499677658081,0.06381919234991074
1772702886666198500,2.320198486328125,-0.03833860158920288,0.04051467031240463,0.06525623798370361
1772702886676248600,2.33024853515625,-0.03021569363772869,0.0439448207616806,0.07099854201078415
1772702886686298600,2.340298583984375,-0.038850460201501846,0.00974663719534874,0.08214866369962692
1772702886696348700,2.3503486328125,-0.03365436568856239,0.008021441288292408,0.08514844626188278
1772702886706398500,2.3603984375,-0.01363458577543497,0.00606428412720561,0.08801667392253876
1772702886716449500,2.370449462890625,0.021034445613622665,0.0004492752777878195,0.08294202387332916
1772702886726499600,2.38049951171875,0.03994102403521538,-0.04885302484035492,0.08148367702960968
1772702886736549600,2.390549560546875,0.04152214154601097,-0.0297847930341959,0.0759192630648613
1772702886746599700,2.400599609375,0.021313544362783432,-0.05335003882646561,0.07842929661273956
1772702886756650500,2.410650390625,0.0006548712844960392,-0.021341508254408836,0.06483199447393417
1772702886766700500,2.420700439453125,0.008410529233515263,-0.06365860253572464,0.058030012995004654
1772702886776750600,2.43075048828125,0.00535588338971138,-0.053460560739040375,0.05903349071741104
1772702886786800600,2.440800537109375,0.019280487671494484,-0.028269987553358078,0.06210651248693466
1772702886796851700,2.450851806640625,0.03729304298758507,0.03380323573946953,0.043353065848350525
1772702886806901500,2.460901611328125,0.07646255195140839,-0.005853095557540655,0.05259529873728752
1772702886816951600,2.47095166015625,0.07799360156059265,0.00884728692471981,0.04987514764070511
1772702886827001600,2.481001708984375,0.07481884956359863,-0.0049582733772695065,0.0437549389898777
1772702886837051600,2.4910517578125,0.07394266873598099,-0.03510206192731857,0.04394002631306648
1772702886847102700,2.501102783203125,0.06115150451660156,0.013856426812708378,0.022854981943964958
1772702886857152500,2.511152587890625,0.07737654447555542,-0.011766377836465836,0.03280961140990257
1772702886867202600,2.52120263671875,0.0700877383351326,0.03760623186826706,0.021190771833062172
1772702886877252600,2.531252685546875,0.07689904421567917,0.01050244178622961,0.03154700621962547
1772702886887302700,2.541302734375,0.0720563530921936,0.05233857035636902,0.02250637486577034
1772702886897353700,2.551353759765625,0.06391080468893051,0.022577747702598572,0.01986505091190338
1772702886907403500,2.561403564453125,0.02809262089431286,0.00830799713730812,0.015401859767735004
1772702886917453600,2.57145361328125,0.013257748447358608,0.007891745306551456,0.020891966298222542
1772702886927503600,2.581503662109375,0.015051387250423431,0.011274492368102074,0.020666396245360374
1772702886937554700,2.5915546875,0.018972359597682953,0.017019197344779968,0.024089623242616653
1772702886947604700,2.601604736328125,0.02550562657415867,0.026163427159190178,0.030966171994805336
1772702886957654500,2.611654541015625,0.031369373202323914,0.03813619911670685,0.030348051339387894
1772702886967704600,2.62170458984375,0.026092853397130966,0.03990666940808296,0.019942017272114754
1772702886977755600,2.631755615234375,0.018628278747200966,0.035718582570552826,-0.0016700683627277613
1772702886987805700,2.6418056640625,-0.0023869911674410105,0.01804185099899769,-0.0242542065680027
1772702886997855700,2.651855712890625,-0.014026070013642311,0.010847854427993298,-0.025671275332570076
1772702887007905500,2.661905517578125,-0.016870593652129173,0.01641812175512314,-0.015867114067077637
1772702887017955600,2.67195556640625,-0.011144530028104782,0.00743234995752573,-0.006631004624068737
1772702887028006700,2.682006591796875,-0.008624646812677383,0.0014594122767448425,0.003979029133915901
1772702887038056700,2.692056640625,-0.001335575245320797,0.0021840583067387342,0.016106264665722847
1772702887048106800,2.702106689453125,0.0025451830588281155,0.02190103754401207,0.018569422885775566
1772702887058156500,2.712156494140625,0.006161755882203579,0.034274082630872726,0.024214260280132294
1772702887068207600,2.72220751953125,0.011202853173017502,0.033793915063142776,0.02430320903658867
1772702887078257700,2.732257568359375,0.01444258913397789,0.026875555515289307,0.02243899554014206
1772702887088307200,2.74230712890625,0.019161444157361984,0.014613031409680843,0.011664113029837608
1772702887098357000,2.75235693359375,0.022011559456586838,0.0037228327710181475,0.0010101370280608535
1772702887108407000,2.762406982421875,0.01601092517375946,-0.006898918654769659,-0.008172708563506603
1772702887118458000,2.7724580078125,0.013095295988023281,-0.013894244097173214,-0.021147362887859344
1772702887128508200,2.782508056640625,0.010498713701963425,-0.010016681626439095,-0.036970000714063644
1772702887138558200,2.79255810546875,0.009622800163924694,0.002311623888090253,-0.04795634001493454
1772702887148608000,2.80260791015625,0.0039145806804299355,0.016700949519872665,-0.05462249740958214
1772702887158658000,2.812657958984375,0.008698416873812675,0.024468325078487396,-0.06411480158567429
1772702887168709000,2.822709228515625,0.012471850030124187,0.027518710121512413,-0.07546679675579071
1772702887178759200,2.83275927734375,0.022891201078891754,0.02130289189517498,-0.08011454343795776
1772702887188809200,2.842809326171875,0.03129773586988449,0.003935619257390499,-0.07753100991249084
1772702887198859000,2.85285888671875,0.043126430362463,-0.013707823120057583,-0.07774725556373596
1772702887208910000,2.86291015625,0.048896171152591705,-0.023516777902841568,-0.07295090705156326
1772702887218960100,2.872960205078125,0.04867246374487877,-0.02167094126343727,-0.06460242718458176
1772702887229010200,2.88301025390625,0.04933026432991028,-0.013166402466595173,-0.05807076022028923
1772702887239060200,2.893060302734375,0.047796282917261124,-0.002433596644550562,-0.05286827310919762
1772702887249110000,2.903110107421875,0.045407429337501526,0.0046781087294220924,-0.05607685074210167
1772702887259161000,2.9131611328125,0.0422222875058651,0.00310524576343596,-0.06166869029402733
1772702887269211100,2.923211181640625,0.0405021533370018,-0.0032948628067970276,-0.05970460921525955
1772702887279261200,2.93326123046875,0.03455451503396034,-0.009858223609626293,-0.05264297127723694
1772702887289311200,2.943311279296875,0.03200880065560341,-0.01010696217417717,-0.05028181150555611
1772702887299362000,2.953362060546875,0.030278809368610382,-0.015107846818864346,-0.051967062056064606
1772702887309412000,2.963412109375,0.025073396041989326,-0.02472292259335518,-0.049672216176986694
1772702887319462100,2.973462158203125,0.0239399541169405,-0.01293683797121048,-0.049367815256118774
1772702887329512200,2.98351220703125,0.016984310001134872,-0.007535147946327925,-0.05590880662202835
1772702887339562000,2.99356201171875,0.019509784877300262,0.013194898143410683,-0.05368053913116455
1772702887349613000,3.003613037109375,0.015973906964063644,0.014669223688542843,-0.062011171132326126
1772702887359663000,3.0136630859375,0.008564193733036518,0.006162820849567652,-0.0565040223300457
1772702887369713200,3.023713134765625,0.008475776761770248,0.01082628220319748,-0.05092416703701019
1772702887379763200,3.03376318359375,0.009473929181694984,0.0062973108142614365,-0.05296414718031883
1772702887389814000,3.04381396484375,0.013046559877693653,-0.0037374801468104124,-0.05519241467118263
1772702887399864000,3.053864013671875,0.02171754650771618,-0.008020642213523388,-0.06178427115082741
1772702887409914000,3.0639140625,0.028385568410158157,-0.009924003854393959,-0.055452339351177216
1772702887419964200,3.073964111328125,0.027220435440540314,0.005453621037304401,-0.045463088899850845
1772702887430014200,3.08401416015625,0.0274507999420166,0.017535051330924034,-0.03623843193054199
1772702887440065000,3.09406494140625,0.031505197286605835,0.016821058467030525,-0.033194173127412796
1772702887450115000,3.104114990234375,0.03470684587955475,0.020563865080475807,-0.036326583474874496
1772702887460165000,3.1141650390625,0.03508288785815239,0.016516925767064095,-0.03008386678993702
1772702887470215200,3.124215087890625,0.028849491849541664,0.012779977172613144,-0.027545340359210968
1772702887480266000,3.134265869140625,0.02449389174580574,0.02039502002298832,-0.025431856513023376
1772702887490316000,3.14431591796875,0.018443189561367035,0.023027820512652397,-0.027414847165346146
1772702887500366000,3.154365966796875,0.01914333365857601,0.01555259432643652,-0.03551698103547096
1772702887510416100,3.164416015625,0.015973640605807304,0.002930808812379837,-0.04565110802650452
1772702887520466200,3.174466064453125,0.01781628094613552,-0.00869069341570139,-0.047441016882658005
1772702887530517000,3.18451708984375,0.017888186499476433,-0.01594221405684948,-0.042215362191200256
1772702887540567000,3.194567138671875,0.019896475598216057,-0.018438927829265594,-0.03249216452240944
1772702887550617000,3.2046171875,0.018743326887488365,-0.00788428820669651,-0.02941701002418995
1772702887560667100,3.214667236328125,0.020172379910945892,0.0005648564547300339,-0.026854516938328743
1772702887570718000,3.224718017578125,0.016267653554677963,-0.00014514227223116904,-0.024565264582633972
1772702887580768000,3.23476806640625,0.013977867551147938,-0.0038807583041489124,-0.016534501686692238
1772702887590818000,3.244818115234375,0.010617224499583244,-0.0056829191744327545,-0.009681922383606434
1772702887600868000,3.2548681640625,0.009162073023617268,-0.0033545177429914474,-0.011938151903450489
1772702887610918100,3.264918212890625,0.010437460616230965,-0.003067162586376071,-0.011065168306231499
1772702887620969000,3.274968994140625,0.00646588858217001,-0.003704723436385393,-0.011483550071716309
1772702887631019000,3.28501904296875,0.006353237200528383,-0.005646966863423586,-0.01455603912472725
1772702887641069000,3.295069091796875,0.004003529902547598,-0.007935155183076859,-0.01757686398923397
1772702887651119000,3.305119140625,0.0021515677217394114,-0.010180732235312462,-0.017713749781250954
1772702887661169200,3.315169189453125,0.0008183894096873701,-0.01443779468536377,-0.016207199543714523
1772702887671220000,3.325219970703125,-0.0020730046089738607,-0.017531322315335274,-0.016584569588303566
1772702887681270000,3.33527001953125,-0.0030242856591939926,-0.011685151606798172,-0.015295599587261677
1772702887691320000,3.345320068359375,-0.0065497783944010735,-0.010215619578957558,-0.017197895795106888
1772702887701370000,3.3553701171875,-0.006800381932407618,-0.008327172137796879,-0.01500851009041071
1772702887711421000,3.3654208984375,-0.008360194973647594,-0.012770922854542732,-0.01338744442909956
1772702887721471000,3.375470947265625,-0.00953997578471899,-0.021038971841335297,-0.008016381412744522
1772702887731521000,3.38552099609375,-0.009159144014120102,-0.029438050463795662,-0.004710332956165075
1772702887741571000,3.395571044921875,-0.009727728553116322,-0.03531618043780327,0.005605421494692564
1772702887751621000,3.40562109375,-0.011807923205196857,-0.0326618067920208,0.010478206910192966
1772702887761672000,3.415671875,-0.014823687262833118,-0.02365632727742195,0.017432520166039467
1772702887771722000,3.425721923828125,-0.015123559162020683,-0.01725994609296322,0.019661851227283478
1772702887781772000,3.43577197265625,-0.010862767696380615,-0.01648177206516266,0.02725851908326149
1772702887791822000,3.445822021484375,-0.009168997406959534,-0.01004863902926445,0.02592560648918152
1772702887801873000,3.455872802734375,-0.008375109173357487,0.002017610939219594,0.023966053500771523
1772702887811923000,3.4659228515625,-0.012376508675515652,0.009306415915489197,0.021710621193051338
1772702887821973000,3.475972900390625,-0.019281020388007164,0.013408749364316463,0.015104117803275585
1772702887832023000,3.48602294921875,-0.020440027117729187,0.018629077821969986,0.011318701319396496
1772702887842073000,3.496072998046875,-0.023539148271083832,0.024212129414081573,0.018388062715530396
1772702887852124000,3.5061240234375,-0.021330056712031364,0.019638415426015854,0.015143533237278461
1772702887862174000,3.516174072265625,-0.02028609625995159,0.016559801995754242,0.015107580460608006
1772702887872224000,3.52622412109375,-0.015674566850066185,0.014297446236014366,0.019288210198283195
1772702887882274000,3.536274169921875,-0.015299327671527863,0.014590660110116005,0.020863203331828117
1772702887892324000,3.546323974609375,-0.012146145105361938,0.012484366074204445,0.022909043356776237
1772702887902375000,3.556375,-0.006325540132820606,0.016292687505483627,0.02064189501106739
1772702887912425000,3.566425048828125,-0.00518837058916688,0.019460249692201614,0.019306320697069168
1772702887922475000,3.57647509765625,-0.0018074874533340335,0.02033722959458828,0.018786204978823662
1772702887932525000,3.586525146484375,-0.003667971817776561,0.02334926463663578,0.018973158672451973
1772702887942576000,3.596576171875,0.0004540689697023481,0.02461160346865654,0.01576751098036766
1772702887952626000,3.6066259765625,-0.002326004905626178,0.030485738068819046,0.012291020713746548
1772702887962676000,3.616676025390625,0.002239984693005681,0.0355827622115612,0.012317919172346592
1772702887972726000,3.62672607421875,0.0013406352372840047,0.03224209323525429,0.004292749334126711
1772702887982776000,3.636776123046875,0.00033902039285749197,0.024899756535887718,0.002037584548816085
1772702887992827000,3.646826904296875,-0.003035204717889428,0.016288692131638527,0.0014122743159532547
1772702888002877000,3.656876953125,-0.0062360577285289764,0.012865731492638588,0.004036553204059601
1772702888012927000,3.666927001953125,-0.0089993542060256,0.01101616583764553,0.0010215885704383254
1772702888022977000,3.67697705078125,-0.006489857099950314,0.011684086173772812,-0.0007118629291653633
1772702888033027000,3.687027099609375,-0.006391586735844612,0.015270831994712353,-0.00009933590627042577
1772702888043078000,3.697077880859375,-0.004322310443967581,0.01980033703148365,0.004854409955441952
1772702888053128000,3.7071279296875,-0.0029699571896344423,0.022339660674333572,0.001371527905575931
1772702888063178000,3.717177978515625,-0.0033369408920407295,0.021266140043735504,0.003579288488253951
1772702888073228000,3.72722802734375,-0.004251470323652029,0.02316231094300747,0.0012250541476532817
1772702888083279000,3.737279052734375,-0.004637628793716431,0.019954266026616096,0.003626959165558219
1772702888093329000,3.747328857421875,-0.0003070624661631882,0.012913135811686516,0.0043532028794288635
1772702888103379000,3.75737890625,0.0013432984706014395,0.014867096208035946,0.00029774141148664057
1772702888113429000,3.767428955078125,0.0018884475575760007,0.014837801456451416,-0.001216798322275281
1772702888123479000,3.77747900390625,0.0012474246323108673,0.01793132908642292,-0.0062128882855176926
1772702888133530000,3.787530029296875,0.0015211976133286953,0.03130758926272392,-0.00794127956032753
1772702888143580000,3.797579833984375,0.0014572817599400878,0.0395231731235981,-0.005625927820801735
1772702888153630000,3.8076298828125,0.0037121803034096956,0.03375104069709778,-0.013674532994627953
1772702888163680000,3.817679931640625,0.004793157335370779,0.02358229085803032,-0.018458103761076927
1772702888173730000,3.82772998046875,0.006358563434332609,0.010278469882905483,-0.019512182101607323
1772702888183781000,3.837781005859375,0.006316218990832567,0.004207261838018894,-0.021623536944389343
1772702888193831000,3.847830810546875,0.006303968373686075,0.003698065411299467,-0.022875754162669182
1772702888203881000,3.857880859375,0.012444685213267803,0.005912217777222395,-0.019166236743330956
1772702888213931000,3.867930908203125,0.014906511642038822,0.005547630600631237,-0.021162543445825577
1772702888223982000,3.877982177734375,0.017740381881594658,0.012791695073246956,-0.02082192525267601
1772702888234032000,3.8880322265625,0.016039952635765076,0.014868427999317646,-0.020927386358380318
1772702888244082000,3.89808203125,0.016877250745892525,0.017943046987056732,-0.02281130664050579
1772702888254132000,3.908132080078125,0.014362693764269352,0.015589079819619656,-0.022010494023561478
1772702888264182000,3.91818212890625,0.01648683100938797,0.018210696056485176,-0.021100224927067757
1772702888274233000,3.928233154296875,0.013463877141475677,0.01317945122718811,-0.020851751789450645
1772702888284283100,3.938283203125,0.01341434195637703,0.009166600182652473,-0.023915719240903854
1772702888294333000,3.9483330078125,0.015616243705153465,0.008650479838252068,-0.024158865213394165
1772702888304383000,3.958383056640625,0.01636219583451748,0.010089118964970112,-0.01925518736243248
1772702888314434000,3.96843408203125,0.01417600642889738,0.0051833102479577065,-0.0156500656157732
1772702888324484000,3.978484130859375,0.011435081250965595,0.0062879896722733974,-0.018801650032401085
1772702888334534100,3.9885341796875,0.014210893772542477,0.008566323667764664,-0.01878354139626026
1772702888344584000,3.998583984375,0.011023356579244137,0.01191018894314766,-0.023736754432320595
1772702888354634000,4.008634033203125,0.006313023157417774,0.011951201595366001,-0.023602796718478203
1772702888364685000,4.01868505859375,0.005341768264770508,0.014192784205079079,-0.025539714843034744
1772702888374735000,4.028735107421875,0.002947852946817875,0.017376858741044998,-0.02714134007692337
1772702888384785200,4.03878515625,0.007244597189128399,0.01312192715704441,-0.03105192631483078
1772702888394835000,4.0488349609375,0.00301709515042603,0.016871923580765724,-0.03130439296364784
1772702888404885000,4.058885009765625,0.005940979812294245,0.019031481817364693,-0.025077655911445618
1772702888414936000,4.06893603515625,0.00863530021160841,0.016647685319185257,-0.023870445787906647
1772702888424986000,4.078986083984375,0.007580687757581472,0.017166735604405403,-0.021321533247828484
1772702888435036000,4.089035888671875,0.01167689636349678,0.017952902242541313,-0.02522066794335842
1772702888445086000,4.0990859375,0.010113620199263096,0.019459718838334084,-0.02935762144625187
1772702888455137000,4.109136962890625,0.012514726258814335,0.02190769650042057,-0.026402046903967857
1772702888465187000,4.11918701171875,0.011717109940946102,0.021925006061792374,-0.02430427446961403
1772702888475237000,4.129237060546875,0.01011069118976593,0.02280757762491703,-0.030604781582951546
1772702888485287000,4.139286865234375,0.008989233523607254,0.026143187656998634,-0.03161012381315231
1772702888495337000,4.1493369140625,0.011356251314282417,0.029826872050762177,-0.03217364847660065
1772702888505388000,4.159387939453125,0.012744290754199028,0.031864188611507416,-0.03438061103224754
1772702888515438000,4.16943798828125,0.010506968945264816,0.03249429166316986,-0.04332030937075615
1772702888525488000,4.179488037109375,0.010093913413584232,0.030615700408816338,-0.042091794312000275
1772702888535538000,4.189537841796875,0.008716260083019733,0.029333388432860374,-0.04285398870706558
1772702888545588000,4.199587890625,0.008737032301723957,0.027957864105701447,-0.040893372148275375
1772702888555639000,4.20963916015625,0.008696019649505615,0.02069915272295475,-0.044502485543489456
1772702888565689000,4.219689208984375,0.006716492120176554,0.026201777160167694,-0.03945180028676987
1772702888575739100,4.2297392578125,0.005155080929398537,0.028246551752090454,-0.03436383232474327
1772702888585789000,4.239788818359375,0.007200921420007944,0.034634411334991455,-0.03207431361079216
1772702888595840000,4.249840087890625,0.00606375141069293,0.04059616103768349,-0.03363572433590889
1772702888605890000,4.25989013671875,0.006298375781625509,0.03950905799865723,-0.02804308570921421
1772702888615940000,4.269940185546875,0.006947921123355627,0.04129044711589813,-0.027526166290044785
1772702888625990100,4.279990234375,0.006429669912904501,0.04559837654232979,-0.02345898747444153
1772702888636040000,4.2900400390625,0.005221393425017595,0.044142160564661026,-0.019475163891911507
1772702888646091000,4.300091064453125,0.0031968585681170225,0.045168809592723846,-0.011814581230282784
1772702888656141000,4.31014111328125,-0.002633067313581705,0.04438743740320206,-0.01338691171258688
1772702888666191000,4.320191162109375,0.0001978728687390685,0.04555097222328186,-0.010587130673229694
1772702888676241200,4.3302412109375,0.003176884725689888,0.043479032814502716,-0.010456901974976063
1772702888686291000,4.340291015625,0.007285077124834061,0.03893781080842018,-0.00612287363037467
1772702888696342000,4.350342041015625,0.00905528012663126,0.03191559016704559,-0.004564391914755106
1772702888706392000,4.36039208984375,0.013158679008483887,0.0288753230124712,-0.00032330775866284966
1772702888716442000,4.370442138671875,0.017601363360881805,0.0268276184797287,0.0032384039368480444
1772702888726492200,4.3804921875,0.010485930368304253,0.03447781503200531,0.0017102820565924048
1772702888736543000,4.39054296875,0.01007899921387434,0.037343110889196396,0.0009629990672692657
1772702888746593000,4.400593017578125,0.008320247754454613,0.030345922335982323,0.0003171824791934341
1772702888756643000,4.41064306640625,0.011468104086816311,0.017857028171420097,0.0049247173592448235
1772702888766693000,4.420693115234375,0.012571984902024269,0.011895009316504002,0.007996673695743084
1772702888776743200,4.4307431640625,0.003465571440756321,0.003311640815809369,0.010211891494691372
1772702888786794000,4.4407939453125,0.0005052016349509358,-0.008188687264919281,0.010743457823991776
1772702888796844000,4.450843994140625,0.0021576930303126574,-0.013454023748636246,0.013113937340676785
1772702888806894000,4.46089404296875,0.0020029633305966854,-0.012388492934405804,0.01350622158497572
1772702888816944000,4.470944091796875,0.006155097857117653,-0.009846239350736141,0.01290328148752451
1772702888826994000,4.480993896484375,0.005950567312538624,-0.007598265074193478,0.007355917245149612
1772702888837045000,4.491044921875,0.004927380476146936,-0.008378304541110992,0.0022146848496049643
1772702888847095000,4.501094970703125,0.003962517250329256,-0.004299940075725317,-0.0012173309223726392
1772702888857145000,4.51114501953125,0.003519367426633835,-0.0025161546654999256,0.000278300343779847
1772702888867195100,4.521195068359375,0.0018285263795405626,0.001755023142322898,-0.00202267081476748
1772702888877245000,4.531244873046875,-0.0019313243683427572,-0.0002844255941454321,-0.007778560742735863
1772702888887296000,4.5412958984375,-0.003349191276356578,-0.00023915186466183513,-0.010861968621611595
1772702888897346000,4.551345947265625,-0.004049336537718773,0.005921006202697754,-0.01332725677639246
1772702888907396000,4.56139599609375,-0.0034530546981841326,0.00848403200507164,-0.017170997336506844
1772702888917446100,4.571446044921875,-0.0038016624748706818,0.013705692254006863,-0.015596802346408367
1772702888927497200,4.581497314453125,-0.0010226538870483637,0.01537362951785326,-0.010576211847364902
1772702888937547000,4.591547119140625,-0.007649663835763931,0.018160361796617508,-0.014180000871419907
1772702888947597000,4.60159716796875,-0.009049953892827034,0.01901763305068016,-0.006833671126514673
1772702888957647000,4.611647216796875,-0.012427374720573425,0.022435534745454788,-0.001181378262117505
1772702888967697200,4.621697265625,-0.016596021130681038,0.02208346500992775,0.0030117689166218042
1772702888977748200,4.631748291015625,-0.02082778327167034,0.022581741213798523,0.007542072329670191
1772702888987798000,4.641798095703125,-0.023028885945677757,0.024926654994487762,0.013626329600811005
1772702888997848000,4.65184814453125,-0.026098445057868958,0.019935091957449913,0.017764350399374962
1772702889007898000,4.661898193359375,-0.02870354987680912,0.011923771351575851,0.02245337702333927
1772702889017948200,4.6719482421875,-0.03008226864039898,0.011722968891263008,0.029202893376350403
1772702889027999200,4.681999267578125,-0.02774907276034355,0.0009922938188537955,0.0323086716234684
1772702889038049000,4.692049072265625,-0.02870887704193592,-0.007811850402504206,0.0325654000043869
1772702889048099000,4.70209912109375,-0.025621740147471428,-0.017739849165081978,0.033423203974962234
1772702889058149000,4.712149169921875,-0.02088291198015213,-0.01477654930204153,0.03287805616855621
1772702889068200200,4.7222001953125,-0.021587051451206207,-0.010213488712906837,0.03453933447599411
1772702889078250200,4.732250244140625,-0.0189001876860857,0.0029225528705865145,0.03556358814239502
1772702889088300800,4.74230078125,-0.01629801280796528,0.020532172173261642,0.044865209609270096
1772702889098350600,4.7523505859375,-0.009947971440851688,0.03997191786766052,0.057923488318920135
1772702889108400600,4.762400634765625,-0.00458782771602273,0.0633816346526146,0.0649944469332695
1772702889118451700,4.77245166015625,0.004289287142455578,0.07404306530952454,0.05646087974309921
1772702889128501800,4.782501708984375,-0.0014290522085502744,0.14553377032279968,0.014605840668082237
1772702889138551800,4.7925517578125,0.02039528638124466,0.0763096809387207,0.01347586140036583
1772702889148601600,4.8026015625,-0.014929148368537426,0.02056759223341942,0.03557050973176956
1772702889158651600,4.812651611328125,-0.01794065162539482,0.020242953673005104,0.03231692686676979
1772702889168702700,4.82270263671875,-0.015105982311069965,0.045288652181625366,0.01648470014333725
1772702889178752800,4.832752685546875,-0.0028626318089663982,0.0567314550280571,0.0054301852360367775
1772702889188802600,4.842802490234375,-0.02323395013809204,0.005200620740652084,0.03633110970258713
1772702889198852600,4.8528525390625,-0.02063310705125332,0.010368218645453453,0.04982534795999527
1772702889208903400,4.8629033203125,-0.013133112341165543,0.047443680465221405,0.04475389048457146
1772702889218953700,4.87295361328125,-0.011373295448720455,0.1001572236418724,0.023154854774475098
1772702889229003800,4.883003662109375,-0.007248857989907265,0.0362783782184124,0.03257152438163757
1772702889239053600,4.893053466796875,-0.027509655803442,-0.012234029360115528,0.043231092393398285
1772702889249103600,4.903103515625,-0.02582440711557865,-0.0027414578944444656,0.027364779263734818
1772702889259154400,4.913154541015625,-0.02159290947020054,0.0049532135017216206,0.023024359717965126
1772702889269204700,4.923204833984375,-0.018516426905989647,0.013834322802722454,0.03955353423953056
1772702889279254800,4.9332548828125,-0.008333031088113785,0.06377658247947693,0.037335921078920364
1772702889289304600,4.9433046875,-0.01912922039628029,0.020417390391230583,0.049964096397161484
1772702889299354600,4.953354736328125,-0.022106368094682693,0.022308234125375748,0.05066797137260437
1772702889309405400,4.963405517578125,-0.020619258284568787,0.0868651270866394,0.022901587188243866
1772702889319455700,4.973455810546875,-0.0169126708060503,0.02965696156024933,0.033311616629362106
1772702889329505800,4.983505859375,-0.031140608713030815,0.004821919370442629,0.049973417073488235
1772702889339555600,4.9935556640625,-0.02232261560857296,0.05159315466880798,0.036549754440784454
1772702889349605600,5.003605712890625,-0.005009139887988567,0.051909804344177246,0.023440344259142876
1772702889359656400,5.013656494140625,-0.018201107159256935,0.010875817388296127,0.03964035212993622
1772702889369706800,5.023706787109375,-0.016163790598511696,0.008931975811719894,0.04345107078552246
1772702889379756800,5.0337568359375,-0.018756376579403877,0.06605811417102814,0.01564713567495346
1772702889389806600,5.043806640625,-0.00475480780005455,0.03907043859362602,0.018737735226750374
1772702889399857400,5.053857421875,-0.011391405016183853,0.0035979305393993855,0.045283060520887375
1772702889409907500,5.063907470703125,-0.013859889470040798,0.009578591212630272,0.0417514406144619
1772702889419957800,5.073957763671875,-0.0037987329997122288,0.07460100203752518,0.005572398193180561
1772702889430007800,5.0840078125,0.002353169023990631,0.015874037519097328,0.017656225711107254
1772702889440057600,5.0940576171875,0.0010721886064857244,0.012687565758824348,0.03762434050440788
1772702889450108400,5.1041083984375,-0.00002663161103555467,0.025173796340823174,0.033363815397024155
1772702889460158500,5.114158447265625,0.009016131982207298,0.08887580782175064,-0.0004090615548193455
1772702889470208800,5.124208740234375,0.005327387247234583,0.03117176704108715,0.00720438314601779
1772702889480258800,5.1342587890625,0.0014961638953536749,0.013827398419380188,0.019277291372418404
1772702889490308600,5.14430859375,0.004509264137595892,0.013888385146856308,0.011524030938744545
1772702889500359400,5.154359375,0.0067758806981146336,0.021699968725442886,0.010581538081169128
1772702889510409500,5.164409423828125,0.008390555158257484,0.05073747783899307,0.006314621306955814
1772702889520459800,5.174459716796875,0.02328827790915966,0.05600015074014664,-0.005085572600364685
1772702889530509800,5.184509765625,0.010850783437490463,0.0031092404387891293,0.009983125142753124
1772702889540559600,5.1945595703125,0.00965635571628809,-0.0012306467397138476,0.007144195958971977
1772702889550610400,5.2046103515625,0.013042299076914787,0.016535833477973938,-0.00762782571837306
1772702889560660500,5.214660400390625,0.01011042483150959,0.0023289343807846308,-0.010744523257017136
1772702889570710800,5.224710693359375,0.005914880894124508,-0.008842759765684605,-0.0035055188927799463
1772702889580760800,5.2347607421875,0.010135192424058914,-0.0170879065990448,-0.00740225613117218
1772702889590810600,5.244810546875,0.011593539267778397,-0.016701215878129005,-0.008322378620505333
1772702889600861400,5.254861328125,0.012256666086614132,-0.018161427229642868,-0.008610266260802746
1772702889610911500,5.264911376953125,0.013769341632723808,-0.013069729320704937,-0.0010484865633770823
1772702889620961800,5.2749619140625,0.013504090718925,-0.000844754686113447,-0.004965463653206825
1772702889631011600,5.285011474609375,0.02533225528895855,0.07014233618974686,-0.03281094506382942
1772702889641062400,5.2950625,0.019175026565790176,-0.009791377931833267,-0.015359515324234962
1772702889651112400,5.305112548828125,0.007734618615359068,-0.02364221215248108,0.0024836640805006027
1772702889661162500,5.31516259765625,0.01810896210372448,0.00806165486574173,0.00016405072528868914
1772702889671211500,5.32521142578125,0.018632806837558746,0.009552492760121822,0.007987353019416332
1772702889681262600,5.3352626953125,0.015598666854202747,0.003195527009665966,0.0076121133752167225
1772702889691312600,5.345312744140625,0.011273693293333054,0.004613660275936127,0.003937750123441219
1772702889701362700,5.35536279296875,0.007702927105128765,0.012377307750284672,-0.0037982002831995487
1772702889711412700,5.365412841796875,0.0039009982720017433,0.013461746275424957,-0.007021158002316952
1772702889721462500,5.375462646484375,0.0028389296494424343,0.015413311310112476,-0.0012511530658230186
1772702889731513600,5.385513671875,0.0027425233274698257,0.0025094966404139996,0.0034530546981841326
1772702889741563600,5.395563720703125,0.002950782421976328,-0.004460262134671211,0.002638659905642271
1772702889751613700,5.40561376953125,0.0067575047723948956,-0.009718673303723335,0.010101103223860264
1772702889761663700,5.415663818359375,0.009660083800554276,-0.012330436147749424,0.010714429430663586
1772702889771713500,5.425713623046875,0.008263789117336273,-0.001421861699782312,0.008234494365751743
1772702889781764600,5.4357646484375,-0.0024868599139153957,0.005106611177325249,0.008170577697455883
1772702889791814700,5.445814697265625,-0.002255697501823306,0.010716293938457966,0.004932973068207502
1772702889801864700,5.45586474609375,-0.005963882897049189,0.0100212087854743,0.0024897893890738487
1772702889811914800,5.465914794921875,-0.006702910177409649,0.013220197521150112,0.005874400492757559
1772702889821965600,5.475965576171875,-0.007730357814580202,0.016643159091472626,0.006083991378545761
1772702889832015600,5.486015625,-0.007447263691574335,0.015357917174696922,0.013937653042376041
1772702889842065700,5.496065673828125,-0.005032309330999851,0.014810903929173946,0.01501144003123045
1772702889852115700,5.50611572265625,-0.008345814421772957,0.005559614859521389,0.019331352785229683
1772702889862165800,5.516165771484375,-0.011464109644293785,0.0015544871566817164,0.022611303254961967
1772702889872216600,5.526216552734375,-0.013913685455918312,-0.005487443413585424,0.028172515332698822
1772702889882266600,5.5362666015625,-0.019483420997858047,-0.002802977105602622,0.02635490894317627
1772702889892316700,5.546316650390625,-0.020473316311836243,0.009314938448369503,0.025048628449440002
1772702889902366700,5.55636669921875,-0.0210080798715353,0.020136427134275436,0.02774614281952381
1772702889912416800,5.566416748046875,-0.022888537496328354,0.02949157916009426,0.030376281589269638
1772702889922467600,5.576467529296875,-0.026548786088824272,0.029497705399990082,0.03520406037569046
1772702889932517600,5.586517578125,-0.03237578272819519,0.026668362319469452,0.03737400472164154
1772702889942567700,5.596567626953125,-0.030918501317501068,0.036078907549381256,0.03719663619995117
1772702889952617700,5.60661767578125,-0.03431403264403343,0.03806908801198006,0.03038933128118515
1772702889962667800,5.616667724609375,-0.03338991478085518,0.04152773693203926,0.031505197286605835
1772702889972718600,5.626718505859375,-0.033899109810590744,0.041484326124191284,0.03111291117966175
1772702889982768600,5.6367685546875,-0.026683276519179344,0.036081038415431976,0.028006333857774734
1772702889992818700,5.646818603515625,-0.02773682214319706,0.03465065360069275,0.020067185163497925
1772702890002868700,5.65686865234375,-0.027096865698695183,0.03044232726097107,0.021568408235907555
1772702890012918800,5.666918701171875,-0.02449815161526203,0.025404958054423332,0.019293271005153656
1772702890022969600,5.676969482421875,-0.029079588130116463,0.023297332227230072,0.02075028605759144
1772702890033019600,5.68701953125,-0.027272367849946022,0.02756638079881668,0.02323661372065544
1772702890043069700,5.697069580078125,-0.027966121211647987,0.027091538533568382,0.023487215861678123
1772702890053119700,5.70711962890625,-0.023611586540937424,0.03373932093381882,0.02299533039331436
1772702890063170600,5.717170654296875,-0.02268959954380989,0.03265434876084328,0.021580392494797707
1772702890073220600,5.727220703125,-0.01936597377061844,0.028009796515107155,0.024031300097703934
1772702890083270700,5.737270751953125,-0.018643992021679878,0.030613036826252937,0.022416625171899796
1772702890093320400,5.747320556640625,-0.015727298334240913,0.03417448326945305,0.029387982562184334
1772702890103370500,5.75737060546875,-0.012114985845983028,0.03494493290781975,0.023607591167092323
1772702890113421600,5.767421630859375,-0.01221591979265213,0.030832480639219284,0.02606196142733097
1772702890123471400,5.777471435546875,-0.014668424613773823,0.028367992490530014,0.019510583952069283
1772702890133521400,5.787521484375,-0.013218333944678307,0.027344007045030594,0.021158548071980476
1772702890143571500,5.797571533203125,-0.011396464891731739,0.02094176784157753,0.02075561136007309
1772702890153621500,5.80762158203125,-0.01212750282138586,0.008827846497297287,0.019487414509058
1772702890163672300,5.81767236328125,-0.013067864812910557,0.0027257453184574842,0.012912869453430176
1772702890173722400,5.827722412109375,-0.008243282325565815,-0.0016378440195694566,0.019993947818875313
1772702890183772400,5.8377724609375,-0.008952482603490353,-0.0026666230987757444,0.016681509092450142
1772702890193822500,5.847822509765625,-0.0075881448574364185,-0.001222657272592187,0.01774757169187069
1772702890203872500,5.85787255859375,-0.0076177059672772884,0.009013202041387558,0.01679309457540512
1772702890213923300,5.86792333984375,-0.004484763368964195,0.011890214867889881,0.014819692820310593
1772702890223973400,5.877973388671875,-0.00697907991707325,0.01786927878856659,0.013574664480984211
1772702890234023400,5.8880234375,-0.010042247362434864,0.01715182326734066,0.013801299966871738
1772702890244073500,5.898073486328125,-0.009400160051882267,0.011002050712704659,0.01537815760821104
1772702890254124300,5.908124267578125,-0.011573831550776958,0.004591822158545256,0.020057331770658493
1772702890264174300,5.91817431640625,-0.01611984707415104,-0.007492803502827883,0.019809924066066742
1772702890274224400,5.928224365234375,-0.01312059536576271,-0.005137237720191479,0.018499914556741714
1772702890284274400,5.9382744140625,-0.010401507839560509,0.000595216522924602,0.019123893231153488
1772702890294324500,5.948324462890625,-0.009258746169507504,0.008857141248881817,0.019899139180779457
1772702890304375300,5.958375244140625,-0.011037737131118774,0.01471689436584711,0.018266355618834496
1772702890314425300,5.96842529296875,-0.011097392067313194,0.020808609202504158,0.022118618711829185
1772702890324475400,5.978475341796875,-0.015202920883893967,0.016894826665520668,0.026141589507460594
1772702890334525400,5.988525390625,-0.01677711494266987,0.02437111921608448,0.027665715664625168
1772702890344575500,5.998575439453125,-0.014332333579659462,0.015422631986439228,0.028051340952515602
1772702890354626300,6.008626220703125,-0.018764900043606758,0.017590710893273354,0.027182085439562798
1772702890364676400,6.01867626953125,-0.01884612627327442,0.02708061970770359,0.026375148445367813
1772702890374726400,6.028726318359375,-0.01889539323747158,0.029046831652522087,0.02285737916827202
1772702890384776400,6.0387763671875,-0.02069915272295475,0.020420853048563004,0.02425740286707878
1772702890394826500,6.048826416015625,-0.01888687163591385,0.02382703498005867,0.02690751478075981
1772702890404877300,6.058877197265625,-0.02243633382022381,0.02616955153644085,0.026337597519159317
1772702890414927400,6.06892724609375,-0.025727201253175735,0.026793263852596283,0.025202026590704918
1772702890424977400,6.078977294921875,-0.025949042290449142,0.03837402164936066,0.02906360849738121
1772702890435027500,6.08902734375,-0.02123844251036644,0.04452698677778244,0.03280934691429138
1772702890445077500,6.099077392578125,-0.01906983181834221,0.052371859550476074,0.02672562003135681
1772702890455128300,6.10912841796875,-0.023432888090610504,0.05964495241641998,0.025174062699079514
1772702890465178400,6.119178466796875,-0.022302376106381416,0.041667018085718155,0.02449735254049301
1772702890475228400,6.129228515625,-0.025005217641592026,0.012582104653120041,0.017677264288067818
1772702890485278500,6.139278564453125,-0.022550849243998528,-0.0018469021888449788,0.013042831793427467
1772702890495329300,6.149329345703125,-0.02286723256111145,0.004297809209674597,0.023431822657585144
1772702890505379300,6.15937939453125,-0.02364780567586422,0.013471334241330624,0.024106135591864586
1772702890515429400,6.169429443359375,-0.021638449281454086,0.02605237253010273,0.018184863030910492
1772702890525479400,6.1794794921875,-0.018264757469296455,0.03512656316161156,0.014425012283027172
1772702890535529500,6.189529541015625,-0.01643250323832035,0.032393891364336014,0.01714463159441948
1772702890545580300,6.199580322265625,-0.018093783408403397,0.03338352218270302,0.017651963979005814
1772702890555630300,6.20963037109375,-0.018495386466383934,0.03278111666440964,0.017615478485822678
1772702890565680400,6.219680419921875,-0.014783473685383797,0.02544597163796425,0.01636406034231186
1772702890575730400,6.22973046875,-0.014999189414083958,0.024566596373915672,0.014466024935245514
1772702890585780500,6.239780517578125,-0.016321182250976562,0.033853039145469666,0.015083878301084042
1772702890595831300,6.249831298828125,-0.01461968943476677,0.03653883561491966,0.021927669644355774
1772702890605881300,6.25988134765625,-0.01474379189312458,0.047027695924043655,0.02629711851477623
1772702890615931400,6.269931396484375,-0.016690829768776894,0.04565456882119179,0.021257618442177773
1772702890625981400,6.2799814453125,-0.016514528542757034,0.030051643028855324,0.012734437361359596
1772702890636031500,6.290031494140625,-0.013349893502891064,0.02135562151670456,0.012042547576129436
1772702890646082300,6.300082275390625,-0.013785853050649166,0.006200904026627541,0.008639827370643616
1772702890656132400,6.31013232421875,-0.01654941588640213,0.008259261026978493,0.012792227789759636
1772702890666182400,6.320182373046875,-0.013978665694594383,0.004209924954921007,0.009483782574534416
1772702890676232400,6.330232421875,-0.014364291913807392,0.009237440302968025,0.004884770140051842
1772702890686282500,6.340282470703125,-0.01780696026980877,0.010214287787675858,0.010603109374642372
1772702890696333300,6.350333251953125,-0.01429078821092844,0.014494520612061024,0.01038446370512247
1772702890706383400,6.36038330078125,-0.010669155977666378,0.010757572948932648,0.0084877610206604
1772702890716433400,6.370433349609375,-0.011786351911723614,0.014821822755038738,0.007285609841346741
1772702890726483500,6.3804833984375,-0.012534433975815773,0.01161590963602066,0.009811618365347385
1772702890736534300,6.3905341796875,-0.011686749756336212,0.027955735102295876,0.01022733747959137
1772702890746584300,6.400584228515625,-0.012241486459970474,0.02918158657848835,0.011891280300915241
1772702890756634000,6.410634033203125,-0.010819890536367893,0.03774311766028404,0.013933658599853516
1772702890766684400,6.420684326171875,-0.0068033114075660706,0.03927789628505707,0.019870910793542862
1772702890776734500,6.430734375,-0.007879761047661304,0.046720635145902634,0.018192319199442863
1772702890786785300,6.440785400390625,-0.004691424313932657,0.04920775815844536,0.02484436333179474
1772702890796835300,6.45083544921875,-0.004804875236004591,0.051115382462739944,0.02376684918999672
1772702890806885000,6.460885009765625,-0.00561154680326581,0.05855918303132057,0.02755253203213215
1772702890816935400,6.470935302734375,-0.007456851191818714,0.08041068911552429,0.025116538628935814
1772702890826985500,6.4809853515625,-0.006025934591889381,0.09371264278888702,0.031023429706692696
1772702890837036300,6.491036376953125,0.02618126943707466,0.3623467683792114,0.3293778896331787
1772702890847086300,6.50108642578125,-0.013910755515098572,0.42460721731185913,0.29089441895484924
1772702890857136000,6.51113623046875,-0.0036165728233754635,0.30157503485679626,0.10754536837339401
1772702890867186400,6.5211865234375,-0.008390821516513824,0.05356975272297859,-0.0657648965716362
1772702890877236500,6.531236572265625,-0.015851400792598724,-0.09410519152879715,-0.11038269847631454
1772702890887287300,6.541287353515625,-0.03393053635954857,-0.15425348281860352,-0.05746116116642952
1772702890897337300,6.55133740234375,-0.03761981427669525,-0.18325264751911163,-0.03971865028142929
1772702890907387100,6.56138720703125,-0.0090555464848876,-0.1481577754020691,-0.06880410015583038
1772702890917437400,6.5714375,-0.0037976677995175123,-0.028567463159561157,-0.07439406961202621
1772702890927487500,6.581487548828125,-0.003222425002604723,0.07996300607919693,-0.028721926733851433
1772702890937538300,6.591538330078125,-0.013004748150706291,0.07308166474103928,0.031036213040351868
1772702890947588400,6.60158837890625,-0.019512448459863663,0.0212461668998003,0.011227088049054146
