time,seconds_elapsed,z,y,x
1772701984376648400,0.0586484375,0.0635608658194542,0.029407955706119537,-0.07570088654756546
1772701984386697500,0.068697509765625,0.05789552256464958,0.054434213787317276,-0.05638071894645691
1772701984396746200,0.078746337890625,0.04367371276021004,0.08037739992141724,-0.044679585844278336
1772701984406795300,0.088795166015625,0.04093385115265846,0.09535980969667435,-0.043303266167640686
1772701984416844000,0.098843994140625,0.0406707301735878,0.11797244101762772,-0.05072682723402977
1772701984426894000,0.10889404296875,0.03560379892587662,0.13530269265174866,-0.06126628816127777
1772701984436943400,0.118943359375,0.02858663722872734,0.15550224483013153,-0.06736678630113602
1772701984446992100,0.1289921875,0.016861537471413612,0.17371612787246704,-0.07616960257291794
1772701984457041200,0.139041259765625,0.0016050871927291155,0.18298234045505524,-0.0673191174864769
1772701984467090200,0.149090087890625,-0.017015468329191208,0.17373158037662506,-0.051788896322250366
1772701984477139200,0.15913916015625,-0.029138710349798203,0.1760418713092804,-0.046434611082077026
1772701984487188200,0.169188232421875,-0.033906299620866776,0.18993504345417023,-0.03146285191178322
1772701984497237200,0.1792373046875,-0.039623577147722244,0.2027379274368286,-0.03244369477033615
1772701984507286300,0.189286376953125,-0.04686524346470833,0.2169586718082428,-0.03176352381706238
1772701984517335300,0.199335205078125,-0.046577088534832,0.23430490493774414,-0.0313323549926281
1772701984527384300,0.20938427734375,-0.0427064523100853,0.2661699056625366,-0.01660054735839367
1772701984537434000,0.21943408203125,-0.040407076478004456,0.28432705998420715,-0.01191152073442936
1772701984547483100,0.229483154296875,-0.03942304104566574,0.3223990797996521,-0.003981692250818014
1772701984557532400,0.239532470703125,-0.04234479367733002,0.34515419602394104,-0.0007387608638964593
1772701984567581200,0.249581298828125,-0.05366136506199837,0.3546941578388214,0.0013070794520899653
1772701984577630200,0.259630126953125,-0.06658461689949036,0.37161457538604736,0.009012136608362198
1772701984587679200,0.26967919921875,-0.09080660343170166,0.3857855200767517,0.007931692525744438
1772701984597728300,0.279728271484375,-0.10428538918495178,0.4054468274116516,0.012381834909319878
1772701984607777000,0.289777099609375,-0.12086570262908936,0.4355940818786621,0.005395031534135342
1772701984617826300,0.299826416015625,-0.1390226036310196,0.4902922213077545,0.012690228410065174
1772701984627875000,0.309875,-0.14506904780864716,0.5177257061004639,0.033180855214595795
1772701984637924000,0.319924072265625,-0.15231603384017944,0.5387012958526611,0.06028357893228531
1772701984647974100,0.32997412109375,-0.1697877049446106,0.5472782850265503,0.08512980490922928
1772701984658023200,0.340023193359375,-0.1793348640203476,0.5453740954399109,0.11217714101076126
1772701984668072200,0.350072265625,-0.1741342544555664,0.5428494215011597,0.1518704891204834
1772701984678121200,0.360121337890625,-0.1363368034362793,0.519731342792511,0.19384616613388062
1772701984688170200,0.370170166015625,-0.08658283203840256,0.5193350315093994,0.2146691530942917
1772701984698219300,0.38021923828125,-0.030015956610441208,0.5657885670661926,0.1996944695711136
1772701984708268300,0.390268310546875,0.028072914108633995,0.6591816544532776,0.12786900997161865
1772701984718317300,0.4003173828125,0.08891256153583527,0.7559486627578735,0.006727410946041346
1772701984728366000,0.410365966796875,0.09509295970201492,0.8555428981781006,-0.14103782176971436
1772701984738415400,0.420415283203125,0.07338660210371017,0.9292698502540588,-0.24937494099140167
1772701984748465400,0.43046533203125,0.07370990514755249,0.9504241347312927,-0.3234443664550781
1772701984758514200,0.44051416015625,0.09580029547214508,0.93448406457901,-0.36184316873550415
1772701984768563200,0.450563232421875,0.13945190608501434,0.9144237637519836,-0.393575519323349
1772701984778612200,0.4606123046875,0.1772187203168869,0.8570587635040283,-0.44756364822387695
1772701984788661200,0.4706611328125,0.21407367289066315,0.7615935206413269,-0.5056048631668091
1772701984798710000,0.4807099609375,0.2567138075828552,0.5665382742881775,-0.5604888796806335
1772701984808759300,0.49075927734375,0.25152942538261414,0.41996878385543823,-0.5308979749679565
1772701984818808300,0.500808349609375,0.23755928874015808,0.35158759355545044,-0.4376244843006134
1772701984828857000,0.510857177734375,0.19239847362041473,0.3095559775829315,-0.27269303798675537
1772701984838906400,0.52090625,0.12568283081054688,0.26982030272483826,-0.0883069559931755
1772701984848955100,0.530955078125,0.029529396444559097,0.16507044434547424,0.12548787891864777
1772701984859005200,0.541005126953125,-0.09806611388921738,0.00458649592474103,0.2761210799217224
1772701984869054200,0.55105419921875,-0.275410532951355,-0.23174640536308289,0.29928338527679443
1772701984879103200,0.561103271484375,-0.45187878608703613,-0.45330357551574707,0.179695725440979
1772701984889152300,0.57115234375,-0.5846868753433228,-0.44790828227996826,-0.06560643762350082
1772701984899201300,0.581201171875,-0.6722031831741333,-0.164397194981575,-0.3495052754878998
1772701984909250300,0.591250244140625,-0.7268035411834717,0.27847981452941895,-0.5632740259170532
1772701984919299000,0.601299072265625,-0.7957479953765869,0.6621683835983276,-0.7044604420661926
1772701984929348400,0.611348388671875,-0.8756542801856995,0.8361479043960571,-0.6979002952575684
1772701984939397000,0.621397216796875,-0.9269611239433289,0.7695749998092651,-0.4135790467262268
1772701984949446100,0.631446044921875,-0.9235975742340088,0.7008180022239685,0.06487619876861572
1772701984959496200,0.64149609375,-0.879188060760498,0.6589773893356323,0.5268036127090454
1772701984969545200,0.651545166015625,-0.8445701599121094,0.46075350046157837,0.7943530082702637
1772701984979594200,0.66159423828125,-0.7694330215454102,0.015266837552189827,0.9351250529289246
1772701984989643000,0.67164306640625,-0.659080445766449,-0.6617624759674072,0.977895975112915
1772701984999692300,0.6816923828125,-0.6154610514640808,-1.2562072277069092,0.9907433390617371
1772701985009741300,0.6917412109375,-0.6081640124320984,-1.7858021259307861,0.9697768092155457
1772701985019790000,0.7017900390625,-0.5882704257965088,-2.1493048667907715,0.8700405955314636
1772701985029839400,0.71183935546875,-0.49949902296066284,-2.3245792388916016,0.7238530516624451
1772701985039888100,0.72188818359375,-0.37150219082832336,-2.3940157890319824,0.509871780872345
1772701985049937200,0.731937255859375,-0.2461083084344864,-2.3547184467315674,0.3406691551208496
1772701985059986200,0.741986083984375,-0.16336815059185028,-2.316990613937378,0.22794102132320404
1772701985070036200,0.7520361328125,-0.11458063870668411,-2.259171485900879,0.19384297728538513
1772701985080085200,0.762085205078125,-0.1107235848903656,-2.2239396572113037,0.13431227207183838
1772701985090134000,0.772134033203125,-0.15436133742332458,-2.111060619354248,0.028111262246966362
1772701985100183300,0.782183349609375,-0.1960960030555725,-1.853881597518921,-0.10680127888917923
1772701985110232000,0.792232177734375,-0.19966597855091095,-1.5073521137237549,-0.24259613454341888
1772701985120281300,0.80228125,-0.15208406746387482,-1.250545859336853,-0.4001218378543854
1772701985130330000,0.812330078125,-0.0864424780011177,-1.0115282535552979,-0.5581277012825012
1772701985140379100,0.822379150390625,-0.03424585610628128,-0.7463293075561523,-0.6943047046661377
1772701985150428400,0.832428466796875,-0.007829426787793636,-0.5222834348678589,-0.839594304561615
1772701985160477200,0.842477294921875,0.017235711216926575,-0.27384671568870544,-0.9079256653785706
1772701985170527200,0.85252734375,0.04928445816040039,-0.03641366586089134,-0.9106018543243408
1772701985180576000,0.862575927734375,0.09846265614032745,0.27043840289115906,-0.8642362356185913
1772701985190625300,0.872625244140625,0.12950898706912994,0.4699070453643799,-0.8074198365211487
1772701985200674300,0.88267431640625,0.15413044393062592,0.6385716795921326,-0.7758848071098328
1772701985210723000,0.89272314453125,0.17179173231124878,0.7935109734535217,-0.7466973662376404
1772701985220772400,0.9027724609375,0.1878782957792282,0.9492390155792236,-0.7149615287780762
1772701985230821000,0.912821044921875,0.20451052486896515,1.0332239866256714,-0.6349258422851562
1772701985240870100,0.9228701171875,0.2108941227197647,1.117314338684082,-0.5088073015213013
1772701985250919200,0.932919189453125,0.22882625460624695,1.0983136892318726,-0.3459254503250122
1772701985260968200,0.94296826171875,0.23935000598430634,1.026845932006836,-0.15944185853004456
1772701985271017200,0.953017333984375,0.26306837797164917,0.8881634473800659,0.07648704946041107
1772701985281067000,0.96306689453125,0.29902878403663635,0.7038974165916443,0.3282276690006256
1772701985291116300,0.9731162109375,0.33854690194129944,0.5475011467933655,0.5900076031684875
1772701985301165000,0.9831650390625,0.3608793616294861,0.4015730023384094,0.8207920789718628
1772701985311214300,0.99321435546875,0.3626554310321808,0.2940923571586609,0.9964752197265625
1772701985321263400,1.003263427734375,0.3373311758041382,0.19770056009292603,1.1569304466247559
1772701985331312000,1.01331201171875,0.32411015033721924,0.054904792457818985,1.3407948017120361
1772701985341361400,1.023361328125,0.3295121192932129,-0.12336800992488861,1.5709915161132812
1772701985351410200,1.03341015625,0.33505842089653015,-0.2000337541103363,1.8060948848724365
1772701985361459200,1.043459228515625,0.32473495602607727,0.06539817899465561,1.8828377723693848
1772701985371508200,1.05350830078125,0.2900983989238739,0.4771884083747864,1.8138436079025269
1772701985381557200,1.06355712890625,0.2610156238079071,0.7668566703796387,1.604273796081543
1772701985391607300,1.073607177734375,0.19909925758838654,0.47774338722229004,1.3264116048812866
1772701985401655800,1.08365576171875,0.08790828287601471,0.5040980577468872,1.2051869630813599
1772701985411705000,1.093705078125,0.029746443033218384,1.3804980516433716,1.3003315925598145
1772701985421753900,1.10375390625,0.1625729352235794,3.1621837615966797,1.1627750396728516
1772701985431803000,1.113802978515625,0.3955499827861786,4.5469651222229,0.4813288152217865
1772701985441852000,1.123851806640625,0.6320136785507202,6.1210618019104,0.18281881511211395
1772701985451901000,1.13390087890625,0.7754294276237488,6.634119987487793,0.21183182299137115
1772701985461950000,1.143949951171875,0.7041690945625305,4.210385799407959,0.6942639946937561
1772701985471999000,1.1539990234375,0.4645082950592041,0.8689774870872498,1.1560896635055542
1772701985482047700,1.1640478515625,0.07653285562992096,-2.008073568344116,1.3135887384414673
1772701985492097800,1.174097900390625,-0.28594785928726196,-3.7335116863250732,1.0643218755722046
1772701985502147000,1.18414697265625,-0.4088420867919922,-4.661684036254883,0.7224684357643127
1772701985512195800,1.19419580078125,-0.4491812586784363,-4.9259772300720215,0.38659244775772095
1772701985522244900,1.204244873046875,-0.543491005897522,-4.261541366577148,0.12836863100528717
1772701985532294000,1.2142939453125,-0.7207823991775513,-3.1191060543060303,0.005976133514195681
1772701985542343000,1.224343017578125,-0.8057332634925842,-2.3125479221343994,0.046062301844358444
1772701985552392000,1.234391845703125,-0.7487331032752991,-1.6469520330429077,0.10419271141290665
1772701985562441000,1.24444091796875,-0.7400767207145691,-1.2162017822265625,0.11835647374391556
1772701985572490000,1.254489990234375,-0.6422883868217468,-1.2104508876800537,0.08841268718242645
1772701985582538800,1.264538818359375,-0.5369505286216736,-1.097469449043274,0.04722157493233681
1772701985592588000,1.274588134765625,-0.45381036400794983,-0.715867280960083,0.018693793565034866
1772701985602638000,1.28463818359375,-0.34319010376930237,-0.28606343269348145,-0.0695820078253746
1772701985612686800,1.294686767578125,-0.24637942016124725,0.09835346788167953,-0.18851399421691895
1772701985622736000,1.30473583984375,-0.1239863932132721,0.41214948892593384,-0.30844756960868835
1772701985632785000,1.314784912109375,0.010069944895803928,0.7706985473632812,-0.3799731731414795
1772701985642834000,1.324833984375,0.09535155445337296,1.1421741247177124,-0.39733830094337463
1772701985652882700,1.334882568359375,0.16107997298240662,1.4177162647247314,-0.40265530347824097
1772701985662932000,1.344931884765625,0.14481018483638763,1.4492357969284058,-0.39432308077812195
1772701985672981000,1.35498095703125,0.00941933412104845,1.3241348266601562,-0.39833006262779236
1772701985683030000,1.365030029296875,-0.06578566879034042,1.3020471334457397,-0.42720484733581543
1772701985693079000,1.3750791015625,-0.03313078731298447,1.4663453102111816,-0.4398183822631836
1772701985703128800,1.38512890625,-0.05880099907517433,1.665590763092041,-0.4311996102333069
1772701985713177900,1.395177734375,-0.16979755461215973,1.765276312828064,-0.40130615234375
1772701985723227100,1.40522705078125,-0.39012300968170166,1.6702885627746582,-0.35676103830337524
1772701985733276000,1.41527587890625,-0.6672259569168091,1.3750020265579224,-0.3126614987850189
1772701985743325000,1.425324951171875,-0.8961614370346069,1.0065587759017944,-0.2567604184150696
1772701985753374000,1.4353740234375,-1.0261220932006836,0.7667062282562256,-0.1876671016216278
1772701985763423000,1.445423095703125,-1.0690040588378906,0.6831556558609009,-0.11338941007852554
1772701985773471700,1.4554716796875,-1.017600178718567,0.7971027493476868,-0.019515644758939743
1772701985783521000,1.46552099609375,-0.8881876468658447,0.973718523979187,0.08355960994958878
1772701985793569800,1.47556982421875,-0.7533454298973083,1.1869146823883057,0.19206158816814423
1772701985803618800,1.485618896484375,-0.6587957143783569,1.416058897972107,0.35466381907463074
1772701985813668900,1.4956689453125,-0.5766063332557678,1.479327917098999,0.6063530445098877
1772701985823718000,1.5057177734375,-0.5401082634925842,1.243729829788208,0.9220929145812988
1772701985833767000,1.515766845703125,-0.5228695869445801,0.8363422751426697,1.2319186925888062
1772701985843815700,1.525815673828125,-0.5118457078933716,0.44306665658950806,1.4616559743881226
1772701985853865000,1.535864990234375,-0.49170342087745667,0.19559772312641144,1.5539630651474
1772701985863914000,1.5459140625,-0.42792949080467224,0.14148788154125214,1.5010334253311157
1772701985873962800,1.555962646484375,-0.3305310308933258,0.3170778155326843,1.3494775295257568
1772701985884012000,1.566011962890625,-0.1942341923713684,0.7295215725898743,1.0730153322219849
1772701985894060800,1.576060791015625,0.056525859981775284,1.5559145212173462,0.5045142769813538
1772701985904110000,1.586110107421875,0.32611924409866333,2.201204538345337,-0.2595476806163788
1772701985914158800,1.596158935546875,0.5109407901763916,2.057842969894409,-0.9512528777122498
1772701985924209000,1.606208984375,0.6204270720481873,0.7795514464378357,-1.2438626289367676
1772701985934258000,1.6162578125,0.7291844487190247,-0.4278024733066559,-0.9744599461555481
1772701985944307000,1.626306884765625,0.8269780874252319,-0.7335519790649414,-0.25584909319877625
1772701985954356000,1.63635595703125,0.7607599496841431,-0.5975131988525391,0.7383920550346375
1772701985964404700,1.64640478515625,0.5890219807624817,-1.0541329383850098,1.7748972177505493
1772701985974454000,1.6564541015625,0.28283730149269104,-1.7350540161132812,2.5859293937683105
1772701985984503000,1.6665029296875,0.06437233090400696,-2.3613083362579346,2.9696972370147705
1772701985994551800,1.6765517578125,0.0977444052696228,-2.956145763397217,3.043073892593384
1772701986004601000,1.68660107421875,0.278058797121048,-3.5351669788360596,2.967170238494873
1772701986014649900,1.69664990234375,0.457975298166275,-3.6804544925689697,2.7735564708709717
1772701986024700000,1.706699951171875,0.5292720794677734,-3.4707157611846924,2.4245331287384033
1772701986034749000,1.7167490234375,0.5352367758750916,-3.08536958694458,1.9407256841659546
1772701986044798000,1.7267978515625,0.5400485992431641,-2.743251323699951,1.3919382095336914
1772701986054847000,1.736846923828125,0.5242416858673096,-2.512251615524292,0.8950450420379639
1772701986064895700,1.746895751953125,0.5048511624336243,-2.2919015884399414,0.4189099073410034
1772701986074945000,1.756945068359375,0.4715483486652374,-2.1077303886413574,-0.046241797506809235
1772701986084993800,1.766993896484375,0.4821424186229706,-1.9180331230163574,-0.5156066417694092
1772701986095042800,1.777042724609375,0.5243146419525146,-1.6603916883468628,-0.9649910926818848
1772701986105091800,1.787091796875,0.6417446136474609,-1.242993950843811,-1.362240195274353
1772701986115140900,1.797140869140625,0.698523998260498,-0.7008835673332214,-1.7100838422775269
1772701986125190100,1.807190185546875,0.7426059246063232,-0.13784176111221313,-2.04182505607605
1772701986135240000,1.817239990234375,0.752782940864563,0.29998618364334106,-2.377723455429077
1772701986145289000,1.8272890625,0.7230080366134644,0.7418439984321594,-2.6056418418884277
1772701986155337700,1.837337646484375,0.6601651310920715,1.0335915088653564,-2.6662628650665283
1772701986165387000,1.847386962890625,0.6205596923828125,1.089389443397522,-2.5754380226135254
1772701986175436000,1.85743603515625,0.5999467968940735,0.932924747467041,-2.3585329055786133
1772701986185484800,1.86748486328125,0.584744930267334,0.7119865417480469,-2.047513008117676
1772701986195534000,1.8775341796875,0.5586283802986145,0.4209000766277313,-1.7660638093948364
1772701986205582800,1.887582763671875,0.5241713523864746,0.2571580410003662,-1.5736451148986816
1772701986215632000,1.8976318359375,0.49277162551879883,0.19417665898799896,-1.4471832513809204
1772701986225681000,1.907680908203125,0.4643042981624603,0.28139305114746094,-1.2926770448684692
1772701986235730000,1.91772998046875,0.4451998472213745,0.37646177411079407,-1.1250412464141846
1772701986245780000,1.927780029296875,0.430562824010849,0.4491186738014221,-0.959143340587616
1772701986255828700,1.937828857421875,0.42936548590660095,0.5075766444206238,-0.7629472017288208
1772701986265878000,1.9478779296875,0.43632590770721436,0.4837118089199066,-0.5674959421157837
1772701986275926800,1.9579267578125,0.44979965686798096,0.3365330100059509,-0.42046040296554565
1772701986285975800,1.967975830078125,0.4796361029148102,0.16018381714820862,-0.32589128613471985
1772701986296024800,1.97802490234375,0.500977098941803,-0.0036570527590811253,-0.2527768611907959
1772701986306073900,1.988073974609375,0.554854154586792,-0.05588643625378609,-0.19160857796669006
1772701986316123100,1.998123046875,0.6330469846725464,0.024402812123298645,-0.1304570734500885
1772701986326172000,2.008171875,0.7449244856834412,0.07844633609056473,-0.006602242588996887
1772701986336221000,2.018220947265625,0.9354257583618164,0.11790000647306442,0.2056887149810791
1772701986346270700,2.028270751953125,1.1253222227096558,0.2282656580209732,0.3896188735961914
1772701986356320000,2.038320068359375,1.2887470722198486,0.5731348991394043,0.4351884722709656
1772701986366369000,2.048369140625,1.4635947942733765,0.9794232845306396,0.31283727288246155
1772701986376417800,2.058417724609375,1.6802679300308228,1.4496320486068726,0.10490298271179199
1772701986386467000,2.068467041015625,1.9426425695419312,1.9679263830184937,-0.014679609797894955
1772701986396516600,2.0785166015625,2.3639590740203857,3.049117088317871,-0.13231010735034943
1772701986406565400,2.0885654296875,2.6534640789031982,4.3859663009643555,-0.4492872655391693
1772701986416614700,2.09861474609375,2.4758098125457764,5.732908725738525,-0.6451148390769958
1772701986426663700,2.10866357421875,2.1121444702148438,5.193228721618652,-0.6340022683143616
1772701986436712400,2.11871240234375,2.196988821029663,3.671067714691162,-0.0979745015501976
1772701986446761700,2.12876171875,1.9196951389312744,1.6073626279830933,0.5061031579971313
1772701986456811500,2.1388115234375,1.4519426822662354,0.028300346806645393,0.808745265007019
1772701986466860500,2.148860595703125,1.0365052223205566,-1.1070365905761719,0.5471147298812866
1772701986476909600,2.15890966796875,0.6312549114227295,-1.4544150829315186,0.019634954631328583
1772701986486958600,2.16895849609375,0.314929723739624,-1.1739829778671265,-0.44145143032073975
1772701986497007600,2.179007568359375,0.062065500766038895,-0.8448678851127625,-0.80238938331604
1772701986507056400,2.189056396484375,-0.16424353420734406,-0.5677318572998047,-1.0226823091506958
1772701986517105700,2.199105712890625,-0.32520872354507446,-0.3437243402004242,-1.0932254791259766
1772701986527154400,2.209154541015625,-0.3815039396286011,-0.14980387687683105,-1.0872395038604736
1772701986537203500,2.219203369140625,-0.32326486706733704,0.07195062190294266,-1.0820878744125366
1772701986547252700,2.229252685546875,-0.23179514706134796,0.24546381831169128,-1.0864911079406738
1772701986557301500,2.239301513671875,-0.1652909517288208,0.3653889000415802,-1.1030515432357788
1772701986567351600,2.2493515625,-0.11743874847888947,0.42637795209884644,-1.1096904277801514
1772701986577400300,2.259400390625,-0.06826373934745789,0.4053850471973419,-1.107602596282959
1772701986587449600,2.26944970703125,-0.006733802612870932,0.3685165047645569,-1.1067684888839722
1772701986597498600,2.27949853515625,0.039869118481874466,0.3332117795944214,-1.0880768299102783
1772701986607547600,2.289547607421875,0.08027779310941696,0.33331483602523804,-1.0485498905181885
1772701986617596700,2.2995966796875,0.09853509813547134,0.3686257004737854,-0.9813884496688843
1772701986627645400,2.3096455078125,0.08978554606437683,0.43039238452911377,-0.8921635150909424
1772701986637694700,2.31969482421875,-0.03147776424884796,0.4193243086338043,-0.8359236717224121
1772701986647743500,2.329743408203125,-0.1083696186542511,0.415089875459671,-0.7499110102653503
1772701986657792500,2.33979248046875,-0.14586718380451202,0.48984000086784363,-0.6060283780097961
1772701986667841500,2.349841552734375,-0.1161780059337616,0.6260194182395935,-0.4319916367530823
1772701986677891600,2.3598916015625,-0.04567507654428482,0.7862357497215271,-0.29314398765563965
1772701986687940600,2.369940673828125,0.044025782495737076,0.9249299764633179,-0.23047688603401184
1772701986697989400,2.3799892578125,0.09452863782644272,1.0370436906814575,-0.24280385673046112
1772701986708038700,2.39003857421875,0.058104049414396286,1.2201114892959595,-0.30464351177215576
1772701986718087400,2.40008740234375,-0.04386492446064949,1.4678618907928467,-0.39367911219596863
1772701986728136400,2.410136474609375,-0.21373838186264038,1.6042029857635498,-0.5245492458343506
1772701986738185700,2.420185791015625,-0.4007365107536316,1.5013504028320312,-0.7434051632881165
1772701986748234500,2.430234375,-0.5234174132347107,1.068363070487976,-1.0317903757095337
1772701986758283500,2.440283447265625,-0.49901726841926575,0.6601398587226868,-1.3657063245773315
1772701986768332500,2.45033251953125,-0.35108107328414917,0.29788628220558167,-1.652894139289856
1772701986778381600,2.460381591796875,-0.12854225933551788,0.2037813514471054,-1.7685743570327759
1772701986788431600,2.470431640625,0.118866465985775,-0.06320106983184814,-1.515791654586792
1772701986798480400,2.48048046875,0.3867280185222626,-0.6145846247673035,-1.0372003316879272
1772701986808529700,2.49052978515625,0.521013081073761,-1.304192066192627,-0.4033764898777008
1772701986818578400,2.500578369140625,0.5116901993751526,-1.7156158685684204,0.2658436596393585
1772701986828627700,2.510627685546875,0.3908447325229645,-1.844096302986145,0.8123195171356201
1772701986838676500,2.520676513671875,0.13917972147464752,-1.6927459239959717,1.2259292602539062
1772701986848725500,2.5307255859375,-0.22087351977825165,-1.5490169525146484,1.6049106121063232
1772701986858774500,2.5407744140625,-0.4999544322490692,-1.6028250455856323,1.9905989170074463
1772701986868823600,2.550823486328125,-0.694864809513092,-2.019045352935791,2.3657402992248535
1772701986878872600,2.56087255859375,-0.8424140214920044,-2.5148675441741943,2.60323429107666
1772701986888922400,2.57092236328125,-1.0241425037384033,-2.6880152225494385,2.4774510860443115
1772701986898971600,2.5809716796875,-1.1771401166915894,-2.1266791820526123,2.1693594455718994
1772701986909020400,2.5910205078125,-1.2409946918487549,-1.5977387428283691,1.9353750944137573
1772701986919069400,2.6010693359375,-1.2353581190109253,-1.212659239768982,1.701255202293396
1772701986929118700,2.61111865234375,-1.250379204750061,-0.7551997900009155,1.361478567123413
1772701986939167500,2.62116748046875,-1.1790506839752197,-0.4494878053665161,0.9297417402267456
1772701986949216500,2.631216552734375,-0.9443590641021729,-0.46437567472457886,0.43314504623413086
1772701986959265500,2.641265625,-0.6342360973358154,-0.7502119541168213,0.007831557653844357
1772701986969314600,2.651314453125,-0.37173041701316833,-1.0231633186340332,-0.17329615354537964
1772701986979363300,2.66136328125,-0.22880016267299652,-1.3057225942611694,-0.2355981469154358
1772701986989413400,2.671413330078125,-0.11296969652175903,-1.4324482679367065,-0.2891353964805603
1772701986999462700,2.681462646484375,0.02316390909254551,-1.479837417602539,-0.37651345133781433
1772701987009511400,2.691511474609375,0.09524289518594742,-1.40565824508667,-0.5271548628807068
1772701987019560400,2.701560546875,0.11064795404672623,-1.3164525032043457,-0.7331568002700806
1772701987029609500,2.711609375,0.10209573805332184,-1.2114977836608887,-0.9089954495429993
1772701987039658500,2.721658447265625,0.10329895466566086,-1.1135954856872559,-1.0074142217636108
1772701987049707800,2.731707763671875,0.11640357226133347,-1.040574312210083,-1.0081255435943604
1772701987059756500,2.741756591796875,0.10947109758853912,-0.9701416492462158,-0.9963178634643555
1772701987069805600,2.7518056640625,0.047917723655700684,-0.8605371117591858,-1.0004998445510864
1772701987079854600,2.7618544921875,-0.012536830268800259,-0.7246623635292053,-0.978942334651947
1772701987089903600,2.771903564453125,-0.032826922833919525,-0.6831293106079102,-0.8617826700210571
1772701987099953700,2.78195361328125,-0.03551192209124565,-0.6345769762992859,-0.6915430426597595
1772701987110002400,2.79200244140625,-0.0019390475936233997,-0.5718757510185242,-0.5073175430297852
1772701987120051700,2.8020517578125,0.06492067873477936,-0.4161120057106018,-0.33385786414146423
1772701987130100500,2.8121005859375,0.1111355721950531,-0.17764216661453247,-0.16307707130908966
1772701987140149500,2.8221494140625,0.13319800794124603,0.09730231761932373,-0.001582982949912548
1772701987150198500,2.832198486328125,0.10856243222951889,0.300027459859848,0.159708172082901
1772701987160247600,2.84224755859375,0.05030737817287445,0.4145295321941376,0.289637953042984
1772701987170296300,2.85229638671875,-0.014074806123971939,0.510613203048706,0.3829926550388336
1772701987180345600,2.862345703125,-0.05910859256982803,0.6051682233810425,0.4874575436115265
1772701987190394600,2.87239453125,-0.10581457614898682,0.6456743478775024,0.5799259543418884
1772701987200443400,2.882443359375,-0.1552383154630661,0.6777305603027344,0.6479721069335938
1772701987210493400,2.892493408203125,-0.20768128335475922,0.6869192719459534,0.68418288230896
1772701987220542500,2.90254248046875,-0.253667950630188,0.6643097996711731,0.6976544857025146
1772701987230591500,2.912591552734375,-0.2924334704875946,0.5945773124694824,0.6744516491889954
1772701987240640800,2.922640869140625,-0.30849552154541016,0.5196274518966675,0.6266860365867615
1772701987250689500,2.932689453125,-0.2977736294269562,0.5030027031898499,0.5260326266288757
1772701987260738600,2.942738525390625,-0.2619996666908264,0.6149124503135681,0.38522517681121826
1772701987270787600,2.95278759765625,-0.18760718405246735,0.8210501670837402,0.2561572194099426
1772701987280836600,2.962836669921875,-0.11194304376840591,0.9975644946098328,0.11281576752662659
1772701987290885400,2.972885498046875,-0.04850761592388153,1.181726098060608,-0.04567534103989601
1772701987300934700,2.9829345703125,0.04415680840611458,1.374815583229065,-0.21125951409339905
1772701987310983400,2.9929833984375,0.09315311163663864,1.4790374040603638,-0.3270929157733917
1772701987321033500,3.003033447265625,0.1143590658903122,1.577509880065918,-0.36016589403152466
1772701987331082500,3.01308251953125,0.011595935560762882,1.7855243682861328,-0.2235979437828064
1772701987341131500,3.023131591796875,-0.5021515488624573,2.0124106407165527,0.03232038766145706
1772701987351180500,3.0331806640625,-0.5666738152503967,2.485257387161255,0.1441420018672943
1772701987361229300,3.043229248046875,0.0024258734192699194,3.379204273223877,0.0387071818113327
1772701987371278600,3.053278564453125,-0.25787147879600525,3.914034605026245,-0.31154322624206543
1772701987381327600,3.06332763671875,-0.4139348566532135,3.5997331142425537,-0.37687936425209045
1772701987391376400,3.07337646484375,0.18344518542289734,2.605738878250122,-0.21518315374851227
1772701987401425200,3.083425048828125,0.7471876740455627,1.767453670501709,0.024953553453087807
1772701987411474200,3.09347412109375,0.6563674807548523,1.0024499893188477,0.04037218913435936
1772701987421524000,3.10352392578125,0.5271484851837158,0.14247405529022217,0.09283965826034546
1772701987431573200,3.1135732421875,0.3765326142311096,-0.17368097603321075,0.1353205442428589
1772701987441622300,3.123622314453125,0.14775191247463226,-0.136788472533226,0.24909158051013947
1772701987451671000,3.133671142578125,0.008419317193329334,0.015851667150855064,0.44246503710746765
1772701987461720300,3.14372021484375,-0.02231462672352791,0.278361052274704,0.6556356549263
1772701987471769000,3.15376904296875,-0.09474941343069077,0.5412645936012268,0.7803487777709961
1772701987481818000,3.163818115234375,-0.25426262617111206,0.7920936346054077,0.7892528176307678
1772701987491867100,3.1738671875,-0.374633252620697,0.8902359008789062,0.6704667806625366
1772701987501916200,3.183916259765625,-0.39876335859298706,0.7927969694137573,0.4379456639289856
1772701987511965200,3.193965087890625,-0.3950785994529724,0.6367407441139221,0.18517464399337769
1772701987522014200,3.20401416015625,-0.4155660569667816,0.7904986143112183,0.07198204845190048
1772701987532064300,3.214064208984375,-0.4372713267803192,0.9135529398918152,0.025740783661603928
1772701987542113000,3.224113037109375,-0.3879687786102295,0.5346876382827759,-0.12003372609615326
1772701987552162000,3.234162109375,-0.32034817337989807,0.08190631866455078,-0.2694985866546631
1772701987562211300,3.24421142578125,-0.3508685529232025,-0.14022554457187653,-0.37793371081352234
1772701987572260000,3.254260009765625,-0.42981475591659546,-0.2626079320907593,-0.4949586093425751
1772701987582309000,3.26430908203125,-0.457160085439682,-0.20817823708057404,-0.5694767832756042
1772701987592358100,3.274358154296875,-0.45275017619132996,-0.023690948262810707,-0.5853984951972961
1772701987602407200,3.2844072265625,-0.43148428201675415,0.1846180558204651,-0.5789059400558472
1772701987612456200,3.294456298828125,-0.39232224225997925,0.42321091890335083,-0.5576866865158081
1772701987622505200,3.304505126953125,-0.3291081190109253,0.7439724206924438,-0.5231233835220337
1772701987632555300,3.31455517578125,-0.2557518780231476,1.1599456071853638,-0.4606408476829529
1772701987642604000,3.32460400390625,-0.22273534536361694,1.5971165895462036,-0.38643744587898254
1772701987652653300,3.3346533203125,-0.2708093822002411,1.9377028942108154,-0.3379460871219635
1772701987662702000,3.3447021484375,-0.41121309995651245,2.088824987411499,-0.36266422271728516
1772701987672751000,3.354751220703125,-0.5822423696517944,1.9577991962432861,-0.5219500064849854
1772701987682800000,3.364800048828125,-0.7323929667472839,1.6098856925964355,-0.7725388407707214
1772701987692849200,3.37484912109375,-0.8303837180137634,1.1743853092193604,-1.0803552865982056
1772701987702898200,3.384898193359375,-0.8545114398002625,0.743137776851654,-1.5058543682098389
1772701987712947200,3.394947265625,-0.9334952235221863,0.35400867462158203,-2.1150481700897217
1772701987722996200,3.404996337890625,-1.18226957321167,-0.07101878523826599,-2.784196376800537
1772701987733045000,3.415044921875,-1.3752318620681763,-0.4612232744693756,-3.153620481491089
1772701987743095000,3.425094970703125,-1.3867326974868774,-0.6628024578094482,-2.9434468746185303
1772701987753144300,3.435144287109375,-1.1604417562484741,-1.008297324180603,-2.1922669410705566
1772701987763193000,3.445193115234375,-0.8849298357963562,-1.298069953918457,-1.2372121810913086
1772701987773242000,3.4552421875,-0.6505662798881531,-1.6276012659072876,-0.17269347608089447
1772701987783291100,3.465291015625,-0.43547505140304565,-2.0447421073913574,0.9577310681343079
1772701987793340200,3.475340087890625,-0.3086656928062439,-2.3972396850585938,2.1150753498077393
1772701987803389200,3.48538916015625,-0.2510226368904114,-2.7539303302764893,3.194082736968994
1772701987813438200,3.495438232421875,-0.2801363170146942,-3.084599018096924,4.1007184982299805
1772701987823487000,3.505487060546875,-0.39525333046913147,-3.2699971199035645,4.865499496459961
1772701987833536300,3.515536376953125,-0.5127634406089783,-2.873570680618286,4.953624248504639
1772701987843586300,3.52558642578125,-0.7427090406417847,-2.0208280086517334,4.3602614402771
1772701987853635000,3.535635009765625,-0.8698352575302124,-1.607390284538269,3.3089492321014404
1772701987863684000,3.54568408203125,-0.7885886430740356,-1.369718074798584,2.1063318252563477
1772701987873733000,3.555733154296875,-0.5799099802970886,-1.1260359287261963,1.1017286777496338
1772701987883782100,3.5657822265625,-0.37405747175216675,-0.9934900999069214,0.34710922837257385
1772701987893831200,3.5758310546875,-0.2318553328514099,-0.9851959347724915,-0.13870488107204437
1772701987903880200,3.585880126953125,-0.13120035827159882,-1.0316593647003174,-0.43510112166404724
1772701987913929200,3.59592919921875,-0.036378245800733566,-0.8549761772155762,-0.6154245734214783
1772701987923978000,3.60597802734375,0.0639941617846489,-0.7006579637527466,-0.635332465171814
1772701987934027300,3.61602734375,0.1665615439414978,-0.7632520794868469,-0.5352639555931091
1772701987944077300,3.626077392578125,0.23365643620491028,-0.899072527885437,-0.44023942947387695
1772701987954126000,3.6361259765625,0.24533891677856445,-0.9550803899765015,-0.3778897821903229
1772701987964175000,3.646175048828125,0.21332372725009918,-0.9124155044555664,-0.35628488659858704
1772701987974224100,3.65622412109375,0.131989985704422,-0.8240752220153809,-0.3574864864349365
1772701987984273200,3.666273193359375,0.021164674311876297,-0.7767535448074341,-0.35289546847343445
1772701987994322200,3.676322265625,-0.09270890057086945,-0.7513523101806641,-0.29911932349205017
1772701988004371200,3.68637109375,-0.19674289226531982,-0.6593254208564758,-0.18639518320560455
1772701988014420200,3.696420166015625,-0.3271927833557129,-0.6330237984657288,-0.054851531982421875
1772701988024469200,3.70646923828125,-0.45429664850234985,-0.5588856339454651,0.033226128667593
1772701988034518300,3.716518310546875,-0.5518197417259216,-0.445424348115921,0.08519238978624344
1772701988044568000,3.726568115234375,-0.6027343273162842,-0.3378603458404541,0.145549476146698
1772701988054617000,3.7366171875,-0.6041367650032043,-0.17920278012752533,0.23566098511219025
1772701988064666400,3.746666259765625,-0.5776380300521851,0.003996872343122959,0.33556067943573
1772701988074715100,3.756715087890625,-0.558292031288147,0.2362508773803711,0.4262847304344177
1772701988084764200,3.76676416015625,-0.4586314857006073,0.44273054599761963,0.504716157913208
1772701988094813200,3.776813232421875,-0.368242472410202,0.5340716242790222,0.5436521172523499
1772701988104862200,3.7868623046875,-0.28296059370040894,0.5678346753120422,0.5449261665344238
1772701988114911000,3.796910888671875,-0.2442622035741806,0.5477222204208374,0.546995997428894
1772701988124960300,3.806960205078125,-0.20447058975696564,0.49500173330307007,0.5184743404388428
1772701988135009000,3.817009033203125,-0.2087811678647995,0.44625231623649597,0.48780563473701477
1772701988145058000,3.82705810546875,-0.174522265791893,0.45649057626724243,0.40501725673675537
1772701988155108000,3.837108154296875,-0.11124902963638306,0.44577133655548096,0.2417050302028656
1772701988165157000,3.8471572265625,-0.057669688016176224,0.4933846890926361,0.09314778447151184
1772701988175206100,3.8572060546875,-0.012084892019629478,0.5131394863128662,-0.03447568416595459
1772701988185255200,3.867255126953125,0.04887166991829872,0.4868847131729126,-0.12760642170906067
1772701988195304200,3.87730419921875,0.12077488750219345,0.458096981048584,-0.18719226121902466
1772701988205353200,3.887353271484375,0.2005821019411087,0.4547286331653595,-0.21879678964614868
1772701988215402200,3.89740234375,0.2664223611354828,0.44942787289619446,-0.22272895276546478
1772701988225451300,3.907451171875,0.3197649419307709,0.40258312225341797,-0.21979361772537231
1772701988235500000,3.9175,0.36114487051963806,0.30262404680252075,-0.21988148987293243
1772701988245549300,3.92754931640625,0.36736443638801575,0.1854305863380432,-0.2239510715007782
1772701988255599400,3.937599365234375,0.3459337055683136,0.05674690380692482,-0.2165890336036682
1772701988265648000,3.947648193359375,0.3039785325527191,-0.003312173532322049,-0.20226149260997772
1772701988275697200,3.957697265625,0.2460465282201767,0.001719603082165122,-0.14854367077350616
1772701988285746200,3.96774609375,0.20700378715991974,0.014549115672707558,-0.04741651937365532
1772701988295795200,3.977795166015625,0.19275720417499542,0.02136068232357502,0.09515341371297836
1772701988305844000,3.987843994140625,0.2339658886194229,0.11666136980056763,0.29124435782432556
1772701988315893200,3.997893310546875,0.3861998915672302,0.6580407619476318,0.5899471640586853
1772701988325942300,4.0079423828125,0.7484076619148254,1.9713860750198364,1.086991310119629
1772701988335991000,4.017990966796875,0.9411808252334595,2.649658679962158,1.641849160194397
1772701988346040300,4.028040283203125,0.4736842215061188,0.7131814956665039,1.4885070323944092
1772701988356089000,4.038089111328125,-0.3149840533733368,-0.9804115891456604,0.8878837823867798
1772701988366139100,4.04813916015625,-0.5555228590965271,-0.8918572068214417,0.23805198073387146
1772701988376188200,4.058188232421875,-0.4695906639099121,-0.9629122018814087,-0.4302440583705902
1772701988386237200,4.0682373046875,-0.47359606623649597,-0.8760401606559753,-0.9211307168006897
1772701988396286200,4.0782861328125,-0.32750222086906433,-0.5099202394485474,-1.2132033109664917
1772701988406335200,4.088335205078125,-0.05704997107386589,-0.19093506038188934,-1.2873790264129639
1772701988416384000,4.098384033203125,0.13135455548763275,0.1936565488576889,-1.1338841915130615
1772701988426433000,4.10843310546875,0.2231702357530594,0.4199325740337372,-0.8265256285667419
1772701988436482000,4.11848193359375,0.31024760007858276,0.4821237623691559,-0.4270764887332916
1772701988446531000,4.128531005859375,0.3718973994255066,0.4044566750526428,0.00017496968212071806
1772701988456581000,4.1385810546875,0.40605589747428894,0.16856318712234497,0.33137819170951843
1772701988466630000,4.1486298828125,0.41194573044776917,-0.13721297681331635,0.4825277626514435
1772701988476679200,4.15867919921875,0.41337719559669495,-0.3771030604839325,0.44992882013320923
1772701988486728000,4.16872802734375,0.43474745750427246,-0.4358694553375244,0.2889460623264313
1772701988496777000,4.17877685546875,0.4222835898399353,-0.27191993594169617,0.061712365597486496
1772701988506826000,4.188825927734375,0.34769192337989807,-0.005404352676123381,-0.13001632690429688
1772701988516875000,4.198875,0.2749442160129547,0.2049235850572586,-0.25172412395477295
1772701988526924000,4.208924072265625,0.22412391006946564,0.3561221659183502,-0.280193567276001
1772701988536973000,4.21897314453125,0.21518874168395996,0.534669816493988,-0.2395305633544922
1772701988547022000,4.22902197265625,0.2216399759054184,0.7041781544685364,-0.18051224946975708
1772701988557072000,4.23907177734375,0.20909783244132996,0.7940041422843933,-0.1539434939622879
1772701988567121200,4.24912109375,0.19423632323741913,0.8547769784927368,-0.14756815135478973
1772701988577170200,4.259170166015625,0.19151777029037476,0.8405165076255798,-0.1646541953086853
1772701988587219000,4.269218994140625,0.19856075942516327,0.8215668201446533,-0.19694794714450836
1772701988597268200,4.279268310546875,0.20588286221027374,0.8519649505615234,-0.2283700555562973
1772701988607317000,4.28931689453125,0.17091502249240875,0.9348776340484619,-0.251535564661026
1772701988617366000,4.299365966796875,0.12196318805217743,1.1173553466796875,-0.24517327547073364
1772701988627415000,4.3094150390625,0.042461708188056946,1.447790265083313,-0.22580569982528687
1772701988637464000,4.319464111328125,-0.057425741106271744,1.843341588973999,-0.1912812739610672
1772701988647513000,4.32951318359375,-0.15646763145923615,2.1648967266082764,-0.1716362088918686
1772701988657563000,4.33956298828125,-0.25897884368896484,2.339808940887451,-0.18688014149665833
1772701988667612200,4.349612060546875,-0.38181233406066895,2.397554397583008,-0.21683058142662048
1772701988677661000,4.359660888671875,-0.5058746337890625,2.3760125637054443,-0.21794724464416504
1772701988687710000,4.3697099609375,-0.6142359972000122,2.229189157485962,-0.19173455238342285
1772701988697759200,4.37975927734375,-0.7838026285171509,1.9451509714126587,-0.1962810903787613
1772701988707808000,4.38980810546875,-0.9838563799858093,1.518397569656372,-0.20082631707191467
1772701988717857000,4.39985693359375,-1.1245381832122803,1.0065311193466187,-0.23421862721443176
1772701988727906000,4.409906005859375,-1.1855854988098145,0.5244499444961548,-0.26613688468933105
1772701988737955000,4.419955078125,-1.19667649269104,0.1788882613182068,-0.25718173384666443
1772701988748003800,4.43000390625,-1.1660003662109375,-0.038306377828121185,-0.2122669816017151
1772701988758054100,4.44005419921875,-1.1070044040679932,-0.21002380549907684,-0.12095198780298233
1772701988768103200,4.450103271484375,-1.0014737844467163,-0.3309347927570343,0.021892782300710678
1772701988778152000,4.46015185546875,-0.848793089389801,-0.39719343185424805,0.15425507724285126
1772701988788201200,4.470201171875,-0.6916252970695496,-0.4533323347568512,0.28859370946884155
1772701988798250000,4.48025,-0.6524153351783752,-0.5813265442848206,0.5155725479125977
1772701988808299000,4.490299072265625,-0.662294328212738,-0.928505539894104,0.8529252409934998
1772701988818348000,4.50034814453125,-0.6522435545921326,-1.4603760242462158,1.2842506170272827
1772701988828397000,4.51039697265625,-0.70025634765625,-2.09802508354187,1.77655827999115
1772701988838446000,4.520446044921875,-0.781243622303009,-2.718366861343384,2.2513017654418945
1772701988848495000,4.5304951171875,-0.7413713335990906,-3.061692476272583,2.5771477222442627
1772701988858545200,4.540545166015625,-0.6489697694778442,-3.0291457176208496,2.780390977859497
1772701988868594000,4.550593994140625,-0.5964559316635132,-2.7681734561920166,2.8035683631896973
1772701988878643000,4.560642822265625,-0.4823048710823059,-2.549008846282959,2.6135478019714355
1772701988888692200,4.570692138671875,-0.324982613325119,-2.207057237625122,2.368720531463623
1772701988898741000,4.580740966796875,-0.18334266543388367,-2.049774646759033,2.0990304946899414
1772701988908790000,4.5907900390625,-0.09499149024486542,-1.9586548805236816,1.9024090766906738
1772701988918839000,4.600839111328125,-0.05429013445973396,-1.8450467586517334,1.772832989692688
1772701988928888000,4.61088818359375,-0.008442486636340618,-1.8053255081176758,1.6363545656204224
1772701988938936800,4.620936767578125,0.03828906640410423,-1.842143177986145,1.4682012796401978
1772701988948987000,4.63098681640625,0.05720283463597298,-2.042508125305176,1.3162764310836792
1772701988959036200,4.6410361328125,0.10391867905855179,-2.291881799697876,1.1843942403793335
1772701988969085000,4.6510849609375,0.18593844771385193,-2.3352251052856445,1.0122507810592651
1772701988979134200,4.66113427734375,0.23793160915374756,-2.1230623722076416,0.775187075138092
1772701988989183000,4.671182861328125,0.27507391571998596,-1.517190933227539,0.5177674889564514
1772701988999232000,4.68123193359375,0.3264806568622589,-0.9004595279693604,0.12231206148862839
1772701989009281000,4.691281005859375,0.30969899892807007,-0.4178744852542877,-0.3274676203727722
1772701989019330000,4.701330078125,0.24693335592746735,-0.17066574096679688,-0.6871045827865601
1772701989029379000,4.711379150390625,0.16539481282234192,-0.11644485592842102,-0.9652795195579529
1772701989039428000,4.721427978515625,0.13055774569511414,-0.2856045961380005,-1.2082055807113647
1772701989049478100,4.73147802734375,0.1204792782664299,-0.5400736331939697,-1.370619297027588
1772701989059527000,4.74152685546875,0.13791659474372864,-0.6388702392578125,-1.4812235832214355
1772701989069576000,4.751575927734375,0.19585952162742615,-0.5311312675476074,-1.5781536102294922
1772701989079625200,4.761625244140625,0.24421826004981995,-0.16507017612457275,-1.6136395931243896
1772701989089674000,4.771674072265625,0.3041444420814514,0.34283244609832764,-1.539318561553955
1772701989099723000,4.781722900390625,0.4067770838737488,0.6750620603561401,-1.3528064489364624
1772701989109772000,4.79177197265625,0.499565064907074,0.6848414540290833,-1.0631102323532104
1772701989119821000,4.801821044921875,0.5669406652450562,0.4991741180419922,-0.7450643181800842
1772701989129869800,4.811869873046875,0.6343241930007935,0.17040076851844788,-0.42294007539749146
1772701989139919000,4.821919189453125,0.7199752330780029,-0.13465608656406403,-0.13801778852939606
1772701989149969200,4.83196923828125,0.8010714054107666,-0.317059725522995,0.09748447686433792
1772701989160018000,4.842017822265625,0.839604914188385,-0.34754011034965515,0.28554412722587585
1772701989170067000,4.85206689453125,0.8349223136901855,-0.31363993883132935,0.41920366883277893
1772701989180116000,4.862115966796875,0.8008266687393188,-0.23734889924526215,0.49961408972740173
1772701989190165000,4.8721650390625,0.7511150240898132,-0.1025354266166687,0.5057893991470337
1772701989200214300,4.88221435546875,0.6640480160713196,0.041663821786642075,0.47288498282432556
1772701989210263000,4.892262939453125,0.5819584727287292,0.20759767293930054,0.4254953861236572
1772701989220312000,4.90231201171875,0.5013909339904785,0.4152528643608093,0.36634764075279236
1772701989230361000,4.912361083984375,0.4375339150428772,0.5799012184143066,0.29272961616516113
1772701989240410000,4.92241015625,0.35460469126701355,0.6541908979415894,0.23653504252433777
1772701989250460200,4.932460205078125,0.29147154092788696,0.6717872023582458,0.22031639516353607
1772701989260509000,4.942509033203125,0.2840929627418518,0.6569115519523621,0.27727633714675903
1772701989270558200,4.95255810546875,0.31644877791404724,0.6442613005638123,0.38688698410987854
1772701989280607000,4.96260693359375,0.3492029905319214,0.6775957942008972,0.5403172969818115
1772701989290656000,4.972656005859375,0.3938053548336029,0.7746198177337646,0.6974664330482483
1772701989300705000,4.982705078125,0.5106483697891235,0.8656943440437317,0.7832458019256592
1772701989310754000,4.992754150390625,0.6911568641662598,1.016839623451233,0.7785881757736206
1772701989320802800,5.002802734375,0.7991312742233276,1.4146748781204224,0.4625343382358551
1772701989330852000,5.01285205078125,0.7425183057785034,2.0282816886901855,-0.002557966159656644
1772701989340901000,5.022901123046875,0.6889904141426086,2.314969539642334,-0.25804752111434937
1772701989350951000,5.032950927734375,0.7794350981712341,1.9378472566604614,-0.35167866945266724
1772701989361000000,5.043,0.8927621841430664,1.6143075227737427,-0.5185451507568359
1772701989371049000,5.053049072265625,1.020427942276001,1.2171647548675537,-0.8857841491699219
1772701989381098000,5.063097900390625,1.1462434530258179,0.5396350026130676,-1.203250527381897
1772701989391147300,5.073147216796875,1.1841177940368652,0.12213416397571564,-1.2944920063018799
1772701989401196300,5.0831962890625,1.0958175659179688,-0.031329959630966187,-1.2909409999847412
1772701989411245300,5.093245361328125,0.9259350299835205,-0.15351764857769012,-1.1975764036178589
1772701989421294300,5.10329443359375,0.6645548343658447,-0.22347356379032135,-1.0192567110061646
1772701989431343400,5.11334326171875,0.3662586808204651,-0.25574174523353577,-0.8162016272544861
1772701989441393400,5.123393310546875,0.08369196951389313,-0.21828439831733704,-0.6049567461013794
1772701989451442200,5.133442138671875,-0.1598714292049408,-0.18914568424224854,-0.3997942805290222
1772701989461491500,5.143491455078125,-0.320461630821228,-0.2353866845369339,-0.2174537628889084
1772701989471540200,5.153540283203125,-0.4155849516391754,-0.2769959270954132,-0.0852736160159111
1772701989481589200,5.16358935546875,-0.46280840039253235,-0.2727399170398712,-0.006427805405110121
1772701989491638300,5.17363818359375,-0.4781487286090851,-0.28706052899360657,0.007501059677451849
1772701989501687300,5.183687255859375,-0.46931636333465576,-0.29925382137298584,-0.0004945489927195013
1772701989511736300,5.193736328125,-0.44065675139427185,-0.3162951171398163,-0.02087412215769291
1772701989521785300,5.203785400390625,-0.4477892220020294,-0.3177012801170349,-0.06857240200042725
1772701989531834400,5.21383447265625,-0.478975385427475,-0.31349027156829834,-0.13822072744369507
1772701989541884200,5.22388427734375,-0.521451473236084,-0.31303486227989197,-0.19614607095718384
1772701989551933200,5.23393310546875,-0.590787947177887,-0.23535792529582977,-0.24485501646995544
1772701989561982500,5.243982421875,-0.6807090044021606,0.006294913589954376,-0.27026504278182983
1772701989572031200,5.25403125,-0.7650406956672668,0.4047432243824005,-0.27343207597732544
1772701989582080300,5.264080322265625,-0.8409596681594849,0.8528858423233032,-0.2693963050842285
1772701989592129300,5.27412939453125,-0.9336491227149963,1.2287391424179077,-0.22049188613891602
1772701989602178300,5.28417822265625,-1.0259945392608643,1.5596760511398315,-0.13019981980323792
1772701989612227300,5.294227294921875,-1.0554839372634888,1.7520028352737427,0.013541108928620815
1772701989622276400,5.3042763671875,-1.0225825309753418,1.643489122390747,0.2492676079273224
1772701989632325000,5.3143251953125,-1.0140811204910278,1.292460560798645,0.48534566164016724
1772701989642374400,5.32437451171875,-1.003150463104248,0.9307178258895874,0.662971556186676
1772701989652423400,5.33442333984375,-0.9184560775756836,0.658259928226471,0.7815507054328918
1772701989662472200,5.34447216796875,-0.7712048292160034,0.5022308826446533,0.8003970980644226
1772701989672522200,5.354522216796875,-0.624783992767334,0.5309469699859619,0.674621045589447
1772701989682571300,5.3645712890625,-0.4893587827682495,0.6465912461280823,0.45769646763801575
1772701989692620300,5.374620361328125,-0.36895379424095154,0.7379475235939026,0.27661827206611633
1772701989702669300,5.38466943359375,-0.2916792631149292,0.7954276204109192,0.17602881789207458
1772701989712718300,5.39471826171875,-0.22139869630336761,0.8120047450065613,0.12931032478809357
1772701989722767400,5.404767333984375,-0.14297206699848175,0.7988281846046448,0.0837007537484169
1772701989732816100,5.414816162109375,-0.08078272640705109,0.6813268661499023,0.02034388668835163
1772701989742865400,5.424865478515625,-0.03654522821307182,0.3268372416496277,0.0036418726667761803
1772701989752914200,5.4349140625,0.01284735556691885,-0.15513844788074493,0.10216870903968811
1772701989762963200,5.444963134765625,0.057313889265060425,-0.6808094382286072,0.23770470917224884
1772701989773013200,5.45501318359375,0.08205705136060715,-1.1404670476913452,0.3844970762729645
1772701989783062300,5.465062255859375,0.0865069255232811,-1.4319590330123901,0.5063614845275879
1772701989793111300,5.475111328125,0.0647992342710495,-1.501062273979187,0.634121298789978
1772701989803160000,5.48516015625,-0.014001036994159222,-1.4024152755737305,0.7759580612182617
1772701989813209300,5.495209228515625,-0.1131097748875618,-1.137661337852478,1.0084373950958252
1772701989823258400,5.50525830078125,-0.14414066076278687,-0.8007686138153076,1.3564510345458984
1772701989833307400,5.515307373046875,-0.10985193401575089,-0.7087063193321228,1.7846920490264893
1772701989843356400,5.5253564453125,-0.041908569633960724,-1.2002384662628174,2.295470714569092
1772701989853405200,5.5354052734375,0.14872635900974274,-2.582996129989624,2.7387211322784424
1772701989863455200,5.545455322265625,0.3863370418548584,-3.8877310752868652,2.706881284713745
1772701989873504500,5.55550439453125,0.6151084303855896,-3.8800904750823975,2.362126588821411
1772701989883553300,5.56555322265625,0.8644996285438538,-3.3458445072174072,1.5311367511749268
1772701989893602300,5.575602294921875,0.936958372592926,-2.5107853412628174,0.6274527311325073
1772701989903651300,5.5856513671875,0.7713273167610168,-1.7880053520202637,0.10293756425380707
1772701989913700400,5.595700439453125,0.5579026937484741,-1.3653483390808105,-0.07877577096223831
1772701989923749000,5.6057490234375,0.41784971952438354,-1.0691747665405273,-0.12923574447631836
1772701989933798400,5.61579833984375,0.3359697461128235,-0.847142219543457,-0.19530877470970154
1772701989943847200,5.62584716796875,0.2701382637023926,-0.7163296341896057,-0.2709321677684784
1772701989953896200,5.635896240234375,0.15981389582157135,-0.6331971883773804,-0.2927900552749634
1772701989963946200,5.6459462890625,0.012516058050096035,-0.505611777305603,-0.2502481937408447
1772701989973995300,5.655995361328125,-0.13332583010196686,-0.28915032744407654,-0.24836480617523193
1772701989984044300,5.666044189453125,-0.3097376227378845,-0.16124774515628815,-0.30092576146125793
1772701989994093000,5.676093017578125,-0.44450849294662476,0.06702616810798645,-0.33449703454971313
1772701990004142300,5.686142333984375,-0.5022364854812622,0.35697463154792786,-0.3245075047016144
1772701990014192400,5.6961923828125,-0.5064716935157776,0.47559237480163574,-0.26194825768470764
1772701990024241200,5.7062412109375,-0.4947282373905182,0.33719322085380554,-0.16542251408100128
1772701990034290400,5.71629052734375,-0.47851118445396423,0.10064484924077988,-0.048586178570985794
1772701990044339200,5.726339111328125,-0.4513578712940216,-0.07979469746351242,0.011779693886637688
1772701990054388200,5.73638818359375,-0.43623751401901245,-0.16406776010990143,-0.00008175904804375023
1772701990064437500,5.7464375,-0.4181858003139496,-0.13593973219394684,-0.0360964834690094
1772701990074486300,5.756486328125,-0.39044445753097534,-0.014651646837592125,-0.08123386651277542
1772701990084535300,5.766535400390625,-0.3844273090362549,0.18317781388759613,-0.13869716227054596
1772701990094584300,5.776584228515625,-0.39001592993736267,0.49230262637138367,-0.20396457612514496
1772701990104633300,5.78663330078125,-0.38943058252334595,0.8584811687469482,-0.22567254304885864
1772701990114683400,5.796683349609375,-0.3606085181236267,1.1866068840026855,-0.19001974165439606
1772701990124732200,5.806732177734375,-0.32033273577690125,1.4115421772003174,-0.10517542064189911
1772701990134781400,5.816781494140625,-0.2741551101207733,1.5186913013458252,0.01690814271569252
1772701990144830200,5.826830322265625,-0.22904729843139648,1.4876854419708252,0.1326185017824173
1772701990154879200,5.836879150390625,-0.19635646045207977,1.3887841701507568,0.22023862600326538
1772701990164928300,5.84692822265625,-0.18962985277175903,1.234501600265503,0.2846706211566925
1772701990174977300,5.856977294921875,-0.1980299949645996,1.0137159824371338,0.33184024691581726
1772701990185026000,5.867026123046875,-0.2297154814004898,0.7958811521530151,0.33889177441596985
1772701990195076400,5.877076416015625,-0.2751000225543976,0.6399242877960205,0.303915411233902
1772701990205125400,5.88712548828125,-0.32230693101882935,0.5743282437324524,0.23508228361606598
1772701990215174100,5.897174072265625,-0.3512057065963745,0.6112455129623413,0.1555970460176468
1772701990225223400,5.907223388671875,-0.33142372965812683,0.6948261857032776,0.1030169278383255
1772701990235272200,5.917272216796875,-0.2627229690551758,0.7281045317649841,0.09314671903848648
1772701990245321200,5.9273212890625,-0.1403464525938034,0.6331005096435547,0.13668380677700043
1772701990255370500,5.93737060546875,0.01059219054877758,0.42251211404800415,0.18686363101005554
1772701990265419300,5.947419189453125,0.16346828639507294,0.1469782590866089,0.20112432539463043
1772701990275468300,5.95746826171875,0.2842056155204773,-0.059852682054042816,0.15359115600585938
1772701990285518000,5.96751806640625,0.35298600792884827,-0.16415804624557495,0.07375278323888779
1772701990295567400,5.9775673828125,0.4084266424179077,-0.20851485431194305,0.02401532046496868
1772701990305616400,5.987616455078125,0.5247724056243896,-0.16195321083068848,0.08644673973321915
1772701990315665200,5.9976650390625,0.7096115350723267,0.01273097563534975,0.21053087711334229
1772701990325714400,6.00771435546875,0.8403093218803406,0.2780478596687317,0.20937399566173553
1772701990335763200,6.01776318359375,0.9035391807556152,0.63346266746521,0.09451878070831299
1772701990345812200,6.027812255859375,0.933075487613678,1.1646445989608765,-0.13998906314373016
1772701990355861200,6.037861328125,0.9442940354347229,1.2608134746551514,-0.4945082664489746
1772701990365910300,6.04791015625,0.9417238235473633,0.7717747688293457,-0.7628984451293945
1772701990375960300,6.057960205078125,0.8431439995765686,0.371271550655365,-0.9188145399093628
1772701990386009300,6.06800927734375,0.7432291507720947,-0.0696248859167099,-0.9095550179481506
1772701990396058400,6.078058349609375,0.641749382019043,-0.4148555099964142,-0.7655602693557739
1772701990406107000,6.08810693359375,0.494291216135025,-0.4959239959716797,-0.5571913719177246
1772701990416156000,6.098156005859375,0.3394329249858856,-0.44134384393692017,-0.39571911096572876
1772701990426205000,6.108204833984375,0.18714192509651184,-0.4089491665363312,-0.31010380387306213
1772701990436254000,6.11825390625,0.04339807480573654,-0.4850311279296875,-0.24534930288791656
1772701990446303000,6.128302978515625,-0.11206794530153275,-0.5217790603637695,-0.20296669006347656
1772701990456352000,6.13835205078125,-0.26448383927345276,-0.635100245475769,-0.16998744010925293
1772701990466401800,6.14840185546875,-0.3971683979034424,-0.8721452951431274,-0.13342250883579254
1772701990476450800,6.158450927734375,-0.49838051199913025,-1.163938045501709,-0.09342555701732635
1772701990486500000,6.1685,-0.5556389689445496,-1.4030499458312988,-0.03514733538031578
1772701990496548900,6.178548828125,-0.5664772391319275,-1.615025281906128,0.052324190735816956
1772701990506598000,6.188597900390625,-0.5469262003898621,-1.6829670667648315,0.1303098052740097
1772701990516647000,6.19864697265625,-0.5010015964508057,-1.5794566869735718,0.19267411530017853
1772701990526696000,6.208696044921875,-0.43909239768981934,-1.3213447332382202,0.22475481033325195
1772701990536745000,6.218744873046875,-0.37504658102989197,-0.9901297092437744,0.22282695770263672
1772701990546795000,6.228794921875,-0.324534147977829,-0.631816565990448,0.184625506401062
1772701990556844000,6.238843994140625,-0.2764124274253845,-0.2636715769767761,0.1290847510099411
1772701990566892800,6.248892822265625,-0.23307639360427856,0.06421680003404617,0.06451108306646347
1772701990576942000,6.258942138671875,-0.17812606692314148,0.22998446226119995,0.029412483796477318
1772701990586990800,6.268990966796875,-0.12752999365329742,0.31135815382003784,0.06154698505997658
1772701990597039900,6.279039794921875,-0.09882191568613052,0.5685369372367859,0.16784359514713287
1772701990607089000,6.2890888671875,-0.05687020719051361,0.9915902018547058,0.3221391439437866
1772701990617138000,6.299137939453125,0.01182150561362505,1.143988013267517,0.49473676085472107
1772701990627187000,6.30918701171875,0.0359840989112854,1.1218411922454834,0.6982017159461975
1772701990637236700,6.31923681640625,-0.005380117800086737,0.8890931010246277,0.8783230185508728
1772701990647286000,6.3292861328125,-0.053412359207868576,0.5885663032531738,1.018606424331665
1772701990657334800,6.339334716796875,-0.0724712684750557,0.2674628496170044,1.08692467212677
1772701990667383800,6.3493837890625,-0.09833083301782608,-0.02845907211303711,1.0921506881713867
1772701990677433000,6.35943310546875,-0.14180134236812592,-0.20254965126514435,1.0527677536010742
1772701990687481900,6.36948193359375,-0.19096170365810394,-0.25881052017211914,1.0108696222305298
1772701990697531000,6.37953076171875,-0.24066586792469025,-0.24166321754455566,0.9872002601623535
1772701990707580000,6.389579833984375,-0.2884211540222168,-0.1560378074645996,0.9206177592277527
1772701990717629000,6.39962890625,-0.32864686846733093,-0.07935793697834015,0.8824237585067749
1772701990727679000,6.409678955078125,-0.3319275975227356,-0.048712410032749176,0.8175835013389587
1772701990737728000,6.41972802734375,-0.3076622188091278,-0.005135107319802046,0.7669480443000793
1772701990747777000,6.429777099609375,-0.26846766471862793,0.027872644364833832,0.6894319653511047
1772701990757825800,6.43982568359375,-0.24937547743320465,0.05702653527259827,0.5861513614654541
1772701990767875000,6.449875,-0.23599335551261902,0.08652743697166443,0.48860856890678406
1772701990777923800,6.459923828125,-0.22151029109954834,0.1445625126361847,0.402279257774353
1772701990787972900,6.469972900390625,-0.19857114553451538,0.2345491200685501,0.3178724944591522
1772701990798022000,6.48002197265625,-0.174204021692276,0.3383985459804535,0.23397894203662872
1772701990808071000,6.49007080078125,-0.16091564297676086,0.3908758759498596,0.16849340498447418
1772701990818121000,6.500120849609375,-0.1611310988664627,0.371162086725235,0.11187140643596649
1772701990828169700,6.510169677734375,-0.16512903571128845,0.29602527618408203,0.07118763029575348
1772701990838219000,6.520218994140625,-0.14557717740535736,0.16165867447853088,0.03740809112787247
1772701990848267800,6.530267822265625,-0.11947686225175858,0.020109795033931732,0.012689163908362389
1772701990858316800,6.54031689453125,-0.09753907471895218,-0.10462441295385361,-0.03249269723892212
1772701990868366000,6.550365966796875,-0.07641727477312088,-0.21231865882873535,-0.0635579377412796
1772701990878414800,6.560414794921875,-0.05539641156792641,-0.31834709644317627,-0.052628323435783386
1772701990888464000,6.5704638671875,-0.044381577521562576,-0.37445589900016785,-0.02219291962683201
1772701990898513000,6.580512939453125,-0.05354711413383484,-0.3920077085494995,-0.011266768909990788
1772701990908563000,6.59056298828125,-0.06756652891635895,-0.3988182246685028,-0.0023134879302233458
1772701990918612000,6.600612060546875,-0.0946013405919075,-0.3753235638141632,0.0019377160351723433
1772701990928661000,6.610660888671875,-0.12574514746665955,-0.3440588414669037,0.007613977417349815
1772701990938710000,6.6207099609375,-0.15406280755996704,-0.3152375817298889,0.027880633249878883
1772701990948758800,6.6307587890625,-0.1806829571723938,-0.278956800699234,0.05506085604429245
1772701990958808000,6.64080810546875,-0.20126627385616302,-0.23055864870548248,0.07308007031679153
1772701990968856800,6.65085693359375,-0.21209335327148438,-0.1828656941652298,0.08287837356328964
1772701990978905900,6.66090576171875,-0.21188774704933167,-0.14674070477485657,0.09067637473344803
1772701990988955100,6.670955078125,-0.21156923472881317,-0.11034435033798218,0.08958128094673157
1772701990999005000,6.6810048828125,-0.20960861444473267,-0.06157468259334564,0.09579550474882126
1772701991009054000,6.691053955078125,-0.20875614881515503,-0.020928185433149338,0.09729433059692383
1772701991019102700,6.701102783203125,-0.2159235030412674,-0.05733492970466614,0.06692976504564285
1772701991029152000,6.711152099609375,-0.24024775624275208,-0.12040337920188904,0.05776955559849739
1772701991039201000,6.721200927734375,-0.24188800156116486,-0.13153459131717682,-0.02316524088382721
