time,seconds_elapsed,z,y,x
1772701984390465500,0.072465576171875,0.050506990402936935,0.056964557617902756,-0.05064408481121063
1772701984400514000,0.08251416015625,0.04322370886802673,0.08080796152353287,-0.03998406603932381
1772701984410563300,0.092563232421875,0.04507353901863098,0.09934809058904648,-0.045392945408821106
1772701984420612000,0.102612060546875,0.042052675038576126,0.1131422147154808,-0.05178443342447281
1772701984430662100,0.112662109375,0.03181122615933418,0.1360669732093811,-0.06499478220939636
1772701984440711200,0.122711181640625,0.02482302300632,0.15332207083702087,-0.07130415737628937
1772701984450760200,0.13276025390625,0.015321397222578526,0.1723242551088333,-0.07317342609167099
1772701984460809200,0.142809326171875,-0.0012596847955137491,0.17237122356891632,-0.059685468673706055
1772701984470858000,0.15285791015625,-0.023354865610599518,0.16631360352039337,-0.048144128173589706
1772701984480907300,0.1629072265625,-0.03386542573571205,0.17262479662895203,-0.04163626953959465
1772701984490956300,0.172956298828125,-0.03440152108669281,0.185722216963768,-0.03214529529213905
1772701984501005000,0.183005126953125,-0.042145878076553345,0.20008882880210876,-0.031669337302446365
1772701984511054300,0.193054443359375,-0.04890817403793335,0.2174779325723648,-0.03261049836874008
1772701984521103000,0.20310302734375,-0.04780301824212074,0.2512166202068329,-0.023484935984015465
1772701984531152100,0.213152099609375,-0.03720683604478836,0.2623329162597656,-0.01485709473490715
1772701984541202400,0.223202392578125,-0.03858192265033722,0.2919781804084778,-0.010605552233755589
1772701984551251200,0.233251220703125,-0.035067882388830185,0.3310467600822449,-0.0013124510878697038
1772701984561300200,0.24330029296875,-0.044180646538734436,0.33898207545280457,0.0024765990674495697
1772701984571349200,0.253349365234375,-0.057171814143657684,0.3518531322479248,0.00403987430036068
1772701984581398300,0.263398193359375,-0.0740346908569336,0.3699692189693451,0.010751249268651009
1772701984591447000,0.273447021484375,-0.095466747879982,0.38259366154670715,0.011176023632287979
1772701984601496300,0.283496337890625,-0.11119262129068375,0.40759533643722534,0.007439866662025452
1772701984611545000,0.293545166015625,-0.1284560263156891,0.4471336901187897,0.005438767373561859
1772701984621594000,0.303593994140625,-0.1404123157262802,0.49379491806030273,0.021035127341747284
1772701984631643400,0.313643310546875,-0.147915780544281,0.519843578338623,0.04327225685119629
1772701984641692200,0.323692138671875,-0.15980631113052368,0.5332679152488708,0.06735865771770477
1772701984651742200,0.3337421875,-0.17227575182914734,0.5375305414199829,0.09712906926870346
1772701984661791000,0.343791015625,-0.17747116088867188,0.5384172201156616,0.12514452636241913
1772701984671840300,0.35384033203125,-0.16321232914924622,0.5292961597442627,0.1684083789587021
1772701984681889300,0.36388916015625,-0.11717632412910461,0.5042939782142639,0.20785415172576904
1772701984691938000,0.37393798828125,-0.06610541045665741,0.524005115032196,0.2176007777452469
1772701984701987300,0.3839873046875,-0.0042516072280704975,0.5896640419960022,0.18085113167762756
1772701984712036000,0.3940361328125,0.05207344889640808,0.6919654011726379,0.090793676674366
1772701984722085000,0.404085205078125,0.1008979007601738,0.7848027348518372,-0.04763464629650116
1772701984732134100,0.414134033203125,0.08514530211687088,0.8818613886833191,-0.18809480965137482
1772701984742183200,0.42418310546875,0.07257725298404694,0.9333093166351318,-0.27886763215065
1772701984752233200,0.434233154296875,0.0800681933760643,0.934261679649353,-0.3388254940509796
1772701984762282200,0.4442822265625,0.11185581237077713,0.9255403280258179,-0.37149757146835327
1772701984772331300,0.454331298828125,0.1536565124988556,0.8892459869384766,-0.40999835729599
1772701984782380000,0.464380126953125,0.1919770985841751,0.8238195776939392,-0.4639112055301666
1772701984792429300,0.47442919921875,0.23046644032001495,0.6904223561286926,-0.5311141610145569
1772701984802478300,0.484478271484375,0.25903427600860596,0.490464448928833,-0.5539709329605103
1772701984812527000,0.494527099609375,0.24432486295700073,0.38242852687835693,-0.5039008259773254
1772701984822576400,0.504576416015625,0.22626565396785736,0.3247978389263153,-0.38635390996932983
1772701984832625200,0.514625244140625,0.1765308529138565,0.29601144790649414,-0.20882491767406464
1772701984842674200,0.524674072265625,0.09355534613132477,0.2249421775341034,-0.010442832484841347
1772701984852723200,0.53472314453125,-0.01039635669440031,0.10726774483919144,0.1960059404373169
1772701984862773200,0.544773193359375,-0.15563838183879852,-0.08379601687192917,0.2957693338394165
1772701984872822300,0.554822265625,-0.3426825702190399,-0.33468523621559143,0.27389147877693176
1772701984882871000,0.56487109375,-0.5107492208480835,-0.49204710125923157,0.10404787957668304
1772701984892920300,0.57492041015625,-0.6241796612739563,-0.375792920589447,-0.17366521060466766
1772701984902969000,0.584968994140625,-0.6992043852806091,-0.0161794014275074,-0.43804728984832764
1772701984913018000,0.59501806640625,-0.7460922598838806,0.4387494921684265,-0.6176490187644958
1772701984923067100,0.605067138671875,-0.8265913724899292,0.7522224187850952,-0.7324109077453613
1772701984933116200,0.6151162109375,-0.898784339427948,0.8157087564468384,-0.6277462840080261
1772701984943165200,0.625165283203125,-0.9303082823753357,0.7290022373199463,-0.24590404331684113
1772701984953214200,0.635214111328125,-0.905258297920227,0.6784676909446716,0.25527623295783997
1772701984963264300,0.64526416015625,-0.8644289374351501,0.6159100532531738,0.6510825753211975
1772701984973313000,0.65531298828125,-0.8245694041252136,0.3175888955593109,0.8574855327606201
1772701984983362300,0.6653623046875,-0.7242692112922668,-0.23641106486320496,0.9671460390090942
1772701984993411300,0.675411376953125,-0.6360213756561279,-0.9127597212791443,0.980232298374176
1772701985003460000,0.685460205078125,-0.61220782995224,-1.449008822441101,0.9967110753059387
1772701985013509400,0.69550927734375,-0.6092631816864014,-1.9539889097213745,0.9388808012008667
1772701985023558100,0.70555810546875,-0.5608058571815491,-2.243213415145874,0.8257593512535095
1772701985033607200,0.715607177734375,-0.4515792429447174,-2.3703696727752686,0.6512357592582703
1772701985043656200,0.72565625,-0.32168254256248474,-2.399409532546997,0.4361172914505005
1772701985053705200,0.735705322265625,-0.2084697037935257,-2.3481931686401367,0.28919416666030884
1772701985063754200,0.745754150390625,-0.13828304409980774,-2.3177073001861572,0.210359588265419
1772701985073804000,0.755803955078125,-0.10851583629846573,-2.2532660961151123,0.18248668313026428
1772701985083853300,0.765853271484375,-0.12056048959493637,-2.2098026275634766,0.09545256197452545
1772701985093902000,0.775902099609375,-0.16951711475849152,-2.03717041015625,-0.02111212909221649
1772701985103951000,0.785951171875,-0.20203877985477448,-1.7355891466140747,-0.15946759283542633
1772701985114000400,0.79600048828125,-0.18616527318954468,-1.4025959968566895,-0.29966089129447937
1772701985124049200,0.806049072265625,-0.12365718930959702,-1.17489492893219,-0.4589002728462219
1772701985134098200,0.81609814453125,-0.062219131737947464,-0.9141408801078796,-0.6060308218002319
1772701985144147200,0.826147216796875,-0.01747707463800907,-0.6710467338562012,-0.7576689124107361
1772701985154196200,0.8361962890625,0.0012561337789520621,-0.43948087096214294,-0.8727132081985474
1772701985164245200,0.846245361328125,0.030271146446466446,-0.20190875232219696,-0.9186336994171143
1772701985174295300,0.85629541015625,0.06874743103981018,0.07975808531045914,-0.8936513662338257
1772701985184344300,0.86634423828125,0.11590705066919327,0.339370995759964,-0.8447006344795227
1772701985194393000,0.87639306640625,0.13878679275512695,0.5327521562576294,-0.79304039478302
1772701985204442400,0.8864423828125,0.16400079429149628,0.6861649751663208,-0.7616021037101746
1772701985214491100,0.8964912109375,0.1793224811553955,0.8542287945747375,-0.7412691116333008
1772701985224540200,0.9065400390625,0.19653987884521484,0.9800468683242798,-0.6907801628112793
1772701985234589200,0.916589111328125,0.20525480806827545,1.0616830587387085,-0.5920665860176086
1772701985244638200,0.92663818359375,0.21826276183128357,1.1210386753082275,-0.44647741317749023
1772701985254687200,0.936687255859375,0.23635441064834595,1.0661979913711548,-0.2803289294242859
1772701985264736300,0.946736328125,0.24610194563865662,0.9784776568412781,-0.07225775718688965
1772701985274785300,0.956785400390625,0.2742595672607422,0.8112319707870483,0.1666267216205597
1772701985284835000,0.9668349609375,0.315539687871933,0.6295353174209595,0.42711976170539856
1772701985294884000,0.976884033203125,0.35229983925819397,0.4842234253883362,0.6823115944862366
1772701985304933400,0.986933349609375,0.3671436011791229,0.34845924377441406,0.8921313881874084
1772701985314982100,0.996982177734375,0.35465922951698303,0.2504027187824249,1.0589922666549683
1772701985325031200,1.00703125,0.3322642743587494,0.1431121975183487,1.2212233543395996
1772701985335080200,1.017080078125,0.325712114572525,-0.018518779426813126,1.4207268953323364
1772701985345129200,1.027129150390625,0.33261334896087646,-0.18180739879608154,1.6611522436141968
1772701985355178200,1.03717822265625,0.33905741572380066,-0.14434045553207397,1.8577244281768799
1772701985365227300,1.047227294921875,0.3138212263584137,0.17987482249736786,1.8864401578903198
1772701985375276000,1.057276123046875,0.2856180965900421,0.6138768196105957,1.764037013053894
1772701985385325300,1.0673251953125,0.23887896537780762,0.6846305131912231,1.5230796337127686
1772701985395375400,1.077375244140625,0.161272332072258,0.3558608591556549,1.1974985599517822
1772701985405423900,1.087423828125,0.05363117903470993,0.8339100480079651,1.273841142654419
1772701985415473000,1.097472900390625,0.05632869526743889,1.8514682054519653,1.2695084810256958
1772701985425522000,1.10752197265625,0.2546568512916565,3.8086698055267334,0.9577263593673706
1772701985435571000,1.117571044921875,0.4680474102497101,5.040344715118408,0.3069680333137512
1772701985445619700,1.12761962890625,0.7162768244743347,6.651936054229736,0.1451907455921173
1772701985455669000,1.1376689453125,0.7635498046875,5.90175724029541,0.3618873655796051
1772701985465718000,1.147718017578125,0.641581654548645,2.9822216033935547,0.9002206921577454
1772701985475766800,1.157766845703125,0.3263232409954071,-0.33637434244155884,1.2600038051605225
1772701985485816000,1.167816162109375,-0.0784481018781662,-2.7815887928009033,1.2529083490371704
1772701985495865900,1.177865966796875,-0.35578861832618713,-4.1719231605529785,0.9383270144462585
1772701985505915000,1.187914794921875,-0.4185205101966858,-4.864289283752441,0.6019846200942993
1772701985515964000,1.1979638671875,-0.47198933362960815,-4.7924275398254395,0.2728128731250763
1772701985526013000,1.208012939453125,-0.5933701395988464,-3.8423361778259277,0.0653504729270935
1772701985536062000,1.21806201171875,-0.7869183421134949,-2.791602373123169,0.006776110734790564
1772701985546111000,1.228111083984375,-0.7872600555419922,-2.06933856010437,0.07261668145656586
1772701985556160000,1.238159912109375,-0.7337847948074341,-1.4199342727661133,0.11545363068580627
1772701985566208800,1.248208740234375,-0.7189777493476868,-1.1975338459014893,0.11318840831518173
1772701985576258000,1.258258056640625,-0.5899773836135864,-1.2155508995056152,0.0717024877667427
1772701985586306800,1.268306884765625,-0.5095875263214111,-0.9743378162384033,0.03926325961947441
1772701985596355800,1.27835595703125,-0.41348201036453247,-0.5536419749259949,-0.005118851084262133
1772701985606406000,1.288406005859375,-0.30396515130996704,-0.13765838742256165,-0.11286871880292892
1772701985616455000,1.298454833984375,-0.2059514969587326,0.20744094252586365,-0.23144541680812836
1772701985626504000,1.30850390625,-0.06974422931671143,0.5364143252372742,-0.3426709473133087
1772701985636552700,1.318552734375,0.047485724091529846,0.9032818078994751,-0.3885361850261688
1772701985646602000,1.32860205078125,0.12813018262386322,1.2615330219268799,-0.40121549367904663
1772701985656651000,1.338651123046875,0.16659128665924072,1.4520385265350342,-0.3996064066886902
1772701985666699800,1.34869970703125,0.11082353442907333,1.4112364053726196,-0.3936901390552521
1772701985676749000,1.3587490234375,-0.04554423317313194,1.2723491191864014,-0.4073902368545532
1772701985686797800,1.3687978515625,-0.04926341772079468,1.3444486856460571,-0.4352150857448578
1772701985696846800,1.378846923828125,-0.03483867272734642,1.5361156463623047,-0.43942609429359436
1772701985706897000,1.38889697265625,-0.09095598012208939,1.7147936820983887,-0.42332929372787476
1772701985716946000,1.39894580078125,-0.23849883675575256,1.7460131645202637,-0.3858623504638672
1772701985726995000,1.408994873046875,-0.49423983693122864,1.575901985168457,-0.34042930603027344
1772701985737044000,1.4190439453125,-0.759946882724762,1.2192213535308838,-0.2919118404388428
1772701985747093000,1.429093017578125,-0.9551693797111511,0.8881816267967224,-0.23102214932441711
1772701985757141800,1.439141845703125,-1.0497814416885376,0.7087538242340088,-0.15986274182796478
1772701985767191000,1.44919091796875,-1.062801480293274,0.6875264644622803,-0.08209612965583801
1772701985777239800,1.45923974609375,-0.9738417267799377,0.8604164719581604,0.02104063704609871
1772701985787288800,1.469288818359375,-0.8311706185340881,1.0270493030548096,0.12225304543972015
1772701985797338000,1.479338134765625,-0.7135896682739258,1.2728664875030518,0.24071550369262695
1772701985807387000,1.489386962890625,-0.6245167851448059,1.4593877792358398,0.43784913420677185
1772701985817437000,1.49943701171875,-0.5594251751899719,1.4227709770202637,0.7199793457984924
1772701985827485700,1.509485595703125,-0.5352132320404053,1.0869922637939453,1.046811819076538
1772701985837535000,1.519534912109375,-0.5108644962310791,0.673511803150177,1.3288793563842773
1772701985847584000,1.529583984375,-0.5074231028556824,0.3195154368877411,1.5159697532653809
1772701985857632800,1.5396328125,-0.47443559765815735,0.13945113122463226,1.553145170211792
1772701985867682000,1.54968212890625,-0.39426523447036743,0.17655643820762634,1.4554269313812256
1772701985877730800,1.559730712890625,-0.28727272152900696,0.41187071800231934,1.2769641876220703
1772701985887779800,1.56977978515625,-0.10957179218530655,1.0080516338348389,0.8932425379753113
1772701985897828900,1.579828857421875,0.15948843955993652,1.8364819288253784,0.23217162489891052
1772701985907878000,1.5898779296875,0.4153013825416565,2.2968709468841553,-0.543553352355957
1772701985917927000,1.599927001953125,0.5567657947540283,1.6375961303710938,-1.1175223588943481
1772701985927977000,1.60997705078125,0.6526514887809753,0.2671199440956116,-1.2222059965133667
1772701985938026000,1.62002587890625,0.7807122468948364,-0.6831249594688416,-0.7441661357879639
1772701985948074800,1.63007470703125,0.823024332523346,-0.6524468064308167,0.09708890318870544
1772701985958124000,1.6401240234375,0.7113038897514343,-0.7081878185272217,1.1226778030395508
1772701985968173000,1.650173095703125,0.48497748374938965,-1.3053058385849,2.127652406692505
1772701985978221800,1.660221923828125,0.17476370930671692,-1.9972907304763794,2.7771689891815186
1772701985988271000,1.67027099609375,0.04363075643777847,-2.5596957206726074,3.02012300491333
1772701985998319900,1.68031982421875,0.1642378568649292,-3.243145227432251,3.0353448390960693
1772701986008369000,1.690368896484375,0.3513297438621521,-3.6434202194213867,2.906825304031372
1772701986018418000,1.70041796875,0.5002334713935852,-3.620250940322876,2.6631298065185547
1772701986028468000,1.710468017578125,0.5379504561424255,-3.3461151123046875,2.2566256523132324
1772701986038517000,1.72051708984375,0.5311594009399414,-2.944838762283325,1.7341173887252808
1772701986048565800,1.730565673828125,0.542378306388855,-2.6521859169006348,1.2008700370788574
1772701986058615000,1.740614990234375,0.5306217670440674,-2.4435880184173584,0.7179132103919983
1772701986068663800,1.750663818359375,0.48839709162712097,-2.2194161415100098,0.2430403083562851
1772701986078712800,1.760712890625,0.47110065817832947,-2.0471630096435547,-0.2220405638217926
1772701986088761900,1.770761962890625,0.49238404631614685,-1.834488034248352,-0.6944246888160706
1772701986098811000,1.780810791015625,0.5662356615066528,-1.5347063541412354,-1.1149578094482422
1772701986108860000,1.79085986328125,0.6710286736488342,-1.0466195344924927,-1.5021659135818481
1772701986118909000,1.800908935546875,0.7131811380386353,-0.49677982926368713,-1.8300836086273193
1772701986128958000,1.8109580078125,0.7574386596679688,0.0374981053173542,-2.1689751148223877
1772701986139007700,1.8210078125,0.7493492960929871,0.4606911838054657,-2.4773218631744385
1772701986149057000,1.83105712890625,0.6933860182762146,0.857269287109375,-2.6452908515930176
1772701986159106000,1.84110595703125,0.6420775651931763,1.0896844863891602,-2.647373914718628
1772701986169154800,1.85115478515625,0.6119168400764465,1.0294373035430908,-2.510411500930786
1772701986179204000,1.8612041015625,0.5968425869941711,0.8561061024665833,-2.246617555618286
1772701986189252900,1.8712529296875,0.5752424001693726,0.5911117792129517,-1.9320482015609741
1772701986199302000,1.881302001953125,0.5472671985626221,0.33820703625679016,-1.6805930137634277
1772701986209351000,1.891350830078125,0.5146088600158691,0.21222062408924103,-1.5257542133331299
1772701986219400000,1.90139990234375,0.47992944717407227,0.20567163825035095,-1.3921141624450684
1772701986229448700,1.91144873046875,0.4557340741157532,0.31472110748291016,-1.2279183864593506
1772701986239498000,1.921498046875,0.4394509792327881,0.3957770764827728,-1.062902808189392
1772701986249548000,1.931548095703125,0.43075090646743774,0.46531328558921814,-0.8875409364700317
1772701986259596800,1.9415966796875,0.43520185351371765,0.5054207444190979,-0.6875860095024109
1772701986269645800,1.951645751953125,0.43856364488601685,0.4303604066371918,-0.5051243901252747
1772701986279694800,1.96169482421875,0.46113792061805725,0.26874300837516785,-0.37873443961143494
1772701986289744000,1.971743896484375,0.4870363473892212,0.08468583226203918,-0.2923628091812134
1772701986299793000,1.98179296875,0.5177162289619446,-0.04669403284788132,-0.22836627066135406
1772701986309842000,1.991842041015625,0.5829669237136841,-0.04068269208073616,-0.16994629800319672
1772701986319891000,2.001890869140625,0.667484700679779,0.04307452216744423,-0.09456633031368256
1772701986329940000,2.01193994140625,0.8114039301872253,0.08503296971321106,0.07179570198059082
1772701986339989000,2.021989013671875,1.0119011402130127,0.12589837610721588,0.2879170775413513
1772701986350039000,2.0320390625,1.18675696849823,0.3359008729457855,0.42573148012161255
1772701986360087800,2.042087890625,1.3491299152374268,0.7095026969909668,0.40976423025131226
1772701986370137000,2.05213720703125,1.543306827545166,1.1520808935165405,0.235904261469841
1772701986380185900,2.062185791015625,1.7604560852050781,1.614782691001892,0.04705099016427994
1772701986390235000,2.07223486328125,2.083986520767212,2.301056146621704,-0.0475347638130188
1772701986400284400,2.082284423828125,2.5263123512268066,3.5178518295288086,-0.22041094303131104
1772701986410333700,2.092333740234375,2.6137168407440186,4.948914051055908,-0.5781733989715576
1772701986420382500,2.102382568359375,2.354294776916504,5.860093593597412,-0.6590828895568848
1772701986430431500,2.112431396484375,2.187638521194458,4.917324066162109,-0.44648170471191406
1772701986440480500,2.12248046875,2.134406805038452,2.8014981746673584,0.13320934772491455
1772701986450529500,2.132529541015625,1.7472504377365112,0.9765713810920715,0.6902236938476562
1772701986460579600,2.14257958984375,1.2922943830490112,-0.4761698842048645,0.7653663754463196
1772701986470628600,2.152628662109375,0.8829454779624939,-1.351203203201294,0.3556899428367615
1772701986480677600,2.162677734375,0.501793622970581,-1.3906548023223877,-0.16848619282245636
1772701986490726400,2.172726318359375,0.2227090746164322,-1.052520751953125,-0.5897695422172546
1772701986500775700,2.182775634765625,-0.02566690929234028,-0.7376895546913147,-0.8990916609764099
1772701986510824400,2.192824462890625,-0.23810313642024994,-0.4872831404209137,-1.0675345659255981
1772701986520873500,2.20287353515625,-0.35917922854423523,-0.28104689717292786,-1.091883897781372
1772701986530922800,2.2129228515625,-0.36973893642425537,-0.08008801192045212,-1.082479476928711
1772701986540971500,2.222971435546875,-0.2875697612762451,0.1421106904745102,-1.0814965963363647
1772701986551020500,2.2330205078125,-0.20545412600040436,0.2905939221382141,-1.0961774587631226
1772701986561069600,2.243069580078125,-0.14445389807224274,0.3924694061279297,-1.106650948524475
1772701986571119600,2.25311962890625,-0.09889287501573563,0.4189317226409912,-1.1100788116455078
1772701986581168600,2.263168701171875,-0.039625827223062515,0.38627898693084717,-1.1069163084030151
1772701986591217400,2.273217529296875,0.013006462715566158,0.3442595899105072,-1.1012036800384521
1772701986601266700,2.2832666015625,0.0591886043548584,0.32353833317756653,-1.0765093564987183
1772701986611315500,2.2933154296875,0.09124298393726349,0.3308323621749878,-1.0266788005828857
1772701986621364500,2.303364501953125,0.10249244421720505,0.383417546749115,-0.9479205012321472
1772701986631413500,2.31341357421875,0.04882677644491196,0.43043896555900574,-0.8731237053871155
1772701986641462500,2.323462646484375,-0.06638156622648239,0.40008771419525146,-0.8111828565597534
1772701986651511600,2.333511474609375,-0.12962161004543304,0.4274333119392395,-0.7044008374214172
1772701986661560600,2.343560546875,-0.1431528627872467,0.5238152146339417,-0.5365439057350159
1772701986671609600,2.353609619140625,-0.09196241945028305,0.6809412837028503,-0.36954265832901
1772701986681659400,2.363659423828125,-0.011073167435824871,0.8340386748313904,-0.25627362728118896
1772701986691708700,2.373708740234375,0.07388218492269516,0.9585126638412476,-0.22678184509277344
1772701986701757400,2.38375732421875,0.09267079085111618,1.080530047416687,-0.2599563002586365
1772701986711806500,2.393806396484375,0.028603099286556244,1.3039602041244507,-0.33263060450553894
1772701986721855700,2.403855712890625,-0.10278395563364029,1.5307542085647583,-0.4333702623844147
1772701986731904500,2.413904541015625,-0.28337326645851135,1.5944771766662598,-0.5907005071640015
1772701986741953500,2.42395361328125,-0.4570699632167816,1.349080204963684,-0.8459930419921875
1772701986752002600,2.43400244140625,-0.5279693603515625,0.9087991714477539,-1.1555405855178833
1772701986762051600,2.444051513671875,-0.45274272561073303,0.5014801025390625,-1.4802968502044678
1772701986772100400,2.454100341796875,-0.2722635269165039,0.22686097025871277,-1.7351367473602295
1772701986782149600,2.464149658203125,-0.032281819730997086,0.13487911224365234,-1.7231242656707764
1772701986792199700,2.47419970703125,0.21545986831188202,-0.2546117901802063,-1.3541676998138428
1772701986802248400,2.48424853515625,0.4634001553058624,-0.8860648274421692,-0.8183357119560242
1772701986812297500,2.49429736328125,0.5355352163314819,-1.5082541704177856,-0.13947615027427673
1772701986822346500,2.504346435546875,0.47482576966285706,-1.8041538000106812,0.4911510646343231
1772701986832395500,2.5143955078125,0.319075345993042,-1.8324793577194214,0.9838800430297852
1772701986842444500,2.524444580078125,0.004703556187450886,-1.6351144313812256,1.3695542812347412
1772701986852493600,2.53449365234375,-0.3418332040309906,-1.5399789810180664,1.7479630708694458
1772701986862542600,2.54454248046875,-0.5797794461250305,-1.731667399406433,2.133584499359131
1772701986872591600,2.554591552734375,-0.751368522644043,-2.2259628772735596,2.4893271923065186
1772701986882640600,2.564640625,-0.9060587286949158,-2.6554625034332275,2.6038260459899902
1772701986892690400,2.5746904296875,-1.0900921821594238,-2.5751662254333496,2.368155002593994
1772701986902739500,2.584739501953125,-1.2161036729812622,-1.8704622983932495,2.0671579837799072
1772701986912788700,2.594788818359375,-1.2291218042373657,-1.4535415172576904,1.8453686237335205
1772701986922837500,2.60483740234375,-1.239699363708496,-1.0389078855514526,1.5745583772659302
1772701986932886500,2.614886474609375,-1.2415704727172852,-0.6342927813529968,1.2156747579574585
1772701986942935600,2.624935546875,-1.1115717887878418,-0.4146091938018799,0.7499575614929199
1772701986952984600,2.634984619140625,-0.8262136578559875,-0.5562587380409241,0.24543166160583496
1772701986963033300,2.645033447265625,-0.5203487873077393,-0.8507471084594727,-0.08449244499206543
1772701986973082600,2.65508251953125,-0.31013861298561096,-1.1524794101715088,-0.20179606974124908
1772701986983131600,2.665131591796875,-0.18496710062026978,-1.3794933557510376,-0.25298362970352173
1772701986993181400,2.675181396484375,-0.05858345329761505,-1.4611103534698486,-0.31681087613105774
1772701987003230500,2.68523046875,0.05815381556749344,-1.468790054321289,-0.42026376724243164
1772701987013279500,2.695279541015625,0.10617195069789886,-1.387614369392395,-0.6020640730857849
1772701987023328500,2.70532861328125,0.11319044232368469,-1.280981421470642,-0.8020733594894409
1772701987033377500,2.71537744140625,0.1012701541185379,-1.1831612586975098,-0.9570607542991638
1772701987043426600,2.725426513671875,0.10685586929321289,-1.08846116065979,-1.0113526582717896
1772701987053475600,2.7354755859375,0.11736142635345459,-1.029032588005066,-0.9980514645576477
1772701987063524600,2.745524658203125,0.09544733911752701,-0.9458024501800537,-0.9927038550376892
1772701987073573600,2.75557373046875,0.023806102573871613,-0.8077322840690613,-0.9990448951721191
1772701987083622400,2.765622314453125,-0.02524586208164692,-0.7096992135047913,-0.9425691366195679
1772701987093671700,2.775671630859375,-0.03753209114074707,-0.6733137965202332,-0.8052852749824524
1772701987103721700,2.7857216796875,-0.026718590408563614,-0.6265414953231812,-0.6229245662689209
1772701987113770500,2.7957705078125,0.017933066934347153,-0.5266847610473633,-0.4391883909702301
1772701987123819500,2.805819580078125,0.09381744265556335,-0.34314289689064026,-0.2695138454437256
1772701987133868500,2.81586865234375,0.12344955652952194,-0.07834446430206299,-0.09671744704246521
1772701987143917600,2.82591748046875,0.13098444044589996,0.17460550367832184,0.06035153567790985
1772701987153966300,2.83596630859375,0.08608565479516983,0.34620726108551025,0.21331726014614105
1772701987164015600,2.846015625,0.02889852784574032,0.43306758999824524,0.3238877058029175
1772701987174064600,2.856064697265625,-0.02940838411450386,0.54627525806427,0.42424502968788147
1772701987184113400,2.866113525390625,-0.07599319517612457,0.61404949426651,0.5235516428947449
1772701987194162700,2.87616259765625,-0.12073055654764175,0.6534087061882019,0.6070681214332581
1772701987204211500,2.88621142578125,-0.17566944658756256,0.6768546104431152,0.6661090850830078
1772701987214261500,2.896261474609375,-0.2263842225074768,0.679838240146637,0.6934432983398438
1772701987224310500,2.906310546875,-0.2689436972141266,0.6316264867782593,0.6942193508148193
1772701987234359600,2.916359619140625,-0.298446387052536,0.5590876936912537,0.6610246300697327
1772701987244408600,2.92640869140625,-0.3084492087364197,0.4954413175582886,0.5953636169433594
1772701987254457600,2.93645751953125,-0.28404808044433594,0.5192597508430481,0.47663116455078125
1772701987264506600,2.946506591796875,-0.2363029420375824,0.6783420443534851,0.334688663482666
1772701987274555400,2.956555419921875,-0.15259671211242676,0.8887171149253845,0.20745693147182465
1772701987284604700,2.966604736328125,-0.09304496645927429,1.0489925146102905,0.057308703660964966
1772701987294653700,2.97665380859375,-0.009992414154112339,1.253400206565857,-0.10421614348888397
1772701987304702500,2.986702392578125,0.0683244988322258,1.4120090007781982,-0.2593287527561188
1772701987314751700,2.996751708984375,0.10485224425792694,1.5038375854492188,-0.35151395201683044
1772701987324801500,3.006801513671875,0.10994447022676468,1.6364846229553223,-0.33458638191223145
1772701987334850600,3.0168505859375,-0.13300670683383942,1.8675079345703125,-0.1220458447933197
1772701987344899600,3.026899658203125,-0.6993409991264343,2.0857346057891846,0.06676401942968369
1772701987354948600,3.036948486328125,-0.2764248847961426,2.860806941986084,0.17929324507713318
1772701987364997600,3.04699755859375,-0.008059488609433174,3.6116909980773926,-0.10901869833469391
1772701987375046400,3.05704638671875,-0.3675289452075958,3.9614408016204834,-0.3530610203742981
1772701987385095700,3.067095703125,-0.3177475333213806,3.1705029010772705,-0.36140525341033936
1772701987395144400,3.07714453125,0.5059999227523804,2.258491277694702,-0.11722550541162491
1772701987405193200,3.087193115234375,0.7561658024787903,1.513973355293274,0.057880792766809464
1772701987415242200,3.0972421875,0.5954530239105225,0.6371574997901917,0.05672302097082138
1772701987425292300,3.107292236328125,0.4956321120262146,-0.05013192445039749,0.10404632985591888
1772701987435341000,3.117341064453125,0.28606417775154114,-0.1837116926908493,0.1687338948249817
1772701987445390300,3.127390380859375,0.08518833667039871,-0.10164985060691833,0.31471186876296997
1772701987455439000,3.137439208984375,-0.011545751243829727,0.10482838749885559,0.5323776602745056
1772701987465488100,3.147488037109375,-0.03754299879074097,0.36769434809684753,0.7139184474945068
1772701987475537200,3.157537109375,-0.14840230345726013,0.6326401233673096,0.8031883835792542
1772701987485586200,3.167586181640625,-0.30873844027519226,0.8472539186477661,0.7569972276687622
1772701987495635200,3.17763525390625,-0.3913393020629883,0.8646005988121033,0.5910654067993164
1772701987505684200,3.187684326171875,-0.39097869396209717,0.7263662815093994,0.3443687856197357
1772701987515733200,3.197733154296875,-0.4017930030822754,0.6067727208137512,0.10382164269685745
1772701987525782000,3.207781982421875,-0.4277026057243347,0.8863633275032043,0.06492031365633011
1772701987535832000,3.21783203125,-0.42715588212013245,0.805820107460022,-0.014054336585104465
1772701987545881300,3.22788134765625,-0.3545599579811096,0.3383655250072479,-0.1785346269607544
1772701987555930000,3.23793017578125,-0.31529754400253296,-0.034814540296792984,-0.3130353093147278
1772701987565979100,3.247979248046875,-0.37971222400665283,-0.2017393559217453,-0.41782671213150024
1772701987576028200,3.258028076171875,-0.4437941312789917,-0.2767674922943115,-0.5297359824180603
1772701987586077200,3.2680771484375,-0.45430055260658264,-0.15535716712474823,-0.5847036242485046
1772701987596126000,3.2781259765625,-0.44542643427848816,0.045455191284418106,-0.5847854614257812
1772701987606175200,3.28817529296875,-0.41909417510032654,0.2570715844631195,-0.5742872357368469
1772701987616224000,3.29822412109375,-0.37053802609443665,0.5252189040184021,-0.5493708252906799
1772701987626273300,3.308273193359375,-0.2998047471046448,0.881921112537384,-0.5039008259773254
1772701987636323300,3.3183232421875,-0.23667143285274506,1.3221909999847412,-0.4327995181083679
1772701987646372000,3.3283720703125,-0.22436895966529846,1.7325090169906616,-0.3616297245025635
1772701987656421000,3.338421142578125,-0.31715837121009827,2.013383150100708,-0.33254069089889526
1772701987666470100,3.34847021484375,-0.47103261947631836,2.0651895999908447,-0.40500423312187195
1772701987676519200,3.358519287109375,-0.6438133120536804,1.8400825262069702,-0.6038762927055359
1772701987686568200,3.368568115234375,-0.775202214717865,1.4396514892578125,-0.8780980110168457
1772701987696617200,3.3786171875,-0.8428162336349487,1.0010591745376587,-1.220184564590454
1772701987706666200,3.388666259765625,-0.8646515011787415,0.5917262434959412,-1.7071558237075806
1772701987716715000,3.398715087890625,-1.0064219236373901,0.18632499873638153,-2.377335548400879
1772701987726764300,3.408764404296875,-1.2688013315200806,-0.27684932947158813,-2.975342035293579
1772701987736813000,3.41881298828125,-1.4008119106292725,-0.5141471028327942,-3.146104335784912
1772701987746863000,3.428863037109375,-1.314022183418274,-0.8129675984382629,-2.70898699760437
1772701987756912000,3.438912109375,-1.0572402477264404,-1.12594473361969,-1.850965976715088
1772701987766961200,3.448961181640625,-0.7914264798164368,-1.4210991859436035,-0.8458056449890137
1772701987777010200,3.45901025390625,-0.5611827373504639,-1.7851827144622803,0.24396200478076935
1772701987787059000,3.469058837890625,-0.3738231956958771,-2.18567156791687,1.3889175653457642
1772701987797108200,3.479108154296875,-0.27827587723731995,-2.5415079593658447,2.5432872772216797
1772701987807157200,3.4891572265625,-0.24110320210456848,-2.893043279647827,3.5235660076141357
1772701987817206300,3.499206298828125,-0.3227153420448303,-3.186103105545044,4.450438976287842
1772701987827255300,3.50925537109375,-0.4307006597518921,-3.2313878536224365,4.988449573516846
1772701987837304000,3.519303955078125,-0.5856404900550842,-2.5554051399230957,4.789024353027344
1772701987847354000,3.52935400390625,-0.8207374811172485,-1.812203049659729,4.014890670776367
1772701987857403400,3.5394033203125,-0.8555895686149597,-1.5360488891601562,2.8614463806152344
1772701987867452200,3.5494521484375,-0.7128632664680481,-1.2678427696228027,1.6935594081878662
1772701987877501200,3.559501220703125,-0.49840185046195984,-1.0734713077545166,0.7897801995277405
1772701987887550200,3.56955029296875,-0.3099842667579651,-0.9853361248970032,0.13532784581184387
1772701987897599200,3.57959912109375,-0.19397984445095062,-1.0185813903808594,-0.2657562494277954
1772701987907648000,3.58964794921875,-0.09447776526212692,-1.0019546747207642,-0.5149599313735962
1772701987917697300,3.599697265625,0.005210382863879204,-0.7889782190322876,-0.6439482569694519
1772701987927746000,3.60974609375,0.10436040163040161,-0.7131622433662415,-0.6052898168563843
1772701987937795000,3.619795166015625,0.1973356008529663,-0.820932924747467,-0.4948600232601166
1772701987947845000,3.62984521484375,0.24602298438549042,-0.9419557452201843,-0.41107431054115295
1772701987957894100,3.63989404296875,0.23879656195640564,-0.9588590264320374,-0.3629205822944641
1772701987967943200,3.649943115234375,0.18788783252239227,-0.8848787546157837,-0.35600993037223816
1772701987977992000,3.659991943359375,0.09285694360733032,-0.8086119294166565,-0.35830017924308777
1772701987988041200,3.670041259765625,-0.018798209726810455,-0.7800007462501526,-0.34399476647377014
1772701987998090200,3.68009033203125,-0.13435816764831543,-0.7270996570587158,-0.2556641697883606
1772701988008139000,3.690138916015625,-0.2441331297159195,-0.6493052840232849,-0.13553349673748016
1772701988018188300,3.700188232421875,-0.3729192316532135,-0.6232483983039856,-0.016588689759373665
1772701988028237000,3.710237060546875,-0.49341368675231934,-0.5276368856430054,0.05836571007966995
1772701988038286300,3.720286376953125,-0.5731971859931946,-0.4118698239326477,0.10675028711557388
1772701988048336400,3.73033642578125,-0.6026682257652283,-0.2923514246940613,0.17885911464691162
1772701988058385200,3.74038525390625,-0.5961800217628479,-0.12552975118160248,0.27382150292396545
1772701988068434200,3.75043408203125,-0.5698285698890686,0.0780169889330864,0.37151503562927246
1772701988078483200,3.760483154296875,-0.5254647731781006,0.31481343507766724,0.4580598771572113
1772701988088532200,3.7705322265625,-0.43127620220184326,0.47203847765922546,0.5336928367614746
1772701988098581000,3.7805810546875,-0.31423407793045044,0.561574399471283,0.5361892580986023
1772701988108630300,3.79063037109375,-0.26964157819747925,0.5478900074958801,0.5533719658851624
1772701988118679000,3.800678955078125,-0.2239399254322052,0.5328795313835144,0.5359570384025574
1772701988128728000,3.81072802734375,-0.2038373202085495,0.4559498429298401,0.5060476064682007
1772701988138777300,3.82077734375,-0.20111487805843353,0.44667086005210876,0.46845415234565735
1772701988148826000,3.830826171875,-0.15050601959228516,0.4441664218902588,0.34882014989852905
1772701988158876200,3.840876220703125,-0.08973390609025955,0.4557477831840515,0.18555058538913727
1772701988168925000,3.850925048828125,-0.043414607644081116,0.49967050552368164,0.045114386826753616
1772701988178974200,3.86097412109375,0.007160266395658255,0.49961286783218384,-0.06770212948322296
1772701988189023200,3.871023193359375,0.07559046149253845,0.4669787585735321,-0.15664638578891754
1772701988199072000,3.881072021484375,0.15571683645248413,0.44835367798805237,-0.1993228942155838
1772701988209121300,3.891121337890625,0.22536276280879974,0.4468042552471161,-0.2237054705619812
1772701988219170000,3.901170166015625,0.2848605811595917,0.4367385506629944,-0.22355329990386963
1772701988229219000,3.911218994140625,0.3396974503993988,0.356600284576416,-0.21893484890460968
1772701988239268000,3.92126806640625,0.36917704343795776,0.25394266843795776,-0.22172364592552185
1772701988249317000,3.931317138671875,0.3603643774986267,0.12601666152477264,-0.22588270902633667
1772701988259367200,3.9413671875,0.3348722755908966,0.01888979971408844,-0.21509964764118195
1772701988269416200,3.951416259765625,0.28053635358810425,-0.012081965804100037,-0.18675881624221802
1772701988279465200,3.96146533203125,0.2269798368215561,0.0011631217785179615,-0.11400960385799408
1772701988289514000,3.971513916015625,0.19556039571762085,0.013007264584302902,-0.0033065208699554205
1772701988299563300,3.981563232421875,0.20410460233688354,0.02749747969210148,0.1621665507555008
1772701988309612300,3.9916123046875,0.2698623239994049,0.2363779991865158,0.38452133536338806
1772701988319661000,4.0016611328125,0.5006856322288513,1.0514367818832397,0.7585023045539856
1772701988329710300,4.01171044921875,0.8882386684417725,2.4593563079833984,1.306561827659607
1772701988339759000,4.021759033203125,0.8378185033798218,2.181642770767212,1.7168830633163452
1772701988349808000,4.03180810546875,0.18468111753463745,-0.17754240334033966,1.2514876127243042
1772701988359857200,4.041857177734375,-0.5021640658378601,-1.0542289018630981,0.671245813369751
1772701988369907200,4.0519072265625,-0.5210536122322083,-0.890064537525177,-0.023180093616247177
1772701988379956200,4.061956298828125,-0.46567896008491516,-0.988368809223175,-0.6406991481781006
1772701988390005000,4.0720048828125,-0.4465247094631195,-0.7521072626113892,-1.0444557666778564
1772701988400054000,4.082053955078125,-0.22674497961997986,-0.4027664065361023,-1.2731866836547852
1772701988410103000,4.09210302734375,0.030852993950247765,-0.045213863253593445,-1.2516320943832397
1772701988420152000,4.102152099609375,0.1702764481306076,0.28736579418182373,-1.0297795534133911
1772701988430201000,4.112201171875,0.2551378011703491,0.45434466004371643,-0.6856605410575867
1772701988440249900,4.122249755859375,0.33954745531082153,0.4650523066520691,-0.26796212792396545
1772701988450299100,4.132299072265625,0.3894502818584442,0.32833975553512573,0.1410360336303711
1772701988460349200,4.14234912109375,0.40935268998146057,0.04609564319252968,0.4125727415084839
1772701988470398000,4.15239794921875,0.40970101952552795,-0.24481555819511414,0.4883767068386078
1772701988480447000,4.162447021484375,0.4219071567058563,-0.4319157898426056,0.40124455094337463
1772701988490496000,4.17249609375,0.4355585277080536,-0.40352675318717957,0.20578637719154358
1772701988500545000,4.182544921875,0.40025851130485535,-0.17665837705135345,-0.01887003891170025
1772701988510594000,4.192593994140625,0.3164810538291931,0.07692462205886841,-0.1865096390247345
1772701988520643000,4.20264306640625,0.25313693284988403,0.257266640663147,-0.2690308690071106
1772701988530692000,4.212692138671875,0.21612033247947693,0.4121057391166687,-0.2739129662513733
1772701988540740900,4.222740966796875,0.21748851239681244,0.5982002019882202,-0.2172413170337677
1772701988550790100,4.2327900390625,0.2198193073272705,0.7376643419265747,-0.16894382238388062
1772701988560840200,4.242840087890625,0.20211808383464813,0.8118709921836853,-0.14671862125396729
1772701988570889000,4.252888916015625,0.19406495988368988,0.8504629135131836,-0.15160232782363892
1772701988580938000,4.26293798828125,0.1960342824459076,0.8192616701126099,-0.17283877730369568
1772701988590987000,4.272987060546875,0.20359766483306885,0.8220641016960144,-0.2043389081954956
1772701988601036000,4.2830361328125,0.19947218894958496,0.8655732870101929,-0.2411317080259323
1772701988611085000,4.2930849609375,0.15274862945079803,0.9843470454216003,-0.25131961703300476
1772701988621134000,4.303134033203125,0.09883852303028107,1.2178500890731812,-0.2400115728378296
1772701988631183000,4.31318310546875,0.004643845371901989,1.5912854671478271,-0.21612568199634552
1772701988641232100,4.323232177734375,-0.09391308575868607,1.9696799516677856,-0.1817312240600586
1772701988651281200,4.33328125,-0.18834957480430603,2.2391159534454346,-0.176974818110466
1772701988661331000,4.3433310546875,-0.299488365650177,2.367100477218628,-0.20144805312156677
1772701988671380000,4.3533798828125,-0.4304000437259674,2.394094467163086,-0.22525110840797424
1772701988681429200,4.36342919921875,-0.5420128107070923,2.329547643661499,-0.2057974487543106
1772701988691478000,4.37347802734375,-0.6741684675216675,2.1300041675567627,-0.18667568266391754
1772701988701527000,4.383527099609375,-0.8581774234771729,1.7945257425308228,-0.19825181365013123
1772701988711576000,4.393576171875,-1.049970269203186,1.319742202758789,-0.21187655627727509
1772701988721625000,4.403625,-1.15455961227417,0.8076305985450745,-0.25088346004486084
1772701988731673900,4.413673828125,-1.1942503452301025,0.3714061379432678,-0.26668480038642883
1772701988741723100,4.42372314453125,-1.1888188123703003,0.08146299421787262,-0.24198441207408905
1772701988751772000,4.43377197265625,-1.1479421854019165,-0.11387588083744049,-0.18468517065048218
1772701988761822000,4.443822021484375,-1.0704878568649292,-0.26698845624923706,-0.07214166969060898
1772701988771871000,4.45387109375,-0.946601927280426,-0.36707910895347595,0.07806354761123657
1772701988781920000,4.463919921875,-0.7874647378921509,-0.42918866872787476,0.2041747123003006
1772701988791969000,4.473968994140625,-0.6602569818496704,-0.48834413290023804,0.3570502698421478
1772701988802018000,4.48401806640625,-0.6549142599105835,-0.6887126564979553,0.631456196308136
1772701988812067000,4.494067138671875,-0.6576988101005554,-1.1280299425125122,1.0024675130844116
1772701988822116000,4.5041162109375,-0.6532267332077026,-1.6930071115493774,1.4662489891052246
1772701988832165000,4.5141650390625,-0.7426471710205078,-2.3588850498199463,1.965173602104187
1772701988842214100,4.524214111328125,-0.7794165015220642,-2.895779609680176,2.3929595947265625
1772701988852263000,4.534262939453125,-0.6977877020835876,-3.1052138805389404,2.668897867202759
1772701988862313000,4.54431298828125,-0.6300345063209534,-2.9453999996185303,2.8164801597595215
1772701988872362200,4.5543623046875,-0.5650794506072998,-2.676955461502075,2.7571325302124023
1772701988882411000,4.564410888671875,-0.4201813340187073,-2.4439120292663574,2.521045446395874
1772701988892460000,4.5744599609375,-0.26920992136001587,-2.1197032928466797,2.2699129581451416
1772701988902509000,4.584509033203125,-0.13931700587272644,-2.034261703491211,2.0118517875671387
1772701988912558000,4.59455810546875,-0.07371243834495544,-1.9173039197921753,1.8569904565811157
1772701988922606800,4.60460693359375,-0.039559513330459595,-1.8237059116363525,1.7270841598510742
1772701988932656000,4.61465625,0.013992128893733025,-1.8089032173156738,1.5787456035614014
1772701988942705200,4.624705078125,0.04623722285032272,-1.904222011566162,1.4057549238204956
1772701988952755000,4.6347548828125,0.07128238677978516,-2.1533758640289307,1.2671072483062744
1772701988962804000,4.644803955078125,0.13282370567321777,-2.3474814891815186,1.1302030086517334
1772701988972853000,4.65485302734375,0.21538116037845612,-2.2999267578125,0.9280556440353394
1772701988982902000,4.664902099609375,0.24814555048942566,-1.9448206424713135,0.6870946288108826
1772701988992951000,4.674950927734375,0.29928356409072876,-1.2665201425552368,0.39479830861091614
1772701989003000000,4.685,0.33267995715141296,-0.7175139784812927,-0.047382477670907974
1772701989013049000,4.695049072265625,0.29186490178108215,-0.3076779842376709,-0.4730594754219055
1772701989023098000,4.70509814453125,0.21555426716804504,-0.13169658184051514,-0.7976154685020447
1772701989033147100,4.715147216796875,0.1475973129272461,-0.15788450837135315,-1.066035509109497
1772701989043196000,4.72519580078125,0.12289796024560928,-0.39622780680656433,-1.2800121307373047
1772701989053246000,4.735245849609375,0.1259123980998993,-0.6111363768577576,-1.415466547012329
1772701989063295200,4.745295166015625,0.1551765650510788,-0.6288631558418274,-1.517295002937317
1772701989073344000,4.755343994140625,0.21955102682113647,-0.43367451429367065,-1.6023038625717163
1772701989083393000,4.76539306640625,0.26338502764701843,0.015970880165696144,-1.5977171659469604
1772701989093442000,4.775442138671875,0.341195672750473,0.4995867908000946,-1.4809283018112183
1772701989103491000,4.785490966796875,0.4468679130077362,0.702058732509613,-1.2538260221481323
1772701989113539800,4.795539794921875,0.5246534943580627,0.6273000240325928,-0.943875253200531
1772701989123589000,4.805589111328125,0.5891215801239014,0.3773308992385864,-0.6167938709259033
1772701989133638100,4.81563818359375,0.6644328236579895,0.039562974125146866,-0.30985578894615173
1772701989143687000,4.82568701171875,0.7514335513114929,-0.23095707595348358,-0.04225344583392143
1772701989153737000,4.835737060546875,0.8251259326934814,-0.3453603684902191,0.17728769779205322
1772701989163786000,4.845785888671875,0.8456101417541504,-0.3466068506240845,0.3408418893814087
1772701989173835000,4.8558349609375,0.8248295187950134,-0.29804837703704834,0.4579504132270813
1772701989183884000,4.865884033203125,0.7846634387969971,-0.1991381198167801,0.5110720992088318
1772701989193933000,4.87593310546875,0.7185318470001221,-0.05333511531352997,0.49715232849121094
1772701989203982000,4.885982177734375,0.6320083141326904,0.08790922164916992,0.45812147855758667
1772701989214031000,4.896031005859375,0.5524200201034546,0.28036630153656006,0.4045479893684387
1772701989224080100,4.906080078125,0.4792709946632385,0.47827038168907166,0.3434285521507263
1772701989234129000,4.91612890625,0.40767163038253784,0.6071847081184387,0.26539260149002075
1772701989244178200,4.92617822265625,0.3280799984931946,0.6667598485946655,0.2209405153989792
1772701989254228200,4.936228271484375,0.28183579444885254,0.660006046295166,0.2328919768333435
1772701989264277000,4.946277099609375,0.29755279421806335,0.6395866274833679,0.3145036995410919
1772701989274326000,4.956325927734375,0.32782334089279175,0.6439142823219299,0.44170477986335754
1772701989284375000,4.966375,0.3628596067428589,0.7037922143936157,0.6060250997543335
1772701989294424000,4.976424072265625,0.42787882685661316,0.7983269691467285,0.7361839413642883
1772701989304472800,4.986472900390625,0.5750595331192017,0.9080350399017334,0.8080000281333923
1772701989314522000,4.996522216796875,0.7494603991508484,1.1361496448516846,0.6976849436759949
1772701989324571100,5.006571044921875,0.7970683574676514,1.592220425605774,0.2845113277435303
1772701989334620000,5.016619873046875,0.7034028768539429,2.246262788772583,-0.13041901588439941
1772701989344669200,5.026669189453125,0.7125785946846008,2.1879167556762695,-0.2889001667499542
1772701989354719000,5.036718994140625,0.8242971301078796,1.799315333366394,-0.4041532576084137
1772701989364768000,5.04676806640625,0.9397278428077698,1.4834036827087402,-0.6252485513687134
1772701989374817000,5.056817138671875,1.0708107948303223,0.9638431072235107,-1.0341465473175049
1772701989384866000,5.066865966796875,1.1789138317108154,0.32997986674308777,-1.25186026096344
1772701989394915000,5.0769150390625,1.1651148796081543,0.04613403230905533,-1.301393985748291
1772701989404964000,5.086964111328125,1.0447416305541992,-0.08203817158937454,-1.2643163204193115
1772701989415013400,5.097013427734375,0.8364549875259399,-0.1951274424791336,-1.1391035318374634
1772701989425062100,5.107062255859375,0.5535105466842651,-0.2498699277639389,-0.9450169205665588
1772701989435111200,5.117111083984375,0.2575058043003082,-0.2556242048740387,-0.7376543879508972
1772701989445161200,5.1271611328125,-0.01093180663883686,-0.20621727406978607,-0.5261285305023193
1772701989455210200,5.137210205078125,-0.22920501232147217,-0.21009670197963715,-0.3257208466529846
1772701989465259300,5.14725927734375,-0.36139512062072754,-0.26070523262023926,-0.1594441682100296
1772701989475308300,5.157308349609375,-0.4370824098587036,-0.2894708514213562,-0.04860793054103851
1772701989485357300,5.167357421875,-0.47189685702323914,-0.2846919894218445,0.005147016141563654
1772701989495406300,5.17740625,-0.4773043990135193,-0.2975321412086487,0.006518011447042227
1772701989505455400,5.187455322265625,-0.45685526728630066,-0.3168999254703522,-0.0032436950132250786
1772701989515504400,5.19750439453125,-0.4346894919872284,-0.3241533041000366,-0.03411319479346275
1772701989525553200,5.20755322265625,-0.45952531695365906,-0.3263453245162964,-0.09164901077747345
1772701989535602400,5.2176025390625,-0.490944504737854,-0.31849247217178345,-0.1591300517320633
1772701989545652500,5.227652587890625,-0.5432623028755188,-0.3084675073623657,-0.218233123421669
1772701989555701200,5.237701171875,-0.6231435537338257,-0.17343670129776,-0.2593965232372284
1772701989565750300,5.247750244140625,-0.713865339756012,0.13462145626544952,-0.27165988087654114
1772701989575799300,5.25779931640625,-0.790153443813324,0.5700027346611023,-0.27184975147247314
1772701989585848300,5.267848388671875,-0.8721082806587219,0.9940139055252075,-0.25330662727355957
1772701989595897000,5.27789697265625,-0.96871018409729,1.3517826795578003,-0.19391439855098724
1772701989605946400,5.2879462890625,-1.0450643301010132,1.6466901302337646,-0.08241481333971024
1772701989615995100,5.2979951171875,-1.0415350198745728,1.7432341575622559,0.0994977280497551
1772701989626044200,5.308044189453125,-1.0110896825790405,1.5218616724014282,0.34246528148651123
1772701989636093400,5.318093505859375,-1.0132309198379517,1.1406179666519165,0.560129702091217
1772701989646143200,5.328143310546875,-0.9820191860198975,0.8087204694747925,0.7164191603660583
1772701989656192300,5.338192138671875,-0.8664835691452026,0.5735535025596619,0.8077037930488586
1772701989666241300,5.3482412109375,-0.7142535448074341,0.4839314818382263,0.7696943879127502
1772701989676290300,5.358290283203125,-0.5717065334320068,0.5635230541229248,0.5966408848762512
1772701989686339300,5.36833935546875,-0.43901246786117554,0.6751598715782166,0.3833770453929901
1772701989696388400,5.378388427734375,-0.3375612199306488,0.7598589658737183,0.23322585225105286
1772701989706437400,5.388437255859375,-0.26368752121925354,0.800516664981842,0.15946827828884125
1772701989716486100,5.398486083984375,-0.18990777432918549,0.8028289675712585,0.11310552060604095
1772701989726535400,5.408535400390625,-0.11835341900587082,0.7648094296455383,0.06272170692682266
1772701989736585500,5.41858544921875,-0.06041835620999336,0.5691850185394287,0.0041987160220742226
1772701989746634200,5.42863427734375,-0.021105308085680008,0.15136994421482086,0.035416822880506516
1772701989756683300,5.438683349609375,0.037752117961645126,-0.3603208661079407,0.1489185094833374
1772701989766732300,5.448732177734375,0.07064801454544067,-0.8733721375465393,0.29441314935684204
1772701989776781300,5.45878125,0.08485111594200134,-1.28424870967865,0.43483966588974
1772701989786830000,5.468830078125,0.0813266858458519,-1.4858132600784302,0.5557719469070435
1772701989796879400,5.47887939453125,0.04576728492975235,-1.4938677549362183,0.682500958442688
1772701989806928400,5.488928466796875,-0.05279843509197235,-1.3302644491195679,0.8522875905036926
1772701989816977200,5.49897705078125,-0.1351766735315323,-1.0126694440841675,1.1314456462860107
1772701989827027200,5.509027099609375,-0.13629573583602905,-0.727904736995697,1.505908489227295
1772701989837076200,5.519076171875,-0.08814652264118195,-0.8107616901397705,1.96042001247406
1772701989847125200,5.529125244140625,0.01587255857884884,-1.6109315156936646,2.49908709526062
1772701989857174300,5.53917431640625,0.2460988461971283,-3.2173357009887695,2.775421619415283
1772701989867223300,5.549223388671875,0.46500909328460693,-4.017716884613037,2.622499942779541
1772701989877272300,5.559272216796875,0.7176252007484436,-3.717766761779785,2.1033055782318115
1772701989887321300,5.5693212890625,0.9184427261352539,-3.054835796356201,1.165007472038269
1772701989897370400,5.579370361328125,0.9022525548934937,-2.213235855102539,0.37934809923171997
1772701989907419100,5.589419189453125,0.6812695860862732,-1.6173791885375977,0.0007073120796121657
1772701989917468400,5.599468505859375,0.49699851870536804,-1.2506427764892578,-0.09969476610422134
1772701989927518500,5.6095185546875,0.3867553770542145,-0.9881842136383057,-0.14708465337753296
1772701989937567200,5.619567138671875,0.31301501393318176,-0.7946282029151917,-0.2253299206495285
1772701989947616300,5.6296162109375,0.23596684634685516,-0.6852721571922302,-0.29010334610939026
1772701989957665300,5.639665283203125,0.10900500416755676,-0.6039789915084839,-0.27467864751815796
1772701989967714300,5.64971435546875,-0.04135946184396744,-0.42521005868911743,-0.24366426467895508
1772701989977763000,5.65976318359375,-0.19312214851379395,-0.24475090205669403,-0.26455453038215637
1772701989987812400,5.669812255859375,-0.36824122071266174,-0.10628676414489746,-0.31727394461631775
1772701989997861400,5.679861328125,-0.472305029630661,0.17767518758773804,-0.34070098400115967
1772701990007910100,5.68991015625,-0.5063684582710266,0.41374582052230835,-0.30411526560783386
1772701990017960200,5.699960205078125,-0.5013478398323059,0.44691601395606995,-0.22710251808166504
1772701990028009200,5.71000927734375,-0.4915246069431305,0.23657141625881195,-0.11683114618062973
1772701990038058200,5.720058349609375,-0.4668477475643158,0.012111946940422058,-0.018575146794319153
1772701990048107300,5.730107177734375,-0.4413924515247345,-0.1312006562948227,0.011228932067751884
1772701990058156300,5.74015625,-0.428803950548172,-0.17420724034309387,-0.008543973788619041
1772701990068205300,5.750205322265625,-0.40690845251083374,-0.10485771298408508,-0.04748186841607094
1772701990078254300,5.76025439453125,-0.3851850628852844,0.03682192042469978,-0.10661043971776962
1772701990088303400,5.770303466796875,-0.38658085465431213,0.2837828993797302,-0.16337049007415771
1772701990098352000,5.78035205078125,-0.38882163166999817,0.6205156445503235,-0.21922257542610168
1772701990108401400,5.7904013671875,-0.3788054585456848,0.981357216835022,-0.2200150191783905
1772701990118451500,5.800451416015625,-0.34589701890945435,1.2759902477264404,-0.16230431199073792
1772701990128500200,5.810500244140625,-0.30568304657936096,1.4621435403823853,-0.06091730296611786
1772701990138549200,5.82054931640625,-0.25491443276405334,1.5104146003723145,0.062327928841114044
1772701990148598300,5.830598388671875,-0.2124236524105072,1.4465558528900146,0.17210207879543304
1772701990158647300,5.840647216796875,-0.18889330327510834,1.3349484205245972,0.2475142776966095
1772701990168696300,5.8506962890625,-0.18965774774551392,1.1481369733810425,0.3072613775730133
1772701990178745300,5.860745361328125,-0.20730304718017578,0.9207912087440491,0.3404337167739868
1772701990188794400,5.87079443359375,-0.24398083984851837,0.7262303829193115,0.3346519470214844
1772701990198844200,5.88084423828125,-0.2914476990699768,0.5937881469726562,0.27927258610725403
1772701990208893200,5.89089306640625,-0.34043020009994507,0.5606847405433655,0.20560884475708008
1772701990218942500,5.9009423828125,-0.3475120961666107,0.6330150961875916,0.1341216117143631
1772701990228991200,5.9109912109375,-0.30822694301605225,0.7136207818984985,0.0989963635802269
1772701990239040300,5.921040283203125,-0.2236659973859787,0.6999419927597046,0.10617517679929733
1772701990249089300,5.93108935546875,-0.08401757478713989,0.5592751502990723,0.15311986207962036
1772701990259138300,5.94113818359375,0.07060529291629791,0.3070780336856842,0.20035287737846375
1772701990269187300,5.951187255859375,0.21581965684890747,0.045547448098659515,0.19284822046756744
1772701990279236400,5.961236328125,0.31583067774772644,-0.11258865892887115,0.12364120036363602
1772701990289286400,5.971286376953125,0.37355729937553406,-0.20398066937923431,0.05051655322313309
1772701990299335200,5.981335205078125,0.44568610191345215,-0.20319396257400513,0.03819889947772026
1772701990309384400,5.991384521484375,0.5892104506492615,-0.12273570895195007,0.13870981335639954
1772701990319433200,6.00143310546875,0.7732167840003967,0.10123667120933533,0.23243017494678497
1772701990329482200,6.011482177734375,0.8677790760993958,0.3827342987060547,0.1748623549938202
1772701990339531300,6.02153125,0.9263824820518494,0.8134982585906982,0.03338512405753136
1772701990349580300,6.031580322265625,0.9287181496620178,1.293102502822876,-0.26821455359458923
1772701990359629300,6.04162939453125,0.9578534364700317,1.087253212928772,-0.6125826239585876
1772701990369678300,6.05167822265625,0.9068698287010193,0.6118276119232178,-0.8377544283866882
1772701990379728400,6.061728271484375,0.8014664053916931,0.20620286464691162,-0.9343752264976501
1772701990389777200,6.071777099609375,0.7114657759666443,-0.22833555936813354,-0.8729820251464844
1772701990399826200,6.081826171875,0.5894250869750977,-0.48341789841651917,-0.6876901984214783
1772701990409875000,6.091875,0.43749919533729553,-0.4953860938549042,-0.48496657609939575
1772701990419924000,6.101924072265625,0.28356051445007324,-0.4154483675956726,-0.3567505478858948
1772701990429973000,6.111972900390625,0.13434012234210968,-0.44867557287216187,-0.28525903820991516
1772701990440022000,6.12202197265625,-0.012621362693607807,-0.5079788565635681,-0.22656778991222382
1772701990450070800,6.13207080078125,-0.1688184142112732,-0.5575013756752014,-0.19221433997154236
1772701990460120000,6.1421201171875,-0.3161175847053528,-0.7215707302093506,-0.1543433964252472
1772701990470170000,6.152170166015625,-0.44082018733024597,-0.9889466166496277,-0.11579447984695435
1772701990480219000,6.162218994140625,-0.5235909223556519,-1.2684249877929688,-0.07718876004219055
1772701990490268000,6.172267822265625,-0.5658776760101318,-1.4938191175460815,-0.0020359037443995476
1772701990500317000,6.18231689453125,-0.5634552240371704,-1.6740602254867554,0.08697705715894699
1772701990510366000,6.192365966796875,-0.5311411023139954,-1.6662096977233887,0.15902528166770935
1772701990520414700,6.202414794921875,-0.4817732870578766,-1.5013829469680786,0.20880721509456635
1772701990530464000,6.212464111328125,-0.41300803422927856,-1.2133511304855347,0.22723129391670227
1772701990540512800,6.2225126953125,-0.3521958291530609,-0.8641957640647888,0.2155139148235321
1772701990550562800,6.232562744140625,-0.30775025486946106,-0.5029513835906982,0.16604694724082947
1772701990560611800,6.24261181640625,-0.26477882266044617,-0.13304440677165985,0.10731625556945801
1772701990570660900,6.252660888671875,-0.21037915349006653,0.13851742446422577,0.046864528208971024
1772701990580710000,6.2627099609375,-0.1595814824104309,0.2556498944759369,0.03234870359301567
1772701990590759000,6.272759033203125,-0.10867828130722046,0.35871970653533936,0.09343358874320984
1772701990600808000,6.282807861328125,-0.09083110839128494,0.737253725528717,0.2226986289024353
1772701990610857000,6.29285693359375,-0.026223404332995415,1.0684109926223755,0.3864586353302002
1772701990620906000,6.302906005859375,0.030118165537714958,1.1544060707092285,0.5670979022979736
1772701990630955000,6.312955078125,0.02622121572494507,1.0530287027359009,0.7701522707939148
1772701990641004800,6.3230048828125,-0.025310683995485306,0.7679498791694641,0.9383170008659363
1772701990651053800,6.3330537109375,-0.05874735116958618,0.46527808904647827,1.0517953634262085
1772701990661103000,6.34310302734375,-0.07731357961893082,0.1367926299571991,1.0932914018630981
1772701990671151900,6.35315185546875,-0.11443745344877243,-0.11278301477432251,1.079253077507019
1772701990681201000,6.363200927734375,-0.15836016833782196,-0.24626889824867249,1.0402913093566895
1772701990691250000,6.37325,-0.21072188019752502,-0.26347845792770386,0.9942441582679749
1772701990701299000,6.383298828125,-0.254690945148468,-0.22428390383720398,0.9713926315307617
1772701990711347700,6.39334765625,-0.30728647112846375,-0.12278010696172714,0.9029001593589783
1772701990721397000,6.40339697265625,-0.3285464942455292,-0.07916179299354553,0.8624757528305054
1772701990731447000,6.413447021484375,-0.3291298449039459,-0.03866148740053177,0.8009113669395447
1772701990741495800,6.423495849609375,-0.29039204120635986,0.002344799228012562,0.7410738468170166
1772701990751544800,6.433544921875,-0.2567542493343353,0.03608687222003937,0.6542811393737793
1772701990761593900,6.44359375,-0.24414099752902985,0.055201444774866104,0.5508500933647156
1772701990771643000,6.453642822265625,-0.2289709895849228,0.09499087929725647,0.4552549421787262
1772701990781692000,6.46369189453125,-0.21190811693668365,0.17008376121520996,0.37268495559692383
1772701990791741000,6.473740966796875,-0.18851304054260254,0.2684077322483063,0.28249454498291016
1772701990801790000,6.4837900390625,-0.1667366325855255,0.359622061252594,0.210444837808609
1772701990811839000,6.4938388671875,-0.15944895148277283,0.3832675814628601,0.1456429809331894
1772701990821889000,6.503888916015625,-0.16251851618289948,0.34384188055992126,0.09542003273963928
1772701990831938000,6.51393798828125,-0.15510979294776917,0.24800443649291992,0.060531094670295715
1772701990841986800,6.52398681640625,-0.13442236185073853,0.09727457910776138,0.02951698936522007
1772701990852036000,6.5340361328125,-0.11135828495025635,-0.038358282297849655,-0.0030130152590572834
1772701990862084900,6.5440849609375,-0.08680873364210129,-0.15048108994960785,-0.048062514513731
1772701990872134000,6.5541337890625,-0.06916870921850204,-0.26330339908599854,-0.06301480531692505
1772701990882183000,6.564182861328125,-0.050867725163698196,-0.3526356816291809,-0.04296599701046944
1772701990892232000,6.57423193359375,-0.04625804349780083,-0.3922072947025299,-0.016532473266124725
1772701990902280700,6.58428076171875,-0.05717620626091957,-0.40484240651130676,-0.007586648687720299
1772701990912330800,6.594330810546875,-0.0744389221072197,-0.3999096155166626,-0.00012079777661710978
1772701990922380000,6.604380126953125,-0.10434062778949738,-0.3684512972831726,0.004360237158834934
1772701990932428800,6.6144287109375,-0.13727732002735138,-0.33834192156791687,0.014116623438894749
1772701990942477800,6.624477783203125,-0.1640854924917221,-0.31044983863830566,0.042345333844423294
1772701990952526800,6.63452685546875,-0.188675194978714,-0.27039286494255066,0.06311361491680145
1772701990962576000,6.644575927734375,-0.2073839008808136,-0.22051720321178436,0.08199569582939148
1772701990972625000,6.654625,-0.2122468203306198,-0.1760069578886032,0.08739996701478958
1772701990982674000,6.664673828125,-0.20953838527202606,-0.14035095274448395,0.09414282441139221
1772701990992723000,6.674722900390625,-0.20579387247562408,-0.10172878950834274,0.09253020584583282
1772701991002772700,6.684772705078125,-0.20421169698238373,-0.04946824163198471,0.10468487441539764
1772701991012822000,6.694822021484375,-0.20936235785484314,-0.03749594837427139,0.0896519348025322
1772701991022871000,6.70487109375,-0.2226981371641159,-0.08274465054273605,0.06482808291912079
1772701991032919800,6.714919921875,-0.24064117670059204,-0.15215276181697845,0.03546886518597603
