time,seconds_elapsed,z,y,x
1772701740453318000,0.07131787109375,0.09428922602534294,-0.17753025768324732,-0.07289221773147582
1772701740463366000,0.081365966796875,0.09009177433550357,-0.1073769633963704,-0.06111760878562927
1772701740473414000,0.091413818359375,0.07063713228106498,0.031390871302783487,-0.10241992551088333
1772701740483463000,0.101462890625,0.04180091389715671,0.0540077767804265,-0.04718026884794235
1772701740493511000,0.111510986328125,0.029893033960461616,0.015610241585969924,0.08059270910620689
1772701740503559000,0.121558837890625,0.027560791620612143,0.01718742777481675,0.1456815596103668
1772701740513608000,0.13160791015625,0.058225978997349735,0.08275412492379546,0.1434159527659416
1772701740523656000,0.141656005859375,0.06669044048190116,0.14251988070905208,0.06741875475645065
1772701740533703700,0.15170361328125,0.06028817222416401,0.18609598758518694,0.0132715695053339
1772701740543753000,0.1617529296875,0.06756079357564448,0.20047960998564957,-0.017844868770241735
1772701740553800700,0.17180078125,0.051097734552621836,0.19853738987669348,-0.0625192922770977
1772701740563849000,0.181848876953125,0.04656418277621269,0.15469649458453058,-0.0825268920391798
1772701740573897700,0.191897705078125,0.03259294056892395,0.10916823072731495,-0.10246844082772731
1772701740583946000,0.201946044921875,-0.04431026636958122,0.0829920253328979,-0.11039748026132583
1772701740593994000,0.211993896484375,-0.1380056181550026,0.026933307372033595,-0.11738602397441864
1772701740604043000,0.22204296875,-0.18661562754511832,-0.012806290081143378,-0.05974456686675548
1772701740614091000,0.232091064453125,-0.14214286409020424,0.06144874043613672,-0.1038327149182558
1772701740624138800,0.242138671875,-0.09761749366521835,0.10414704156443476,-0.21756255447268485
1772701740634188000,0.25218798828125,-0.11748714626133441,0.11832286643311381,-0.24773089824318884
1772701740644235800,0.26223583984375,-0.07539630950689315,0.09929214887917041,-0.21102643070220947
1772701740654284000,0.272283935546875,-0.021501053190231323,0.041456045982241625,-0.12264905906915664
1772701740664332800,0.282332763671875,0.08157353683710097,-0.023257103077322244,-0.05456979457736015
1772701740674381000,0.292381103515625,0.07896949181854725,-0.10727248010858893,-0.08440612991452216
1772701740684429800,0.302429931640625,0.04875789342820644,-0.12961802129894495,-0.11879647529423236
1772701740694477800,0.312477783203125,0.022712182545661926,-0.09201806622296571,-0.10768062251806258
1772701740704525800,0.32252587890625,0.007165069323778152,-0.1294097853757441,-0.08025427093207836
1772701740714574800,0.332574951171875,0.005271802923083305,-0.10589008583948016,-0.040104631373286244
1772701740724622800,0.342622802734375,0.09145371033847331,-0.05905132390558719,-0.026857611787319182
1772701740734670800,0.3526708984375,0.15686112527251242,-0.044059652609378094,-0.047288405397534365
1772701740744720000,0.362719970703125,0.21009762541949747,-0.05731441711038351,-0.047125908312201495
1772701740754768000,0.372767822265625,0.2356242808640003,-0.10243556147143244,-0.048776013606786725
1772701740764816000,0.38281591796875,0.20697452496290206,-0.1489731485016644,0.01951835494041443
1772701740774865000,0.392864990234375,0.15751637431085108,-0.18123101189732552,0.05607435392141342
1772701740784913000,0.402912841796875,0.10565642321407795,-0.1106092233158648,-0.044184009641408915
1772701740794961000,0.4129609375,0.10834697747230529,-0.07206628830134869,-0.12731179018318653
1772701740805010000,0.423010009765625,0.16908932320475578,-0.04658727139085531,-0.11797639108300208
1772701740815058000,0.433057861328125,0.25158640462756154,-0.06665566142946482,-0.14633037890791892
1772701740825106000,0.44310595703125,0.2606149297356605,-0.13988602507412431,-0.15409867482185363
1772701740835155000,0.453155029296875,0.26846681227982044,-0.22432138108313082,-0.12391279539465903
1772701740845203000,0.463202880859375,0.26332068156301974,-0.28788316815048454,-0.1393687232017517
1772701740855251000,0.4732509765625,0.25997896991968156,-0.35315409722328184,-0.10993220083713531
1772701740865300000,0.483300048828125,0.3010995003372431,-0.35478520555645227,-0.09231880273520945
1772701740875348000,0.493347900390625,0.17982582127451896,-0.18429829051345586,-0.1022124202400446
1772701740885396000,0.50339599609375,0.012976385951042174,-0.006544599337875843,-0.16040332792401313
1772701740895445000,0.513445068359375,0.09948036492764949,0.003027969519048929,-0.21700608963370321
1772701740905493000,0.523492919921875,0.14214169504642485,-0.030353929470479487,-0.19590017324090003
1772701740915541800,0.533541748046875,0.26506781749129293,-0.13455094765648246,-0.15391162781715392
1772701740925589800,0.54358984375,0.2669949861615896,-0.23327508738934993,-0.08012099994122981
1772701740935638000,0.553637939453125,0.3495622102111578,-0.3866201673649251,0.02824117510020733
1772701740945686800,0.563686767578125,0.3685924893736839,-0.38224692071676253,0.15855974588394164
1772701740955735000,0.573735107421875,0.25194296298027036,-0.18376243007108567,0.17062077055573463
1772701740965782800,0.58378271484375,0.05287234300971031,-0.1775901711769402,0.16605740816295145
1772701740975832000,0.59383203125,-0.07787000614404678,-0.25771687020659445,-0.030442484536767005
1772701740985879800,0.6038798828125,0.03989829514622688,-0.2867750607781112,-0.42016719378829
1772701740995927800,0.613927734375,0.2690940042674541,-0.34981033975332976,-0.8803583549290895
1772701741005976800,0.623976806640625,0.6531523583203553,-0.5040189046904444,-1.2858084565788506
1772701741016024800,0.63402490234375,1.1205839921087026,-0.6326942383117974,-1.5878607275962828
1772701741026073000,0.644072998046875,1.768407848882675,-0.7359129129849374,-1.8159388308644293
1772701741036121900,0.654121826171875,2.42495452581644,-0.7886360567823052,-2.237134783178568
1772701741046170000,0.664170166015625,2.822770771586895,-0.7820832741379737,-2.7002339407205582
1772701741056217900,0.6742177734375,3.12918182233572,-0.6839552006021141,-2.9744939494490623
1772701741066267100,0.68426708984375,3.3135067085951566,-0.5608214267559349,-3.161244601550698
1772701741076315000,0.69431494140625,3.4896810216248033,-0.44170711768418547,-3.3526176527559755
1772701741086364000,0.704364013671875,3.555504616144299,-0.26203356436192987,-3.426509987440705
1772701741096412000,0.714411865234375,3.3060967245995996,-0.10462313464358448,-3.2349715165406465
1772701741106460000,0.7244599609375,2.851280242234468,-0.03959624345973134,-2.7029221568912267
1772701741116509000,0.734509033203125,1.9866987176299093,0.010926759944856167,-2.046301245677471
1772701741126557000,0.744556884765625,0.29036826296448703,0.1170367721453309,-1.247691199630499
1772701741136605000,0.75460498046875,-1.8211884219557046,0.4339651252552867,-0.2680868730515241
1772701741146654000,0.764654052734375,-4.0639229248374695,1.1153802859857678,0.8577841195493936
1772701741156701700,0.77470166015625,-5.916107958081365,1.8179513397306202,1.9600842669486997
1772701741166750000,0.78475,-6.6462710753679275,2.0386188744813203,2.6930846534878015
1772701741176798700,0.794798828125,-7.130691837880015,2.3459940940871835,3.49791225887537
1772701741186847000,0.804846923828125,-7.6863219796031705,2.6088918740630147,4.055517500063777
1772701741196895000,0.81489501953125,-8.50661077349484,2.449041065455228,4.065983364498615
1772701741206943500,0.824943603515625,-9.44306394061148,2.0265514200687407,4.0659260813534255
1772701741216991500,0.834991455078125,-10.275097532832621,1.4842181284226477,4.555506418585777
1772701741227039500,0.84503955078125,-11.013033037686347,1.1881352141384034,5.431392596536875
1772701741237088500,0.855088623046875,-11.419735185223818,1.1850368827968836,6.667450641518831
1772701741247136500,0.865136474609375,-11.303753182828427,1.0537577964179217,7.914657857024669
1772701741257185500,0.875185546875,-11.67488132815957,0.8673504047960042,8.814716937723755
1772701741267233500,0.885233642578125,-12.43608314231038,0.6878514773882926,9.435098660820723
1772701741277281500,0.895281494140625,-12.75173548413515,0.6666358900759368,9.758834355857967
1772701741287330600,0.90533056640625,-12.110377023983,0.6894230375539511,9.376420846402645
1772701741297378600,0.915378662109375,-10.632917283779381,0.5899537785422057,8.075077551561593
1772701741307426600,0.925426513671875,-8.135114963895083,0.5061595699809491,6.075591248551011
1772701741317475600,0.9354755859375,-4.407085789400339,0.38570429462902245,4.01230028962791
1772701741327523600,0.945523681640625,-1.292590664064884,0.4304703419420868,2.43094236805439
1772701741337571600,0.955571533203125,0.48176995574235915,0.4318052438076585,1.085916583353281
1772701741347620600,0.96562060546875,2.1878467283964156,0.32703510190881785,-0.16261106710135936
1772701741357668600,0.975668701171875,4.602669736298918,0.10452150090001523,-1.5174123958855867
1772701741367717600,0.985717529296875,6.988349067303538,-0.014514920629933476,-2.452562663710117
1772701741377765600,0.995765625,8.93746068933904,-0.12925817501060663,-3.050166737809777
1772701741387813600,1.005813720703125,10.14041082996726,-0.5232789009556174,-3.689896719977259
1772701741397862400,1.0158623046875,10.754933890163898,-0.9682940472092479,-4.402886584144831
1772701741407910700,1.02591064453125,11.134433557999133,-1.314485977269709,-4.907139589852094
1772701741417958400,1.03595849609375,11.385813041877746,-1.5326443056784569,-5.237276384103298
1772701741428007700,1.046007568359375,11.600469353514908,-1.764650688306242,-5.444970455512404
1772701741438055400,1.056055419921875,12.03837327952385,-2.0724134459249672,-5.5445852604746815
1772701741448103400,1.066103515625,12.653255236160755,-2.218746016789973,-5.746375660797954
1772701741458152400,1.07615234375,13.234170625787973,-2.036543529511988,-5.8373278513550755
1772701741468200400,1.086200439453125,13.43455057479143,-1.7339643120110033,-5.95451689145267
1772701741478248700,1.096248779296875,13.181989187651872,-1.4230755313262342,-6.038139177513123
1772701741488297500,1.10629736328125,12.417033573925494,-1.2487050528481602,-5.778921255093812
1772701741498345700,1.116345703125,11.257914976239205,-1.0013621310092509,-5.4629141084820025
1772701741508394500,1.12639453125,10.256606767374276,-0.7066472902078181,-5.271256395116448
1772701741518442800,1.13644287109375,9.370825802874565,-0.5314798161331564,-5.092288067454099
1772701741528490500,1.146490478515625,8.572493404725193,-0.5216271882258355,-4.956581373891234
1772701741538539800,1.156539794921875,8.064633314436673,-0.5156689374085516,-4.932276369196177
1772701741548587500,1.16658740234375,7.767597410276531,-0.4558719827674329,-5.0425832485646005
1772701741558635500,1.176635498046875,7.645998152521252,-0.30241577056758107,-5.05731846088171
1772701741568684500,1.1866845703125,7.45066145838201,-0.14956336947977542,-4.957769122371078
1772701741578732500,1.196732666015625,7.041377477657795,-0.07568374814614653,-4.683240818095207
1772701741588780500,1.206780517578125,6.437451214799284,-0.058014747399464245,-4.310841922175884
1772701741598829600,1.21682958984375,5.5470098572731015,-0.19931743433848023,-3.9004648855179544
1772701741608877300,1.226877197265625,4.41279013852179,-0.36937110906336457,-3.3697312846422194
1772701741618925600,1.236925537109375,3.711819213449955,-0.37587439001016315,-2.7602508947879074
1772701741628974300,1.246974365234375,3.129110510665178,-0.35860337560512123,-1.955344963467121
1772701741639022600,1.257022705078125,1.9568097753226756,-0.3957269088083878,-0.3573176466435194
1772701741649071400,1.2670712890625,0.11350772123634814,-0.3576007013686001,2.2487509866923094
1772701741659119600,1.27711962890625,-2.594982591176033,-0.14862773259747772,5.7616404499471185
1772701741669167600,1.287167724609375,-6.756776692178845,0.37128432227354496,10.722506953811646
1772701741679216600,1.297216552734375,-13.412095581877232,1.6972604289919138,18.19001842470765
1772701741689264600,1.3072646484375,-23.144195660066604,3.2796640602260827,23.675792599773406
1772701741699312400,1.3173125,-28.365327549576758,2.0839244354985653,24.25449732761383
1772701741709361700,1.327361572265625,-29.329702158319947,0.3426873925382271,21.317976258206365
1772701741719409400,1.337409423828125,-27.74824545254707,0.34626357052456586,14.5966175008893
1772701741729457700,1.347457763671875,-19.861904173946378,1.6361258690714835,6.915988179969787
1772701741739506400,1.35750634765625,-13.024483919256925,0.9015423780594021,2.99204772631824
1772701741749554700,1.3675546875,-9.51011503109932,-0.6466719833251089,1.7716390858888624
1772701741759602400,1.3776025390625,-7.140574933990836,-1.244718029038608,1.5080845955699682
1772701741769651700,1.387651611328125,-4.968041510060429,-1.0825348319604993,0.8035597774088382
1772701741779699500,1.397699462890625,-2.4328514165461064,-0.7346502726379781,-0.26180676986873147
1772701741789748500,1.40774853515625,-0.17684183702766895,-0.47952020405419166,-1.3391992705047129
1772701741799796500,1.41779638671875,2.139262437969446,-0.3192753911601379,-2.039926449948549
1772701741809844500,1.427844482421875,4.747030860960483,-0.2244549078023061,-2.807632239165902
1772701741819893500,1.4378935546875,6.629651949000358,-0.11239902934208512,-3.8491286660343405
1772701741829941500,1.44794140625,7.4482526436746115,-0.028558296491671353,-4.815061025613546
1772701741839989500,1.457989501953125,7.554858330437541,0.13018224931927397,-5.211407198831439
1772701741850038500,1.46803857421875,7.22225310024619,0.14802783047556875,-5.455088529422879
1772701741860086500,1.47808642578125,6.847954508185386,0.2960139955001883,-5.794174938327074
1772701741870134500,1.488134521484375,6.71006813249588,0.37199199561886487,-5.646541660127044
1772701741880183600,1.49818359375,6.47602732143104,0.33692634479347616,-5.431939709025621
1772701741890231600,1.5082314453125,6.461330103036761,0.2045300361539237,-5.349217002153396
1772701741900279600,1.518279541015625,6.4565282557129855,-0.13981526139285413,-5.072936885774135
1772701741910328600,1.52832861328125,6.344113590410351,-0.5544304105445742,-4.849272507295012
1772701741920376600,1.53837646484375,6.101095692163706,-0.932698783019185,-4.6408138812541955
1772701741930425600,1.548425537109375,5.172552275258302,-1.2694257693156599,-4.418022193956375
1772701741940473600,1.5584736328125,4.300977530765533,-1.3746747807726263,-3.820569511026144
1772701741950521300,1.568521240234375,3.9768402691900726,-1.1136482745613903,-2.988817658355832
1772701741960570600,1.578570556640625,3.214070767331123,-0.4132678992612287,-1.7099936538368463
1772701741970618400,1.588618408203125,1.3589362366318702,0.4656156704075634,-0.2461690557539463
1772701741980666600,1.59866650390625,-0.3508189322739839,1.202721592569351,1.2652028909236193
1772701741990715400,1.60871533203125,-0.9395113856434821,1.855590603903681,3.3340286876201626
1772701742000763600,1.618763671875,-1.1934990061938762,2.393096621523797,4.85626981883645
1772701742010811600,1.628811767578125,-1.1465174747884272,2.6558321966752407,5.545607589259744
1772701742020860400,1.6388603515625,-0.8875929823577403,2.581800453519821,3.937581440991163
1772701742030908700,1.64890869140625,-0.39979543688893315,2.355500173579156,0.489610732370615
1772701742040957400,1.65895751953125,0.01061024134159088,1.6955971719548104,-1.864952160358429
1772701742051005700,1.669005615234375,0.06335925023257732,0.758767426610738,-3.449248473471403
1772701742061053400,1.679053466796875,0.2408089900255203,0.4487376008428633,-4.501284414532781
1772701742071102700,1.689102783203125,1.048733976906538,0.5962168575249612,-5.096872472634911
1772701742081150500,1.699150390625,1.746757158088684,0.4914372171454131,-5.185895156434178
1772701742091198500,1.709198486328125,1.3790876287788152,0.3512266362920403,-4.6592415183484555
1772701742101247500,1.71924755859375,0.789690242010355,0.3042383098196238,-3.9618110423624513
1772701742111295500,1.72929541015625,0.1426665957033634,0.5914701013892889,-3.5307945377796885
1772701742121343500,1.739343505859375,-0.2497369773685932,0.8974632920522242,-3.2543156839579344
1772701742131392500,1.749392578125,-0.3774164318203926,1.0753379061937332,-3.1043203528016803
1772701742141440500,1.7594404296875,-0.2890501661032438,0.986985742067173,-2.9887808334767816
1772701742151488500,1.769488525390625,-0.06677928780913353,0.5953888822682202,-2.983627103975415
1772701742161537500,1.77953759765625,0.022287819653749465,0.13479060163125395,-3.0874113035768267
1772701742171585500,1.78958544921875,-0.06482581565380097,-0.20795885982513426,-3.1546547017663715
1772701742181634300,1.79963427734375,-0.4402624718338251,-0.30041246792115267,-3.015739567551017
1772701742191682600,1.8096826171875,-1.166600477874279,-0.32689810459092256,-2.645369547110796
1772701742201731300,1.8197314453125,-2.244703757128119,-0.194547151196748,-2.3092308820962906
1772701742211780000,1.829780029296875,-3.2157559439390897,-0.073153937407583,-1.9159622166275978
1772701742221828000,1.839828125,-4.238831747975945,0.011462620387226343,-1.0078916789084673
1772701742231876000,1.8498759765625,-5.156173387387395,0.14648966112285852,0.4514969825536012
1772701742241925000,1.859925048828125,-6.625882951855659,0.5475731650609523,2.5176000762879847
1772701742251973000,1.86997314453125,-8.379370294982195,1.2540642417937515,4.950871764072776
1772701742262021000,1.880021240234375,-10.21691305488944,2.103150091102719,7.175637479543686
1772701742272070100,1.890070068359375,-12.171724934393167,2.643975462403893,9.169530492591857
1772701742282118100,1.9001181640625,-14.247608832907677,2.7025159141778943,10.62419271005392
1772701742292167200,1.910167236328125,-16.373554693186282,2.863971966025233,11.222567768526076
1772701742302215200,1.920215087890625,-17.53271303836107,3.0936788395389914,11.890947506594657
1772701742312263200,1.93026318359375,-17.42304971759319,3.1267277071818707,12.523088056546449
1772701742322312200,1.940312255859375,-16.941335875952245,3.1829020143464204,13.027915062749384
1772701742332360200,1.950360107421875,-16.502404360461234,2.8889100079268215,13.560676370060444
1772701742342408200,1.960408203125,-15.883869142013788,2.8431945509344336,13.739808948373794
1772701742352457000,1.97045703125,-14.903097525221108,2.3720002036117016,13.182782968378067
1772701742362505200,1.980505126953125,-12.833771962308884,1.3886284873232244,12.012572483313082
1772701742372553200,1.99055322265625,-9.752854696926473,0.5026284001801162,10.364474436897039
1772701742382602200,2.000602294921875,-5.918766948157549,-0.3282240924976766,8.439311261203885
1772701742392650200,2.010650146484375,-1.8663702104628086,-1.038277245626226,6.639429831171036
1772701742402699300,2.02069921875,1.9788298839509486,-1.3804067485533653,4.994788647210598
1772701742412747300,2.030747314453125,6.040024260607361,-1.7512163294546306,3.576525192341208
1772701742422795000,2.040794921875,9.563646130278705,-1.8148881527677176,1.8661656278014183
1772701742432844300,2.05084423828125,12.110071903556584,-1.5515817919909953,0.2546948920369148
1772701742442892000,2.06089208984375,13.944627756607531,-1.2424950922921298,-1.2968886535197495
1772701742452940300,2.070940185546875,15.22424904898405,-0.9756934367455542,-2.7003075904786584
1772701742462989000,2.080989013671875,15.971227107471227,-0.7873395872309803,-3.9930692271962758
1772701742473037300,2.091037353515625,16.208014586895704,-0.6441271942131221,-4.431956319023668
1772701742483085000,2.1010849609375,16.429514480817318,-0.5935637126676738,-4.680767413718998
1772701742493134300,2.11113427734375,16.47919650335312,-0.576073356423527,-4.7922915599226945
1772701742503182000,2.12118212890625,16.136306610512733,-0.3573089884130284,-4.699646301712096
1772701742513231400,2.1312314453125,15.563454115831851,-0.019813040737784466,-4.517672362492978
1772701742523279000,2.141279052734375,14.87090322858095,0.46500692739207294,-4.398475197443366
1772701742533327000,2.1513271484375,14.036508752447366,0.6807748900655657,-4.076472317548096
1772701742543376100,2.161376220703125,13.049831126481294,0.5268268026955425,-3.7349700796738263
1772701742553424100,2.171424072265625,11.987656653243302,0.33335166464447974,-3.633333413495123
1772701742563472400,2.181472412109375,10.92412375113368,0.18469403009908272,-3.565342996330559
1772701742573521200,2.191521240234375,9.822739549535513,0.12676330772126093,-3.5181790940955278
1772701742583569200,2.201569091796875,8.815046608069538,0.1698037550844252,-3.5511195329278706
1772701742593617200,2.2116171875,8.134023661527037,0.2747106751054525,-3.678599373154342
1772701742603666200,2.221666259765625,7.797318594801426,0.4343991692909971,-3.872951732431352
1772701742613714200,2.231714111328125,7.803640783560276,0.4681222464010119,-4.163837005007267
1772701742623763200,2.24176318359375,7.841820584350824,0.40913985954578963,-4.499468889543414
1772701742633811200,2.251811279296875,8.000157627394795,0.35419776105731726,-4.7932077979847785
1772701742643859200,2.261859130859375,8.144325859832763,0.3817335643671453,-4.92111667727828
1772701742653908200,2.271908203125,8.89014598045647,0.24319102632384745,-5.238240260699391
1772701742663956200,2.281956298828125,9.401370578742027,0.24896880600769072,-5.340305965945125
1772701742674004000,2.29200390625,9.457719073429702,0.2760566463543102,-5.1165334509164095
1772701742684053200,2.30205322265625,9.01284355484247,0.3264022838979959,-4.7065287547022105
1772701742694101000,2.31210107421875,8.263063298416137,0.3794153505526483,-4.156529312342405
1772701742704149200,2.322149169921875,7.367678054746985,0.18177019680794326,-3.7495939405709504
1772701742714198000,2.332197998046875,6.131202661135792,-0.1103064592433162,-2.843797193002701
1772701742724246300,2.342246337890625,4.310246878892183,-0.1555458414228633,-1.1790081240266561
1772701742734295000,2.352294921875,1.920232733553648,-0.14980465828920714,1.1502899790644645
1772701742744343300,2.36234326171875,-2.3262901534467932,-0.23110413655843584,5.2517713579237455
1772701742754391300,2.372391357421875,-8.336562834390998,0.409934334391728,13.01459030175209
1772701742764440000,2.382440185546875,-18.052298053234814,3.313972280280292,23.78391512084007
1772701742774488300,2.39248828125,-33.817280119061465,8.247087146127223,31.760871320867537
1772701742784536000,2.4025361328125,-37.39138597530126,7.132923542454838,28.11653399053812
1772701742794585300,2.41258544921875,-38.08030113639831,3.2219477843165394,23.39271566286087
1772701742804633000,2.422633056640625,-30.258486398243903,0.20574664540207013,14.900965189367533
1772701742814681000,2.43268115234375,-18.305694137632845,4.086388731406629,7.359603469362854
1772701742824730000,2.442730224609375,-13.186923721444606,2.5726944792613384,0.6599269670218229
1772701742834778000,2.452778076171875,-10.23179615124464,-1.3818312283985317,-2.2755676819473503
1772701742844827100,2.4628271484375,-7.145587793716788,-2.7099866884499786,-3.1789187899291513
1772701742854875100,2.472875244140625,-3.7364632408410308,-3.6296404041960835,-4.63241371717751
1772701742864923100,2.482923095703125,-1.3944804282218217,-4.305095487478376,-6.753617351365089
1772701742874972200,2.49297216796875,0.12102408821582794,-4.482835734650492,-8.037920079556107
1772701742885020200,2.503020263671875,2.307538106703758,-3.81965385748595,-8.694326471236348
1772701742895068200,2.513068115234375,4.573664006567001,-2.757817822422087,-9.363839597249031
1772701742905117200,2.5231171875,6.581902355831861,-1.360645817028731,-8.091632380521297
1772701742915165200,2.533165283203125,8.53329712036848,0.16587295497413723,-6.446559234884381
1772701742925213200,2.543213134765625,9.394797630092501,1.401480516242236,-5.571323045274615
1772701742935262200,2.55326220703125,8.643093127605319,2.3677805400900542,-5.036410697409511
1772701742945310200,2.563310302734375,8.774525212588905,2.450412353808433,-5.298669887220859
1772701742955359200,2.573359130859375,8.449975278559327,1.762171292580664,-4.907286304846406
1772701742965407200,2.5834072265625,7.878511023366451,1.0445299493454396,-4.48713021697402
1772701742975455000,2.593455078125,7.777330284261703,0.8076113178219646,-4.67616751870811
1772701742985504300,2.603504150390625,7.899159843641519,0.7098802077144384,-4.516209596464037
1772701742995552000,2.613552001953125,8.14289378120303,0.08675868439003824,-3.8256969370424745
1772701743005600300,2.623600341796875,7.578155619394779,-0.09132811119742691,-2.477844404482841
1772701743015649000,2.63364892578125,6.0713248232781885,0.28763277358599004,-0.7812000615626573
1772701743025697300,2.643697265625,4.889314594826102,0.4241846858013421,0.847106073668599
1772701743035746000,2.65374609375,3.4814205582797526,0.2519444973502308,2.6810774048298596
1772701743045794300,2.663794189453125,1.972307204183936,-0.04387519942056387,5.20545618147254
1772701743055842000,2.673842041015625,-0.325113413131237,-0.07443669809396378,7.28333271510899
1772701743065891300,2.683891357421875,-3.1908079651653765,-0.10272072595520876,7.594290177115798
1772701743075939000,2.69393896484375,-4.62903751874268,0.051641385575802994,5.766458079361915
1772701743085987000,2.703987060546875,-5.247168248042464,0.23658916210709138,2.960571807080507
1772701743096036000,2.7140361328125,-5.481322456353903,0.12909765068665147,0.7324947751045227
1772701743106084000,2.724083984375,-4.370664814975857,-0.07450261207018047,-1.0698246957302093
1772701743116132400,2.73413232421875,-2.923557542937994,0.00563307398352772,-2.2978467337727544
1772701743126181000,2.74418115234375,-2.7680145145267248,0.1702737106837332,-2.7124334970802066
1772701743136229400,2.7542294921875,-2.469340780031681,0.37020905772484836,-2.5478087520688772
1772701743146278100,2.764278076171875,-1.60239427986145,0.4399075939815491,-2.1496856323063374
1772701743156326100,2.774326171875,-0.421135162037611,0.1796053834568709,-2.0468109487652777
1772701743166374100,2.7843740234375,0.5450841977894306,-0.09112816817853599,-2.3550316792845725
1772701743176423200,2.794423095703125,0.8872557132273912,-0.11939871550370007,-2.6107296108841895
1772701743186471200,2.80447119140625,1.404226161688566,0.11642609290108084,-3.0896517759799957
1772701743196519200,2.814519287109375,1.3050854039788244,0.28277280286680906,-3.4109254648178813
1772701743206567700,2.824567626953125,1.6333412067890167,0.38546460412163286,-3.6689597304105757
1772701743216615700,2.83461572265625,2.303797166609764,0.2565222901271656,-4.004230380418896
1772701743226664700,2.844664794921875,2.444319736021757,-0.06036076253633946,-4.664505137965083
1772701743236712700,2.854712646484375,2.56999661847949,-0.4382224539062008,-5.37034103872478
1772701743246761000,2.864760986328125,2.8318612560153005,-0.4686988041799515,-5.904281326687336
1772701743256809700,2.874809814453125,3.1787188834428783,-0.04601860465742647,-6.613498686578869
1772701743266858000,2.88485791015625,3.3715631762444973,0.26329386662133036,-6.997386944761872
1772701743276905700,2.89490576171875,3.6195080094993113,-0.08411496494822204,-6.513958115896582
1772701743286954800,2.904954833984375,3.778011641281843,-0.297838233518973,-5.79449817893207
1772701743297002800,2.915002685546875,3.2394980540543794,-0.1536656902320683,-4.809592823335528
1772701743307050800,2.92505078125,1.9348177237451076,0.23565957137309013,-3.4541818382203577
1772701743317099800,2.935099853515625,0.3754080146074295,0.5822968340482563,-1.7589222276568413
1772701743327147800,2.945147705078125,-1.666701624599099,0.8868602841690182,0.5517027391463518
1772701743337196800,2.95519677734375,-3.8886335779488084,1.2543401361256836,3.748684424510598
1772701743347244800,2.965244873046875,-6.437899543088674,1.6479843569085002,7.5902598986864085
1772701743357292800,2.975292724609375,-9.619420039948821,2.3353610563918945,11.250655214369296
1772701743367341800,2.985341796875,-13.996643190526962,2.6347546295940876,13.30316408251524
1772701743377389600,2.9953896484375,-18.66111384170055,2.422048282980919,14.834447767364978
1772701743387437800,3.005437744140625,-22.387553116655347,2.219848132812977,16.104761133170125
1772701743397486600,3.015486572265625,-24.77854458259344,1.4583204477086662,15.618146660006046
1772701743407534800,3.025534912109375,-25.833319008708,1.090669476968795,14.457440500867365
1772701743417583600,3.03558349609375,-23.91000818288326,0.8857241197459399,14.178734618645906
1772701743427631900,3.0456318359375,-20.966295156145094,0.44005964273810383,14.47421861718893
1772701743437679900,3.055679931640625,-18.357875575768947,0.24948154130280017,13.964089997446536
1772701743447729000,3.06572900390625,-15.526750817334651,0.09238003140315412,12.861762377518415
1772701743457777000,3.07577685546875,-11.910413254565,0.24020189097784458,11.477933691692352
1772701743467824600,3.08582470703125,-8.120193289095162,0.6152707367587834,9.578549684900045
1772701743477874000,3.0958740234375,-4.811870705139636,0.6059905019119382,6.989964101284742
1772701743487921700,3.105921630859375,-2.0825883645892143,0.21216939019225536,4.0983015797793865
1772701743497971000,3.115970947265625,0.45797582317888735,-0.11748941128365695,1.7538076611220836
1772701743508018700,3.126018798828125,3.0697955673873425,-0.2600665751378983,-0.03594634265005588
1772701743518067000,3.13606689453125,5.996084581115841,-0.37767004125528036,-1.3988561590880155
1772701743528115700,3.14611572265625,9.075895346561074,-0.5013664904855192,-2.6242338201016184
1772701743538164000,3.1561640625,11.638162832093238,-0.43894057558029886,-3.5314199762016534
1772701743548211700,3.166211669921875,13.529911813962459,-0.282752673394233,-4.237788376402855
1772701743558260700,3.1762607421875,14.508969612574576,-0.15842925137206912,-4.863036244231462
1772701743568308700,3.186308837890625,15.00397431294322,-0.21703465814106165,-5.422967298018932
1772701743578357800,3.196357666015625,15.329430255901812,-0.34734168461747467,-5.538148505425453
1772701743588405800,3.20640576171875,15.59225000220537,-0.42931518055759366,-5.7473208326935765
1772701743598453800,3.216453857421875,15.856896963936089,-0.7698395863756538,-5.897350650641322
1772701743608502800,3.226502685546875,15.795061562269925,-1.040453347556293,-6.063316288867592
1772701743618550800,3.23655078125,15.925835475605725,-1.025218076762557,-6.357718921914696
1772701743628598800,3.246598876953125,15.778824713218212,-1.0434967338401824,-6.079729079008102
1772701743638647800,3.256647705078125,15.50847632497549,-1.4782006216987966,-5.936159981507062
1772701743648695800,3.26669580078125,14.034868584024906,-1.5148175570867954,-5.602928143849969
1772701743658744800,3.276744873046875,12.648079879349469,-1.2121169782284646,-5.2362189840048545
1772701743668792800,3.286792724609375,11.499802993673086,-0.9611796120941638,-5.01427309988141
1772701743678840800,3.2968408203125,10.54640336793065,-0.5750655676204711,-4.806777765914798
1772701743688889900,3.306889892578125,9.671534842589496,-0.20196926402151583,-4.678324404481053
1772701743698937900,3.316937744140625,8.916582151961325,-0.018611688424274325,-4.5795530646055935
1772701743708985900,3.32698583984375,8.254948965543509,-0.08054539936576038,-4.518782661822438
1772701743719034600,3.33703466796875,7.6632818802773945,-0.2737365328436717,-4.551053530830145
1772701743729083000,3.347082763671875,7.193677578625082,-0.33727201642598953,-4.657976028457283
1772701743739131600,3.357131591796875,6.799028856974839,-0.287852480751276,-4.890803956601023
1772701743749180000,3.367179931640625,6.452869148683548,-0.2572011027041822,-5.104122882154583
1772701743759227600,3.3772275390625,6.2798074147164815,-0.17801946597229687,-5.152759779551625
1772701743769277000,3.38727685546875,6.013066111055016,0.05352057778537273,-5.039629074934124
1772701743779324700,3.39732470703125,5.665866538321971,0.26460209967568515,-4.767866728240251
1772701743789372700,3.40737255859375,5.380818593597412,0.30845249344855546,-4.2933290618389846
1772701743799421700,3.417421630859375,4.797935118767619,0.18977241107560694,-3.512410155305266
1772701743809469700,3.4274697265625,3.874901989716291,0.1024359267976135,-2.329256017515063
1772701743819518700,3.437518798828125,2.7721161046266554,0.20276910916231572,-1.1680541838139296
1772701743829566700,3.447566650390625,1.534853360030055,0.32953751318380237,0.17820143494307994
1772701743839615000,3.457614990234375,-0.22290040836930275,0.6124621821440756,1.8782634773522615
1772701743849663700,3.467663818359375,-2.514234983769059,1.220561346773058,3.865165608599782
1772701743859712000,3.4777119140625,-5.719970468953251,1.9987769856974482,6.870201995828747
1772701743869760800,3.4877607421875,-11.022471897161006,3.501133559009433,10.953002639615535
1772701743879809000,3.49780908203125,-17.49377452815771,4.735039978915452,16.132032586455345
1772701743889856800,3.507856689453125,-22.871226275670526,3.984257559709251,19.35762311118841
1772701743899905800,3.51790576171875,-28.441927974176405,2.189729473403096,18.973837728857994
1772701743909953800,3.527953857421875,-25.67242585144043,-0.21430519664455203,16.867267600178717
1772701743920001800,3.538001708984375,-18.321420114552975,-1.7857137884706258,12.411653634452819
1772701743930050800,3.54805078125,-13.595635455238819,-1.4441174425721168,7.984788208827376
1772701743940098800,3.558098876953125,-11.266611492913961,-1.0874915775850416,4.668728308618069
1772701743950147800,3.56814794921875,-9.260953223270178,-0.948112552184984,3.103129681712389
1772701743960195800,3.57819580078125,-7.094527468565106,-1.0006478452600538,2.594603820991516
1772701743970243600,3.58824365234375,-5.247449403071403,-1.2281000717148185,1.8598767567902803
1772701743980292900,3.59829296875,-3.265584681469202,-1.1232238390929996,0.7873240974009037
1772701743990340600,3.608340576171875,-1.1034726983100176,-0.8503618605941533,-0.5799789855599403
1772701744000388900,3.618388916015625,0.9937228683024645,-0.819750156970322,-2.111815043595433
1772701744010437600,3.628437744140625,2.9072458750844,-0.9452033136747777,-3.629603287056088
1772701744020486000,3.63848583984375,4.254709116065502,-0.9885536489710212,-4.787856792345643
1772701744030534700,3.64853466796875,5.40152469701767,-0.7467348973810672,-5.5218911981076
1772701744040583000,3.6585830078125,6.308472952708602,-0.31461353682894255,-5.969385374760628
1772701744050631000,3.668630859375,6.713139795026183,0.014082429230492561,-6.060256316775083
1772701744060679700,3.6786796875,6.813772837120294,0.2448153213237412,-5.998934709849953
1772701744070728000,3.68872802734375,6.710009095785021,0.5353505931518971,-5.849489413791894
1772701744080775700,3.698775634765625,6.582126812237501,0.7732515137109905,-5.606355195689201
1772701744090825000,3.708824951171875,6.569675326943397,0.9476376281496137,-5.285795792600513
1772701744100872700,3.718872802734375,6.583777502053976,1.0407529150247574,-4.861259297686815
1772701744110922000,3.728921875,6.522662815877795,0.8150137760981917,-4.515020678940415
1772701744120969700,3.7389697265625,6.25521190264225,0.7356910138625651,-4.457452871590853
1772701744131017700,3.749017822265625,5.668005888438224,0.7944874131590127,-4.060404103061557
1772701744141066800,3.759066650390625,5.031126619526743,0.7759094808738678,-3.505565403977036
1772701744151114800,3.76911474609375,4.326116648197174,0.7270734076429158,-2.933947419527173
1772701744161162800,3.779162841796875,3.4242782828658815,0.6308092282827943,-2.0198112981587646
1772701744171211800,3.789211669921875,2.458238371258974,0.45709626386538144,-0.9566887304157018
1772701744181259800,3.799259765625,1.3601421052902936,0.30475992254093287,0.16937749249637127
1772701744191308800,3.809308837890625,0.16064765807390213,0.2838684526164085,1.1693676045000552
1772701744201356800,3.819356689453125,-1.0478221227586269,0.3600986191315576,1.7905197274476288
1772701744211404300,3.829404296875,-2.201481285995245,0.6272867532450705,1.83158472828567
1772701744221453300,3.839453369140625,-3.2114801663160324,0.9181000565633177,1.360943484801054
1772701744231501300,3.849501220703125,-3.5912802784025666,1.0043917810287326,0.632294863730669
1772701744241549600,3.859549560546875,-3.587808802899718,1.2240038884423672,-0.051257893550395964
1772701744251598300,3.869598388671875,-3.5636131037980316,1.55817519890666,-0.33815760362148284
1772701744261646600,3.879646484375,-3.5726433824718,1.477971635248512,-0.3244078952103853
1772701744271695400,3.8896953125,-3.46911637250185,1.2806842454329133,-0.2560866386562586
1772701744281743600,3.89974365234375,-2.9382956778645513,1.0885928898904471,-0.1327986971616745
1772701744291791400,3.909791259765625,-2.455606853711605,0.936422698913142,-0.3901782982379198
1772701744301840400,3.91984033203125,-2.4455554152965546,0.8387843816556037,-0.8668991538971662
1772701744311888400,3.929888427734375,-2.1908289590775967,0.7836293345361948,-1.5126041188210249
1772701744321936400,3.939936279296875,-1.280000062561035,0.6305357451036572,-2.084680952954292
1772701744331985400,3.9499853515625,-0.5141314256429672,0.47564065920710563,-2.4244559286445377
1772701744342033400,3.960033447265625,0.07531096931099891,0.42814715969152745,-2.7559219256728884
1772701744352082400,3.97008251953125,0.6142682086527347,0.38241858748923985,-3.0572318538904186
1772701744362130400,3.98013037109375,0.8453653674811125,0.24947825336717067,-3.1699130611747504
1772701744372178400,3.990178466796875,0.9263193111151456,-0.06485193647574633,-2.884432570251822
1772701744382227500,4.0002275390625,0.8920072916686534,-0.29861042346786704,-2.4548563276052473
1772701744392275500,4.010275390625,0.792547385007143,-0.4607302364535629,-1.7946499591201543
1772701744402324500,4.020324462890625,0.4457067087143659,-0.5877343489270657,-1.373959033718705
1772701744412372200,4.030372314453125,-0.12746201230883597,-0.5080851312160491,-1.2139017427533865
1772701744422420500,4.04042041015625,-1.1151847634136676,-0.277415148291178,-0.8501333125352859
1772701744432469200,4.05046923828125,-2.3336785101324318,0.05748422071933746,-0.4430938958674669
1772701744442517500,4.060517578125,-3.5308874767601486,0.17202449987381696,0.02518587918281555
1772701744452565500,4.0705654296875,-4.968603235596418,0.07800985300615429,1.0790823534190654
1772701744462614300,4.0806142578125,-6.432773286116123,0.1258817573800683,2.6999603844761846
1772701744472662500,4.09066259765625,-7.53546214057207,0.17179076418317854,4.192824614560604
1772701744482711300,4.100711181640625,-8.92472337284088,0.3117879214815795,5.302811224809289
1772701744492759600,4.110759521484375,-10.901136843299865,0.5961965453892946,6.341368675616383
1772701744502807300,4.120807373046875,-13.432601778811216,0.4690363655712455,7.2595157861918205
1772701744512856600,4.130856689453125,-15.670779349040984,0.10271357469521462,8.166829368063807
1772701744522904300,4.140904296875,-16.844868721365927,-0.07871274057850242,8.924716358578205
1772701744532952300,4.150952392578125,-17.242680290961264,-0.3220336403597146,9.579319500228761
1772701744543001300,4.16100146484375,-17.464987994134425,-0.9052765961516648,10.550463456976413
1772701744553049300,4.17104931640625,-17.520732677710054,-1.2864628288343547,11.402307080560922
1772701744563098400,4.181098388671875,-16.710725623857975,-1.2963970706105232,11.632400615304707
1772701744573146400,4.191146484375,-15.025560706329346,-1.4029931127622723,10.619093341088295
1772701744583194400,4.2011943359375,-12.353178064608572,-1.4550298817306757,8.745359323859214
1772701744593243400,4.211243408203125,-9.065189828151464,-1.2841535289786756,6.6471408439397806
1772701744603291400,4.22129150390625,-5.152271119251847,-0.9224240572422743,4.703971763695776
1772701744613339400,4.23133935546875,-0.849029150685668,-0.6653988225616514,3.059553282575309
1772701744623388400,4.241388427734375,3.1928795107424257,-0.5881857459563762,1.7491992905437945
1772701744633436400,4.2514365234375,6.955545114332437,-0.4690921143464744,0.5878937042072415
1772701744643485200,4.261485107421875,10.418628051888943,-0.19463152327826244,-0.6830573749795555
1772701744653533400,4.271533447265625,13.061417519378661,0.18908746101874857,-1.971309425318241
1772701744663581400,4.28158154296875,15.007662646067141,0.4262869187775999,-3.0290900475114584
1772701744673630500,4.29163037109375,16.48290704830885,0.6448075776927172,-3.851590087711811
1772701744683678500,4.301678466796875,17.09988626948595,0.9224595669470727,-4.3316599615380165
1772701744693726200,4.311726318359375,17.23265457150936,1.068030359659344,-4.654314875601232
1772701744703775500,4.321775390625,17.046615282547474,1.2417976115472613,-4.417793061375618
1772701744713823200,4.3318232421875,17.37082853196859,0.9921852104064076,-4.473712516996264
1772701744723872500,4.34187255859375,17.376542817962168,1.0793715456239878,-4.421311883151531
1772701744733920300,4.351920166015625,17.44084957817793,1.1238286731183529,-4.612498764134943
1772701744743968500,4.361968505859375,17.260323499679565,1.2554815612457693,-4.98329519329369
1772701744754017300,4.372017333984375,16.417115602493286,1.5006144058197737,-4.826439913240075
1772701744764065500,4.3820654296875,15.18314313161373,1.3426520413070917,-4.25624231698215
1772701744774114300,4.3921142578125,13.580213429701327,1.2327112187720835,-3.726705232414603
1772701744784162600,4.40216259765625,11.960250759923458,1.1674077026039362,-3.381381098164618
1772701744794210600,4.41221044921875,10.542041665589808,1.0224068917993456,-3.1716859160661697
1772701744804259300,4.42225927734375,9.427709135091304,0.9467042197570205,-3.1111250643804667
1772701744814307300,4.432307373046875,8.72570828244984,0.9065906744249165,-3.2371140815272925
1772701744824355300,4.442355224609375,8.253610410416126,0.8612160667594522,-3.453737893845141
1772701744834404400,4.452404296875,7.890997579973936,0.7032962262142449,-3.4310993610575795
1772701744844452400,4.462452392578125,7.5625424551993605,0.6159769853319972,-3.2803301229193806
1772701744854501400,4.47250146484375,7.057805465367436,0.7359457192759961,-3.17092077691257
1772701744864549400,4.48254931640625,6.371710037866235,0.7743282760970294,-2.8458745837986466
1772701744874597400,4.492597412109375,5.718312180352211,0.6866945624381303,-2.7247692470401526
1772701744884646400,4.502646484375,5.13902409966588,0.6415016680151224,-2.744652343639731
1772701744894694400,4.5126943359375,4.430391846185922,0.5992654679732397,-2.532090373933315
1772701744904742400,4.522742431640625,3.620205928635597,0.3593055325251072,-2.1447464223384856
1772701744914791400,4.53279150390625,2.58473007723093,0.2450666474699974,-1.3740689238339663
1772701744924839400,4.54283935546875,0.889979000711441,0.40554033721648153,0.10569091000556945
1772701744934888400,4.552888427734375,-1.4407885904103517,0.5108963892444968,2.0135709424644705
1772701744944936400,4.5629365234375,-4.424273071044683,0.5114188056834041,4.775839022293686
1772701744954984400,4.572984375,-8.345551027488709,1.0250959116876124,7.98571350697875
1772701744965033500,4.583033447265625,-13.71762283552885,1.6086102317668496,12.16276888999939
1772701744975081500,4.59308154296875,-22.35558678355217,2.659414439076185,18.462929356914756
1772701744985130200,4.603130126953125,-31.427375863838193,2.8604636656433344,21.418058096158504
1772701744995178500,4.613178466796875,-31.47147219519615,1.040770889072865,18.986644603461027
1772701745005226500,4.6232265625,-26.254520806241032,-3.545262623593211,14.816161584568023
1772701745015275500,4.633275634765625,-19.1725260715127,-4.246906917881965,9.321848713737726
1772701745025323300,4.6433232421875,-13.813776686382292,-0.8116651232574135,3.4022844777226444
1772701745035371300,4.653371337890625,-9.660583824986219,-1.4279650569334625,1.2684563397616146
1772701745045420300,4.663420166015625,-7.538224591022729,-2.1783155144631863,1.218503683590889
1772701745055468300,4.67346826171875,-5.699954101362824,-2.107370631407201,0.8504097913891077
1772701745065517300,4.683517333984375,-3.442566219228506,-1.4553744573846459,-0.164713592338562
1772701745075565300,4.6935654296875,-1.1131652402848005,-0.8197253147900104,-1.0279705903410912
1772701745085613600,4.703613525390625,0.871011849913001,-0.3375591628042981,-1.8432979624330996
1772701745095662300,4.713662353515625,2.635088976114988,0.001684738216549158,-3.0340894632339475
1772701745105710600,4.723710693359375,3.902050693404674,0.43936033536233005,-3.723754565915465
1772701745115758300,4.73375830078125,5.388601502558589,0.4146116785530001,-4.362867292967438
1772701745125807600,4.7438076171875,6.867912423586845,0.174117453565076,-4.851115504813194
1772701745135855400,4.75385546875,7.634187887740135,-0.06064896836057305,-5.184410470834374
1772701745145904400,4.763904296875,8.02971105413735,-0.07858600892629473,-5.410478403323888
1772701745155952400,4.773952392578125,8.163724387785791,0.181044037957862,-5.6298284257352345
1772701745166000400,4.78400048828125,8.10130797136128,0.5086186170382425,-5.735162777388095
1772701745176049400,4.79404931640625,8.17577489106357,0.6374078958954662,-5.4786091057419775
1772701745186097400,4.804097412109375,8.123903834050893,0.6872529269732535,-5.028014624986052
1772701745196146400,4.814146484375,7.891669195625186,0.5383366597579792,-4.662246545383334
1772701745206196200,4.8241962890625,7.578696302142739,0.24367457205709067,-4.353620156672597
1772701745216244200,4.834244140625,7.337468209922314,-0.01595039679314941,-4.0613481059134005
1772701745226293200,4.844293212890625,7.002246075230836,-0.01938895640708506,-3.4748090311855075
1772701745236341200,4.85434130859375,6.357479852461815,0.21427823557239026,-2.6385727265775203
1772701745246389500,4.864389404296875,5.251916319352388,0.6413580948259681,-1.4936948356896638
1772701745256438300,4.874438232421875,4.083828817790747,0.9016908466193825,-0.104386257147789
1772701745266486300,4.884486328125,2.1459897003978488,1.0418166717987507,1.6477566856324672
1772701745276535300,4.894535400390625,-0.8280126661419868,1.0569358419321477,2.9535844324111937
1772701745286583300,4.904583251953125,-3.134536042845249,0.840322258747369,3.5758582528650757
1772701745296631300,4.91463134765625,-5.059237446245551,1.0901325205478816,3.923037951853871
1772701745306680300,4.924680419921875,-7.180437573301791,1.7527884010769426,2.748276963877678
1772701745316728300,4.934728271484375,-7.771099865439534,1.0676103076163679,1.266046356010437
1772701745326776300,4.9447763671875,-6.000986966204643,0.6988214188877493,1.8031752108812331
1772701745336825300,4.954825439453125,-6.32904578513801,0.8819785034768283,0.9688684130311012
1772701745346873300,4.964873291015625,-5.9592468425840135,0.9621996027916669,0.23156068468689917
1772701745356922400,4.97492236328125,-4.604298798805475,0.650028234950453,-0.1422568458586931
1772701745366970400,4.984970458984375,-3.6548680766940116,0.5885900889735669,-0.3508352988868952
1772701745377018000,4.99501806640625,-2.3384651598870754,1.0082448762603105,-0.44386195763051506
1772701745387067400,5.0050673828125,-1.5315852981448173,1.3080167812556027,-0.6421399659186601
1772701745397115100,5.015115234375,-1.5030693977564573,1.297145258629322,-0.9932289473056792
1772701745407164400,5.025164306640625,-1.2252625102013348,1.03603903824538,-1.3457891702890394
1772701745417212200,5.035212158203125,-0.6295967106878757,0.6765243930142373,-1.6359622029423713
1772701745427260400,5.045260498046875,-0.21145254715979098,0.3232560217615217,-1.987645058569312
1772701745437309200,5.05530908203125,0.28637247132658955,0.0006165609957650304,-2.4703169315874574
1772701745447357200,5.065357177734375,0.733443454131484,-0.17692443727720528,-2.998758037611842
1772701745457405400,5.075405517578125,1.0689619414210318,-0.13929437932390717,-3.3501153145462275
1772701745467454200,5.0854541015625,1.352996325188875,-0.12914536228589713,-3.2611236104071137
1772701745477502500,5.09550244140625,1.5986860729932784,-0.08506740683484822,-2.985992079541087
1772701745487551200,5.10555126953125,2.0502613814800976,-0.07351550072897226,-2.892385575082898
1772701745497599500,5.115599609375,2.799103480273485,0.1431540138941258,-2.9773680435806513
1772701745507647200,5.125647216796875,3.7953345320045946,0.36126240221392364,-3.1162633040517567
1772701745517696300,5.1356962890625,4.6691818976044654,0.5396092004444449,-3.0264860024929043
1772701745527744300,5.145744140625,5.104488792857527,0.61521893350631,-2.8137913463175295
1772701745537792300,5.155792236328125,5.276984125113487,0.4858977031968534,-2.711677710276842
1772701745547841300,5.16584130859375,4.979990306529403,0.471697145745717,-2.6705127561956643
1772701745557889300,5.17588916015625,4.7966135147750375,0.2864261377425864,-2.1867875747323033
1772701745567938300,5.185938232421875,4.588405648624897,-0.27841734760366377,-1.7017682618051766
1772701745577986300,5.195986328125,3.9480689327359197,-0.6622941345445811,-0.8346732930749654
1772701745588034300,5.206034423828125,2.191218250656128,-0.4903169809438288,0.7718506339371204
1772701745598083300,5.216083251953125,-1.0301812521278857,-0.3128690677817911,3.0588240915179252
1772701745608131000,5.226131103515625,-6.210492470949887,-0.522388747182861,5.9885407416075465
1772701745618180400,5.236180419921875,-13.382234696620701,-0.3119633511137217,9.292298794126511
1772701745628228000,5.24622802734375,-22.891930041003224,1.426034819523245,13.73019122520089
1772701745638276400,5.2562763671875,-30.81284695842266,3.3736475813031195,17.091712315380573
1772701745648325000,5.2663251953125,-32.51970699040889,2.98152867039144,16.466446911895275
1772701745658373400,5.276373291015625,-28.640623331093785,1.2055666798021643,13.993115016400813
1772701745668422100,5.286422119140625,-23.531885648620126,-0.10813633039630949,11.74304710189104
1772701745678470400,5.296470458984375,-18.81488752235174,-0.7944719963941723,9.982284799325466
1772701745688518400,5.306518310546875,-14.700321036469935,-0.8575709882553666,8.693063319432735
1772701745698567400,5.3165673828125,-11.094746859776974,-0.3218299344811588,7.8353814912140365
1772701745708615400,5.326615478515625,-7.970489634361862,-0.004432210293784738,6.1049102820158
1772701745718663200,5.3366630859375,-4.864059157538414,0.10418488935679197,4.136374413064122
1772701745728712400,5.34671240234375,-1.6453987243294714,0.16958470550626514,2.3857556111112235
1772701745738760200,5.35676025390625,1.2127823833346367,0.39540202423557635,0.9897440277993679
1772701745748809200,5.366809326171875,3.721797002106905,0.39853075071536004,-0.12401947063952684
1772701745758857200,5.376857177734375,5.891009757182002,0.19333719088509677,-1.298758246783912
1772701745768905500,5.386905517578125,7.988593446329236,-0.053947717156261205,-2.3176363068699835
1772701745778954200,5.396954345703125,10.003875868886709,-0.44983146049417555,-3.19654621655643
1772701745789002200,5.407002197265625,11.694459304332732,-1.0831670654494314,-3.836996037431061
1772701745799051300,5.41705126953125,13.039745785796642,-1.687580454237759,-4.638516710227727
1772701745809099300,5.427099365234375,13.961585905671118,-2.0361822949841617,-5.120452670186758
1772701745819147300,5.437147216796875,14.962903466886281,-2.095729585713148,-5.666220758587122
1772701745829196300,5.4471962890625,15.657082832121848,-1.7811697153002022,-5.329444964712858
1772701745839244300,5.457244384765625,16.029812567430735,-1.2062570732191205,-4.56686747829467
1772701745849292300,5.467292236328125,16.346415341848132,-0.7303495067041367,-4.120706888332963
1772701745859341300,5.47734130859375,16.32249670612216,-0.20716076825000346,-3.6584260614365336
1772701745869389300,5.487389404296875,16.387798322594165,0.17898301377482712,-3.2243297110170124
1772701745879438300,5.497438232421875,16.166458587670324,0.3951781523518264,-3.2442630764991045
1772701745889486300,5.507486328125,15.250202989929914,0.4913085492644459,-3.19067966261059
1772701745899534300,5.517534423828125,14.071147519630193,0.5680392857128754,-2.88622705245316
1772701745909583400,5.527583251953125,13.221648997867106,0.3674879621978849,-2.8238980220511554
1772701745919631400,5.53763134765625,12.383908718436956,0.13004066715780646,-2.913487984344363
1772701745929680400,5.547680419921875,11.668396642315386,-0.06107669225335121,-3.0508889146044846
1772701745939728400,5.557728271484375,11.05114620298147,-0.27055180186033245,-3.210808842925727
1772701745949776100,5.567776123046875,10.542380688285826,-0.35102165177185085,-3.4571643611624836
1772701745959825200,5.5778251953125,10.315324329280852,-0.4291209000945091,-3.8040123439788815
1772701745969873200,5.587873046875,10.394819306278228,-0.5066724879391491,-4.063129144111276
1772701745979922200,5.597922119140625,10.329249978780746,-0.5726697585251181,-4.193151654557884
1772701745989970200,5.60797021484375,9.812434428620337,-0.5200248675957322,-3.881519654290378
1772701746000018400,5.618018310546875,8.681027429202198,-0.6933234790585935,-3.544012915793061
1772701746010067200,5.628067138671875,6.768354901769757,-1.3823508683584629,-2.6942843846663833
1772701746020115500,5.638115478515625,4.306454500871896,-2.2449058555714783,-1.5560352642685173
1772701746030163200,5.6481630859375,0.9202858761698007,-2.2833254564672707,-0.13054624205976723
1772701746040212500,5.65821240234375,-3.0897932302772997,-1.5646015786923466,1.7268734769672154
1772701746050260200,5.66826025390625,-8.561055480387806,-0.9840814719930291,4.793290800093114
1772701746060309200,5.678309326171875,-17.263257799565793,0.054510611736029384,9.942520944213866
1772701746070357200,5.688357177734375,-29.189225181615353,4.054624935138225,15.419931780081987
1772701746080405200,5.6984052734375,-37.03937286480665,5.33904573675096,17.948690379244088
1772701746090454300,5.708454345703125,-36.435498624396324,2.606308579571545,18.642627752417326
1772701746100502300,5.718502197265625,-30.047006378555295,3.0860464449644085,18.811590818893908
1772701746110551300,5.72855126953125,-17.452018622446058,4.953206344500184,16.364293528366087
1772701746120599300,5.738599365234375,-12.854354147088527,3.8078058910429475,11.010747557097673
1772701746130647300,5.748647216796875,-9.116710172030329,1.9923349699512123,7.161235444703697
1772701746140696300,5.7586962890625,-4.741486086314916,0.6489779221799225,4.246111968111991
1772701746150744300,5.768744384765625,-1.8449948294788598,-0.8759604122310877,2.354019871893525
1772701746160793300,5.77879345703125,0.5317296261757611,-1.4065329773262143,0.04479191240668297
1772701746170841300,5.78884130859375,2.25505330170691,-1.090834458272159,-2.2155103958696127
1772701746180889300,5.798889404296875,3.360086088940501,-1.002478129427135,-3.654169573035836
1772701746190938000,5.808938232421875,4.11949985063076,-1.1742253467295318,-4.720626838159561
1772701746200986400,5.818986328125,4.788001169252396,-1.0347954679250717,-5.6198407002061606
1772701746211032800,5.82903271484375,5.7621817172169685,-0.9554835924096405,-5.799909682586788
1772701746221081900,5.839081787109375,6.672723028963804,-1.0395794873312114,-5.580874717473983
1772701746231129900,5.8491298828125,7.27984545751512,-1.1406595425404606,-5.394769962060451
1772701746241179000,5.859178955078125,7.659834370172024,-1.239559331101179,-5.285412346240878
1772701746251227000,5.869226806640625,7.682398084157705,-1.3293918699786067,-5.229093662169575
1772701746261275000,5.87927490234375,7.585272173401713,-1.218259353441,-5.111382644024491
1772701746271324000,5.889323974609375,7.532597398790717,-0.9593822072833776,-4.930765380111336
1772701746281372000,5.899371826171875,7.10485246322453,-0.33826939343288537,-4.640156294128299
1772701746291421000,5.9094208984375,6.655539254450797,0.15351824458539484,-4.554525006332994
1772701746301469000,5.919468994140625,5.9218017858088015,0.2694042392604053,-4.531729821678995
1772701746311517000,5.929516845703125,4.989634333187341,0.32647315717712044,-4.073123883903026
1772701746321566000,5.93956591796875,3.8835330399394032,0.2443031157515943,-3.188108058556914
1772701746331614000,5.949614013671875,2.5759061347842214,0.19426402340643106,-2.1547744798779487
1772701746341663000,5.9596630859375,0.9831541280150413,0.5244686221968382,-1.0376064336925745
1772701746351710700,5.969710693359375,-0.8079337547093629,0.9717905840881168,0.07517419118881224
1772701746361759000,5.979759033203125,-2.6801240496277807,1.3201944180443883,0.9690963765680789
1772701746371807700,5.989807861328125,-4.02891532434225,1.8156768189273773,0.9200035520970821
1772701746381856000,5.99985595703125,-4.615947151023149,2.3062181101463732,0.5666413650810718
1772701746391904000,6.009904052734375,-4.567685516679287,2.700235986547172,0.2628419581353664
1772701746401953000,6.019953125,-3.6546868749082084,2.870994412007928,-0.3447907580256462
1772701746412000800,6.030000732421875,-2.4362112483680245,2.594476687480509,-1.01493633672297
1772701746422050000,6.040050048828125,-0.9523901564389466,1.9468688115447759,-1.9164198972672224
1772701746432097800,6.050097900390625,0.2504337274610996,2.2424130158424376,-2.7275422188848255
1772701746442145800,6.060145751953125,0.9318997415959834,1.8673276573181152,-2.4275170697808264
1772701746452194800,6.07019482421875,0.9997826067328452,1.2644354136824607,-1.597995168119669
1772701746462242800,6.080242919921875,0.9961591555386781,1.0257948537372052,-0.644797786951065
1772701746472291800,6.090291748046875,0.8158680548399686,0.904228621468693,-0.47324587302505966
1772701746482339800,6.10033984375,0.9279045344799757,0.8600229845173657,-0.7877642423838377
1772701746492388000,6.11038818359375,1.1190507911920546,1.1017732009157537,-1.2111398768246173
1772701746502436900,6.120436767578125,1.278687226396799,1.3150816050752996,-1.5488164189308882
1772701746512485000,6.130485107421875,1.293588442930579,1.2693335609875618,-1.3443506619185208
1772701746522534000,6.140533935546875,1.0891063193053006,1.3007552658200263,-1.145811372345686
1772701746532582000,6.150581787109375,0.4982534730315208,1.6111702915132045,-1.0795867958098648
1772701746542630000,6.1606298828125,-0.4624409858942032,1.2823635768219828,-1.0008394223093986
1772701746552679000,6.170678955078125,-1.4267588960140942,0.8432445759348571,-0.7682265982210635
1772701746562727000,6.180726806640625,-2.222792369571328,0.7027113389983772,-0.6354477748036385
1772701746572776000,6.19077587890625,-2.4803262844264506,0.4010094888538122,-0.42877837026715276
1772701746582824000,6.200823974609375,-2.7824720789462325,-0.19026983920373022,-0.5997556991755962
1772701746592872000,6.210871826171875,-2.759986690893769,-0.9464813707865775,-1.3594295731067656
1772701746602921000,6.2209208984375,-2.4042437462210655,-1.536626068791002,-1.2624416095167397
1772701746612969000,6.230968994140625,-2.142186800983548,-2.060109698538482,-0.5756511854887009
1772701746623018000,6.24101806640625,-3.8664866280704735,-2.4276276905484497,0.147076228839159
1772701746633066000,6.25106591796875,-6.30161241928935,-2.361413927667588,1.5156781194388866
1772701746643113700,6.26111376953125,-9.75872037408948,-1.88503633248806,3.4619577329188584
1772701746653163000,6.2711630859375,-15.335028806561231,-0.6604112434074282,5.145736164525151
1772701746663210800,6.281210693359375,-18.92373485056162,0.5336851441577076,6.968099475479126
1772701746673259000,6.291259033203125,-19.460624051457643,0.7129122688867151,8.475697164314985
1772701746683307800,6.301307861328125,-18.72660133613348,1.1490078302994369,9.373108360853792
1772701746693355800,6.311355712890625,-17.698880921161173,1.74781835757941,10.174180997622013
1772701746703404800,6.32140478515625,-16.791985856962203,1.3665660008579492,10.874712946754693
1772701746713452800,6.331452880859375,-15.02406082316041,1.3973793645337222,10.914960785990953
1772701746723501000,6.3415009765625,-12.76893211812973,2.611175893346965,10.110809472429752
1772701746733549800,6.3515498046875,-10.357338593667745,2.9353748219817875,8.525255268210172
1772701746743598000,6.36159814453125,-7.990513600736856,2.216512850910425,7.153706218242645
1772701746753646800,6.371646728515625,-5.526241794532537,2.1755032335214315,6.086224286246299
1772701746763695000,6.381695068359375,-3.120013011974096,1.8981337144702672,4.789061784221231
1772701746773742800,6.391742919921875,-0.08992401655316352,1.4932146509572863,3.7231075001835823
1772701746783792000,6.401792236328125,3.083593206593394,1.4759347225934265,2.365946164269745
1772701746793839900,6.41183984375,6.239725579696893,1.3606949168674647,1.1241074900597334
1772701746803889000,6.421888916015625,8.721192266330123,1.0399972012866288,-0.009165303230285644
1772701746813937000,6.43193701171875,11.106972719621657,0.6090577439954504,-1.2290467049151659
1772701746823985000,6.44198486328125,13.05494803110361,0.27905546284411104,-2.0951462328672408
1772701746834034000,6.452033935546875,14.92974470912814,-0.27145295195113867,-3.0618478232532738
1772701746844082000,6.46208203125,16.184346126538514,-0.649919075487554,-3.6720901373907924
1772701746854131000,6.472130859375,16.18535734940767,-0.21642785135433076,-3.3511738836884497
1772701746864179000,6.482178955078125,16.062073499566317,-0.2283203510588035,-2.688553439798951
1772701746874226700,6.492226806640625,16.068884348624945,-0.4503382044399157,-2.29611158054322
1772701746884276000,6.50227587890625,16.001838518834113,-0.3769299634777009,-1.817396043935418
1772701746894323700,6.51232373046875,15.922600731468199,-0.38920671325940637,-1.5534975624844432
1772701746904373000,6.522373046875,15.373627125024795,-0.30833796369079497,-1.7427333094000816
1772701746914420700,6.532420654296875,14.644279415774344,-0.14924823911599813,-1.9112606148079037
1772701746924469000,6.542468994140625,13.791770606279373,-0.03511975563280284,-2.0790978921249508
1772701746934517800,6.552517822265625,12.836381268024445,0.0007924655519425868,-2.0108932476878163
1772701746944566000,6.56256591796875,11.894003387033939,-0.05980893733985722,-1.9931620684251188
1772701746954614800,6.57261474609375,11.155431922364235,-0.013010617014206945,-2.2513336966618893
1772701746964663000,6.5826630859375,10.659335335105657,-0.045426776244118804,-2.6230776358038184
1772701746974711000,6.5927109375,10.24483332747221,-0.258144740229845,-3.0992844044610854
1772701746984759800,6.602759765625,9.714937346464396,-0.41065285792462525,-3.526983747319877
1772701746994808000,6.61280810546875,9.225938023990393,-0.45837530735787,-3.9153132028207183
1772701747004855800,6.622855712890625,9.039078066295385,-0.6805692114256322,-4.297870796921849
1772701747014905000,6.632905029296875,8.871189351052045,-0.8329718959845602,-4.550851578517258
1772701747024952800,6.642952880859375,8.553131701651216,-0.8484715168029069,-4.298371147659421
1772701747035002000,6.653002197265625,8.201386886703968,-0.9086218149263411,-3.8060377123266456
1772701747045049900,6.6630498046875,7.351687873932719,-1.1105649215932936,-3.250951175960898
1772701747055097900,6.673097900390625,6.035072775679827,-1.3284855687886477,-2.0872180702164767
1772701747065147000,6.68314697265625,4.560214157885313,-1.5957517731070519,-0.8782780415236949
1772701747075195000,6.69319482421875,2.9010861834108828,-1.392544199462235,0.8073515709072351
1772701747085244000,6.703243896484375,-1.3221382455885409,-1.0631557393603026,5.666176334923505
1772701747095292000,6.7132919921875,-11.15637300260663,-1.253821080687642,13.076542607796192
1772701747105340000,6.72333984375,-23.479266988110542,0.15721951025612652,17.792073584121464
1772701747115389000,6.733388916015625,-30.399505811262127,3.202406925283372,19.510508318567275
1772701747125437000,6.74343701171875,-30.63314856292009,3.1015713463544845,19.54885996879339
1772701747135486000,6.75348583984375,-29.908402209985255,0.6278297010153532,17.494153298342226
1772701747145533700,6.76353369140625,-23.87571311457157,-0.5088847571611405,12.41618484814167
1772701747155582000,6.77358203125,-17.117292162317035,-0.7307502695247531,7.401790752229094
1772701747165630700,6.783630615234375,-13.997136527001857,-1.2568791530840098,4.870515786331891
1772701747175679000,6.793678955078125,-11.79599309465885,-0.9453425760149955,4.020073261716962
1772701747185727700,6.803727783203125,-9.336998936596512,0.03466083288416266,3.7240462423384186
1772701747195776000,6.81377587890625,-6.452288133925199,0.6775630884122104,3.060284227198362
1772701747205823500,6.823823486328125,-3.6536347355067726,0.6553430002324283,1.5572329496204853
1772701747215872500,6.83387255859375,-0.7243570613563061,0.4927744936311617,0.04058803097605705
1772701747225920500,6.84392041015625,2.061235779958963,0.5677721226766705,-1.2271300576388835
1772701747235969500,6.853969482421875,4.3040678979963065,0.613931450979039,-2.4427672458827496
1772701747246017500,6.864017578125,5.712290435844659,0.5458483870949595,-3.4391724851369854
1772701747256065300,6.874065185546875,6.713956956627965,0.4139084256544709,-4.086120728120208
1772701747266114600,6.884114501953125,7.321153619459271,0.28921050776410845,-4.716869531452655
1772701747276162300,6.894162353515625,7.656231377243995,0.014831731494143604,-5.2599692774266
1772701747286211600,6.904211669921875,7.746926962691545,-0.20991256944248451,-5.580927324444056
1772701747296259300,6.91425927734375,7.756363484078645,-0.25966431447993965,-5.49089400229752
1772701747306307600,6.9243076171875,7.668547253459692,-0.09960921547170729,-5.309249733424187
1772701747316356400,6.9343564453125,7.3900214039802545,0.22588556165993212,-5.247416669845581
1772701747326404600,6.944404541015625,7.119499997258186,0.3769446495901793,-5.444811465558409
1772701747336453400,6.954453369140625,6.5897361181974405,0.47858018325772134,-5.400790537524223
1772701747346501400,6.96450146484375,5.972254208195209,0.7451683787167072,-5.241522935631871
1772701747356549400,6.97454931640625,5.369404050135612,0.8500073480680584,-4.890356797355413
1772701747366598400,6.984598388671875,4.978564073118567,0.7821552433956414,-4.596629871612787
1772701747376646400,6.994646484375,4.499138050153851,0.7876945381484926,-4.091004408508539
1772701747386695400,7.0046953125,3.9273394484400748,0.8667083075001836,-3.4559126075357196
1772701747396743400,7.014743408203125,3.210053932905197,1.0159947597347199,-2.8075720334112644
1772701747406791400,7.02479150390625,1.9209107789456843,1.402204154341668,-1.9060627539038657
1772701747416840400,7.03484033203125,0.5093932912051677,2.0246635604955254,-0.8122223918139934
1772701747426888400,7.044888427734375,-0.7243488780498504,2.4920257823094722,-0.08830898257195949
1772701747436937500,7.0549375,-1.7692273485720156,2.536999481023848,0.2593482708007097
1772701747446985500,7.0649853515625,-2.8024913691461086,2.5908988289937374,0.2815910822689533
1772701747457033500,7.075033447265625,-3.7353292683750388,2.9048984351754186,-0.009359949019551277
1772701747467082500,7.08508251953125,-4.356184454202651,3.1818197720676658,-0.3605944763571024
1772701747477130500,7.095130615234375,-4.354973909369111,2.76387288467735,-0.8152882091253996
1772701747487179500,7.105179443359375,-4.2503702100783585,2.000667183358222,-1.1867542081087827
1772701747497227500,7.1152275390625,-4.012934495878219,1.4468383919686079,-1.3175216917037964
1772701747507275300,7.125275146484375,-4.047561572623253,1.2380594479322433,-1.2810954565823078
1772701747517324500,7.135324462890625,-3.9747219618618486,0.7236772623986005,-1.2697685914039611
1772701747527372300,7.145372314453125,-3.6035113989442586,0.3507533196918666,-1.4206290149569512
1772701747537420500,7.155420654296875,-3.0831904710114,0.154088409156166,-1.6780121231645344
1772701747547469300,7.16546923828125,-2.277231815767288,-0.11990271950308233,-1.8404858276218174
1772701747557517600,7.175517578125,-1.6505238122582435,-0.030288463018834588,-1.9366934544891117
1772701747567566300,7.18556640625,-1.0685223809599875,0.007957242614775895,-1.8236077580571173
1772701747577614600,7.195614501953125,-0.4572469243824482,-0.11595642956271766,-1.649706066134572
1772701747587663400,7.205663330078125,0.0005611410140991211,-0.34093094079233704,-1.479400937399268
1772701747597711600,7.215711669921875,0.37401919059753413,-0.690345559226349,-1.4853998855531214
1772701747607759400,7.22575927734375,0.3293570420503616,-0.7049253617860376,-1.4117074573546646
1772701747617808400,7.235808349609375,-0.21114450412392616,-0.37927941268067805,-1.0003466703563928
1772701747627856400,7.2458564453125,-0.9242138632684945,-0.26094434435311703,-0.48433016161918635
1772701747637905400,7.255905517578125,-1.8976853861808776,-0.15027792922360822,0.17216273930072784
1772701747647953400,7.265953369140625,-2.8573855733722446,-0.2282967875201255,0.9148480690300465
1772701747658001400,7.27600146484375,-3.5966204703867435,-0.7250889558274298,1.7356687778413296
1772701747668050400,7.286050537109375,-4.4088720882952215,-1.018437403646484,2.8457430663734673
1772701747678098400,7.296098388671875,-6.306211437517404,-0.6126761171557009,4.553836439546942
1772701747688146400,7.306146484375,-9.215251210281252,0.14779972080811857,6.7733449651420115
1772701747698195500,7.316195556640625,-13.336391813856363,0.753998970099911,8.702302272421122
1772701747708243500,7.326243408203125,-17.467821756255624,0.9601147593416273,9.9466336402297
1772701747718292500,7.33629248046875,-20.05132667560577,0.9476406238242984,10.580669210147857
1772701747728340500,7.346340576171875,-20.193271971297264,0.9774958830576389,11.108211906027794
1772701747738388500,7.356388427734375,-18.350626335293054,1.1411965720266104,11.608753197735547
1772701747748437500,7.3664375,-16.288499743974207,1.340506553710997,11.955181786096094
1772701747758485500,7.376485595703125,-13.78987207918167,1.4639751124694942,11.25887008500695
1772701747768534500,7.386534423828125,-11.08320956671834,1.3376910578988492,9.907010070371626
1772701747778582300,7.396582275390625,-8.188039329352975,0.8949773935206234,8.574623987013101
1772701747788630500,7.406630615234375,-5.0812774286180735,0.6331674087814987,7.131524197050928
1772701747798679300,7.41667919921875,-1.48676415964365,0.44443022250514475,5.835390161290764
1772701747808727600,7.4267275390625,2.336121227109432,0.19019576932052148,4.435710410860181
1772701747818776300,7.4367763671875,5.545450937393308,0.0050522966871969395,3.128945967753231
1772701747828824600,7.446824462890625,8.252157288998365,-0.19273949898658319,2.0607988498464227
1772701747838872300,7.456872314453125,10.711443123483658,-0.3591215177277103,0.7185305471599102
1772701747848921600,7.466921630859375,12.862061652725934,-0.6711644734162837,-0.8772951679661869
1772701747858969300,7.47696923828125,14.576001413840055,-1.1814070749271661,-2.420344693933427
1772701747869018600,7.4870185546875,15.87677538436055,-1.3930255532383917,-3.490599305513501
1772701747879066400,7.49706640625,16.915771226584912,-1.3816925505802033,-4.751367136599123
1772701747889114400,7.5071142578125,17.61626576631665,-1.4222491635046899,-6.331760889315605
1772701747899163400,7.517163330078125,18.125742059630156,-1.317997784782946,-7.619754873239994
1772701747909211400,7.52721142578125,17.883192363417148,-1.0946035284820943,-7.178040449032187
1772701747919260400,7.537260498046875,16.965409994500874,-0.48648372292388226,-5.944674127352237
1772701747929308400,7.547308349609375,16.39316189545393,-0.21556241189772263,-5.76096649620831
1772701747939356700,7.557356689453125,15.518523087215423,0.07230212461752816,-5.382533580821752
1772701747949405400,7.567405517578125,14.574492178320885,0.09485111595811321,-5.004909059208631
1772701747959453400,7.577453369140625,13.617367979097365,0.02707012202683836,-4.815094635622203
1772701747969502500,7.58750244140625,12.533971854132414,-0.08211082205157727,-4.56482662011683
1772701747979550500,7.597550537109375,11.422573623520135,-0.07864468031097203,-4.507977482430636
1772701747989598500,7.607598388671875,10.365244836747646,-0.06307973917145282,-4.652572708109021
1772701747999647500,7.6176474609375,9.444161088198422,-0.13250055446531622,-4.593949254226684
1772701748009695500,7.627695556640625,8.753232833713293,0.006094261754490435,-4.272904113447666
1772701748019744500,7.63774462890625,8.11867060957253,0.10584639282822608,-3.973391590040922
1772701748029792500,7.64779248046875,7.385643919548392,0.08870134289041161,-3.7172295480608937
1772701748039840500,7.657840576171875,6.575369154670834,0.07266136811766773,-3.5117490610480306
1772701748049889500,7.6678896484375,5.917548220017552,-0.0426123033452779,-3.330682299801707
1772701748059937500,7.6779375,4.851456281074881,-0.08390607143789529,-3.0463989097088575
1772701748069986300,7.687986328125,3.6090637723743915,-0.2710259221781045,-2.2357512198656795
1772701748080034600,7.69803466796875,2.4565286447316406,-0.5427512978624552,-1.502663155043125
1772701748090082300,7.708082275390625,1.0114461565196513,-0.2996943827796727,-0.5479302348703146
1772701748100131600,7.718131591796875,-1.089441250348091,0.056012979122996326,0.7650830394983291
1772701748110179300,7.728179443359375,-3.65229734942317,0.22562143083103,2.3361814328640698
1772701748120228600,7.738228515625,-6.398254345920682,0.4161836771100759,4.369453685620427
1772701748130276400,7.7482763671875,-10.317103613913059,0.8350780744835734,7.2302142883837215
1772701748140324400,7.758324462890625,-15.585542028999328,2.433754210604727,10.5743587118268
1772701748150373400,7.768373291015625,-20.44022311733961,3.801704067036509,13.324693192756175
1772701748160421400,7.77842138671875,-23.121684553050994,2.3362790480196476,14.304060787969826
1772701748170470400,7.788470458984375,-20.58282073945999,0.8232520276114345,11.753835037887095
1772701748180518400,7.798518310546875,-14.908289248645305,-0.022425547624006868,7.613837173628807
1772701748190566700,7.808566650390625,-11.627481279081106,-0.7327974843781441,5.150472545397282
1772701748200615400,7.818615478515625,-9.23310250879228,-0.9731960669718682,4.095225825595856
1772701748210663400,7.828663330078125,-8.122261912062763,-0.9368789913132787,3.131954794180393
1772701748220712400,7.83871240234375,-7.440726924344897,-0.25253069974035025,2.392897591820359
1772701748230760400,7.848760498046875,-6.305652050068974,0.3612811434470117,1.9646184032469987
1772701748240809500,7.8588095703125,-4.849832479265332,0.803652935585007,1.3909855718433857
1772701748250857500,7.868857421875,-3.6298809349536896,1.7212851554408668,0.94790804258883
1772701748260905200,7.8789052734375,-2.6453981886833904,1.8794148393444716,0.9528121812433004
1772701748270954500,7.88895458984375,-1.5503367603659628,1.3605986168861388,0.8480150052070617
1772701748281002200,7.899002197265625,-0.5010609316676855,0.5152287924256176,0.2788549353033304
1772701748291051300,7.90905126953125,0.4713140281796455,-0.24189167069569228,-0.5109831907451152
1772701748301099300,7.919099365234375,1.2264590265095232,-0.5611116418741643,-1.2724649908810852
1772701748311147300,7.929147216796875,2.103329539322853,-0.9971833840198814,-1.876695789644122
1772701748321196300,7.9391962890625,3.0303111137390135,-1.4159133846119045,-2.265629640778899
1772701748331244300,7.949244384765625,3.6583226010620593,-1.1508682904090732,-2.5972955442935226
1772701748341293300,7.959293212890625,3.9434044480562207,-0.634417628038302,-2.661969968777895
1772701748351341300,7.96934130859375,3.845776432996988,-0.45575084060579535,-2.3223253414690492
1772701748361389300,7.979389404296875,3.725342127367854,-0.5353631603725254,-2.0961130320727825
1772701748371438300,7.989438232421875,3.9108939250737427,-0.5214299120880663,-2.171829075053334
1772701748381486300,7.999486328125,4.272068831667304,-0.15126907741911708,-2.4149855049878357
1772701748391535400,8.009535400390625,4.4067046811282635,0.09786861888207495,-2.6759102313250303
1772701748401583400,8.019583251953126,4.448437790486216,0.11781491691097616,-3.0490742663979526
1772701748411631400,8.02963134765625,4.439846487751603,0.14066731164492666,-3.356945452827215
1772701748421680000,8.03968017578125,4.191815145257115,0.18346118210218845,-3.3567502225160597
1772701748431728400,8.049728271484375,4.1604421018719675,0.20459325584955512,-3.3955537081629035
1772701748441777200,8.059777099609375,3.600714461702108,0.29128033630810674,-2.9343448944121597
1772701748451825400,8.069825439453124,3.0901579719364642,0.6802515968438237,-2.2208424045473336
1772701748461873400,8.079873291015625,2.7823791399657725,0.8882689819231628,-1.925687491828203
1772701748471922400,8.08992236328125,2.3612942468106746,0.9296472864940762,-1.6002344714790582
1772701748481970400,8.099970458984375,1.5852771408438682,0.9430863215208053,-1.1746271324634552
1772701748492019500,8.11001953125,0.6591583207368851,0.9513632245440036,-0.9006576311141252
1772701748502067200,8.120067138671875,-0.18953823699355124,1.0357301914919168,-0.9319909270107746
1772701748512115200,8.130115234375,-0.7740566195487976,1.1289478427629918,-1.1595558200597762
1772701748522164200,8.140164306640624,-1.0037725531518458,1.1659241860479115,-1.469330209761858
1772701748532212200,8.150212158203125,-0.936837197998166,1.0997244516924023,-1.8602730626314878
1772701748542261200,8.16026123046875,-0.5470552056014537,1.0283921767540276,-2.2913398360967636
1772701748552309200,8.170309326171875,0.11737842518985271,0.911156228774786,-2.713531229189038
1772701748562357500,8.180357421875,0.772006116759777,0.7326195705279708,-3.1068922491163016
1772701748572406300,8.19040625,1.3015835333377122,0.5327628782136365,-3.316715149247646
1772701748582454500,8.20045458984375,1.719832326284051,0.3681711221564561,-3.473579197129607
1772701748592503300,8.21050341796875,1.9341361712217329,0.2540568863943219,-3.407748588347435
1772701748602551300,8.22055126953125,2.1111621326446532,0.28727815146204083,-3.2832939411610362
1772701748612599300,8.230599365234376,2.296122978720069,0.38672421226128934,-3.1743197717010974
1772701748622648300,8.2406484375,1.9837679248750208,0.621738325337693,-2.903576246660948
1772701748632696300,8.2506962890625,1.239654608169198,0.7628457089003176,-2.370812601262331
1772701748642745300,8.260745361328125,0.24853286227583885,1.0638629377815871,-1.9758955840647219
1772701748652793300,8.27079345703125,-0.4989981539189815,0.959159869769588,-1.3723708877444267
1772701748662841300,8.28084130859375,-1.3407412392497062,0.42543128832895305,-0.4703121576607227
1772701748672890400,8.290890380859375,-2.6573510768055915,-0.25776491059940304,0.7077420266419648
1772701748682938400,8.3009384765625,-4.256929130202532,-0.6540419275712221,2.0327736555844544
1772701748692987400,8.3109873046875,-6.4695782914221285,-0.45659269825741644,3.412477954956889
1772701748703035400,8.321035400390626,-8.70286399795711,0.20920871375575661,4.731899927324056
1772701748713083400,8.33108349609375,-10.113062219792603,0.7822345922421664,5.643624895897507
1772701748723132400,8.34113232421875,-11.016904910683632,1.0695276124797761,6.461639899638294
1772701748733180200,8.35118017578125,-11.6499082149446,0.865543647634983,7.206165888798236
1772701748743229400,8.3612294921875,-11.873685406148432,-0.08175130455680191,8.32005359813869
1772701748753277200,8.371277099609374,-12.044531802153587,-1.1724027344122527,9.75463222799301
1772701748763325200,8.3813251953125,-13.006554294812679,-1.2791919610485434,10.928965930467843
1772701748773374200,8.391374267578126,-15.015660074561833,-0.25129165946468707,11.590115132761001
1772701748783422200,8.401422119140625,-16.588483392024038,0.7325929017167538,11.052004281115531
1772701748793471200,8.41147119140625,-15.736086810731887,1.6061686838336289,10.286147334635258
1772701748803519200,8.421519287109374,-9.857501066315173,1.8105390176475047,9.278266761642694
1772701748813568300,8.431568359375,-6.411978335368633,1.18736532574445,9.070812928730248
1772701748823616300,8.4416162109375,-4.02127036254704,0.07697223532041535,8.345050676751136
1772701748833664500,8.45166455078125,-2.4379928710877894,-1.020691173922643,6.928864028155803
1772701748843713300,8.46171337890625,-1.381926651597023,-1.5912413099452851,5.671715264350175
1772701748853761500,8.471761474609375,-0.4346276808172464,-1.7987576866999266,4.206518501131236
1772701748863810300,8.481810302734376,1.065709077104926,-1.6014765804946423,2.599109607978165
1772701748873858300,8.4918583984375,3.1067320901185274,-1.0875079441979527,0.8224442183598876
1772701748883907300,8.5019072265625,5.299510429698229,-0.4970517690915614,-1.221219080029428
1772701748893955300,8.511955322265624,7.701620086500048,0.0685714319229126,-2.752880950541794
1772701748904003300,8.52200341796875,10.437028800976275,0.44906668666675686,-3.7038098022565245
1772701748914052400,8.53205224609375,12.828457489287853,0.7847364920604973,-4.881145316895842
1772701748924100400,8.542100341796875,14.45989549280405,1.215204057523608,-6.07333440953493
1772701748934149400,8.5521494140625,15.086492437154053,1.613808531062305,-6.631022652831673
1772701748944197400,8.562197265625,14.918585017210244,1.9437148775584994,-6.8935957308977835
1772701748954245400,8.572245361328125,14.56871710205078,1.8385203727677464,-7.566513112396001
1772701748964294400,8.58229443359375,14.292413604795932,1.3780571166872977,-8.121700186526775
1772701748974342400,8.59234228515625,13.927313049191236,1.4107754372015595,-7.93308315603137
1772701748984391200,8.60239111328125,13.404597335076332,1.6397065040372312,-7.411951496237516
1772701748994439400,8.612439453125,12.805380565083025,1.5682833359450101,-7.105942596548795
1772701749004487200,8.622487060546876,12.0671504611969,1.4529565825879573,-6.782955674052238
1772701749014536400,8.632536376953125,11.262041700780392,1.4092586028978227,-6.437281118929386
1772701749024584200,8.642584228515625,10.44386536899805,1.3279650520458817,-6.070132983145117
1772701749034633500,8.652633544921875,9.738118315565586,1.1268148493222891,-5.772974329388141
1772701749044681200,8.66268115234375,9.199168675008416,1.019960302364826,-5.597856247413158
1772701749054729200,8.672729248046876,8.661340731957555,0.9803569715771824,-5.173522581595182
1772701749064778200,8.6827783203125,8.143072644901276,0.9074671649985014,-4.843149640500545
1772701749074826200,8.692826171875,7.615842668232322,0.8551895730115473,-4.810785247990489
1772701749084875300,8.702875244140625,7.119097846198081,0.7143563302151859,-4.718325575479865
1772701749094923300,8.71292333984375,6.4542451132118694,0.4411929210843518,-4.407441178709268
1772701749104972300,8.72297216796875,5.581975956714153,0.10189349048398434,-3.9132776053398843
1772701749115020300,8.733020263671875,4.66163747357428,-0.09320062707103788,-3.4367794525206086
1772701749125068500,8.743068603515624,3.5344518912434575,-0.0455253047151491,-2.651998609861731
1772701749135117300,8.753117431640625,2.5996944221287963,0.07887246118485927,-1.5451935522586107
1772701749145165600,8.76316552734375,1.8237024506032466,0.11649532221239059,-0.5751075801312923
1772701749155214300,8.77321435546875,0.8818599916636943,0.08882964544519782,0.6349725585073233
1772701749165262300,8.783262451171876,-0.4914256728380918,-0.14380571926850824,1.956989808064699
1772701749175310300,8.793310302734374,-2.3866847086548804,-0.5153789414860308,3.1295570853888988
1772701749185359400,8.803359375,-4.773301612770557,-0.7449695682089775,4.582800083702803
1772701749195407400,8.813407470703124,-7.535572030687332,-1.0533980962600558,5.830182071253657
1772701749205457000,8.823456787109375,-9.930608388102055,-1.4696232013590633,6.870204918438196
1772701749215505000,8.8335048828125,-12.727040603339672,-1.6783733576923607,8.230221936044096
1772701749225553000,8.843552978515625,-16.28470970404148,-2.173004694703966,9.734289697188139
1772701749235602000,8.853601806640626,-18.41149026157856,-2.66361101398319,10.863797584986687
1772701749245650000,8.86364990234375,-17.78514115450978,-3.029032472105324,11.141700334131716
1772701749255699000,8.873698974609376,-15.493119765889643,-2.7158202169090506,9.5929932207942
1772701749265747000,8.883746826171874,-12.166922502547502,-1.9833412238955497,6.523529077318311
1772701749275796000,8.8937958984375,-9.187440243291855,-1.0960472975496203,3.9973166555076833
1772701749285844000,8.903843994140624,-6.53753597536087,-0.14286502261860295,2.720963425016403
1772701749295892000,8.91389208984375,-4.579091292312741,0.37917796160019934,1.6488824747920034
1772701749305941000,8.92394091796875,-3.5030887847304344,0.6679211806461215,0.9628063365131616
1772701749315989000,8.933989013671875,-2.964617867600918,1.0057129466298966,0.6241343536287546
1772701749326037800,8.944037841796876,-2.735709743249416,1.269942194405198,0.45020811178684234
1772701749336085800,8.954085693359374,-3.0630846715718505,1.5578803076133132,0.2572843240082264
1772701749346134000,8.964134033203125,-3.404652375897765,1.6784813481114804,-0.1352729783207178
1772701749356182800,8.974182861328124,-2.9690730934441087,1.5180708597943187,-1.5411018990308045
1772701749366231000,8.98423095703125,-1.6960843709498643,1.139657964282483,-2.799079514876008
1772701749376279800,8.99427978515625,-0.03822948515117168,0.5387383358940482,-3.2767958113133906
1772701749386328000,9.004328125,1.85788178358078,-0.09833448282815516,-3.728182319229841
1772701749396375800,9.014375732421875,3.7080817804872988,-0.4113100066591054,-3.8156910913348194
1772701749406425000,9.024425048828125,4.915698159360885,-0.42716560130827125,-3.4861616153270005
1772701749416472800,9.034472900390625,5.269582908946275,-0.18514204786121843,-3.0210078633427617
1772701749426522000,9.044522216796874,4.577579134184122,-0.021201631852239368,-2.5294635325610635
1772701749436569900,9.05456982421875,3.909576997256279,-0.11319186022020876,-2.532607091283798
1772701749446619000,9.064618896484374,3.9266175639063117,-0.20679361543804406,-2.681358559858799
1772701749456667000,9.0746669921875,3.936700566503405,0.04784340893179178,-2.553900054681301
1772701749466715000,9.08471484375,4.158299244624376,0.1290366412144154,-2.4281606283813715
1772701749476764000,9.094763916015625,4.331332337018847,-0.07720942334346473,-2.024011087936163
1772701749486812000,9.10481201171875,4.288291652193665,-0.3718813017860055,-1.4335989711672066
1772701749496861000,9.11486083984375,3.882255859610438,-0.6706535282194614,-0.6116764385938644
1772701749506909000,9.124908935546875,3.167214323610067,-0.7053131920598447,0.34713936697840686
1772701749516957000,9.13495703125,2.44713011726737,-0.4344434102915227,0.7043366021126508
1772701749527006000,9.145005859375,1.5909914268374443,-0.03294350757226348,0.6172744047313928
1772701749537053700,9.1550537109375,0.7604857748359442,0.42140155788883565,0.7379150465875863
1772701749547103000,9.16510302734375,0.10945640001893042,0.806205761872977,1.120866900703311
1772701749557150700,9.175150634765625,-0.39600130530297756,1.0572612744942307,1.5179998403847217
1772701749567200000,9.185199951171874,-0.9685364045977591,1.1167185488522051,1.8060411217063663
1772701749577247700,9.195247802734375,-1.58206577758193,1.027490844000131,1.9023861112177372
1772701749587296000,9.2052958984375,-2.0618694016873835,0.873043794132024,1.8020324705868958
1772701749597344800,9.2153447265625,-2.476028879493475,0.6262910932712257,1.6610089659154414
1772701749607393000,9.22539306640625,-2.7032056500077246,0.3238528916761279,1.3194476913303137
1772701749617441800,9.23544189453125,-2.6983845134615896,0.14952362199127672,0.8349936110705137
1772701749627489800,9.24548974609375,-2.3930606734275814,-0.005149345587193966,0.34874387956559655
1772701749637538000,9.2555380859375,-1.9815619392633437,-0.06790156983733177,0.08637479963898659
1772701749647586800,9.2655869140625,-1.52951024543643,-0.058993017847090955,-0.16298282302320002
1772701749657635000,9.275635009765624,-1.0034323614120484,-0.04037716470435262,-0.3064122197926044
1772701749667683800,9.285683837890625,-0.4758382276058197,-0.08889102024361491,-0.378288538479805
1772701749677732000,9.295732177734376,-0.0028548049092292785,-0.25357977040186525,-0.4500082053005695
1772701749687779800,9.30577978515625,0.3029717239499092,-0.3746118957936764,-0.5086456877082586
1772701749697829000,9.3158291015625,0.3170499336630106,-0.2641163619853556,-0.7857768679589032
1772701749707876900,9.325876953125,0.2309317391335964,-0.11744359938055277,-1.034923478218913
1772701749717926100,9.335926025390625,0.19922259566187858,-0.033212972163408995,-1.1064280409842728
1772701749727974000,9.345973876953124,0.12406477108597755,0.026765257328748703,-1.0570990696698426
1772701749738023000,9.35602294921875,0.09771920047402381,0.03788403271436691,-0.9886047946363687
1772701749748071000,9.36607080078125,0.060606736654043196,0.1081350882872939,-0.8196843982577323
1772701749758119000,9.376118896484375,-0.03389467081725597,0.1100941134005785,-0.6453764636218547
1772701749768168000,9.38616796875,-0.07346037300825119,0.042661183988302945,-0.5501444037884473
1772701749778216000,9.3962158203125,-0.21204759044349192,-0.0556799477763474,-0.40452772610783577
1772701749788265000,9.406264892578125,-0.4196539835691452,-0.051917964894324535,-0.33678280813694
1772701749798313000,9.41631298828125,-0.4677145423829555,0.06331789530888199,-0.2926093198895454
1772701749808360700,9.426360595703125,-0.49062429332733154,0.16863354226127267,-0.20039456205070016
1772701749818410000,9.436409912109376,-0.6271031403064727,0.1279164780780673,-0.12177169171273708
1772701749828457700,9.446457763671875,-0.6559516336500645,-0.09848770062848924,0.07990589588582515
1772701749838507000,9.456507080078126,-0.6111304951488972,-0.29657223217114803,0.2645037538677454
1772701749848554800,9.4665546875,-0.4937281045615673,-0.3631302784450352,0.30929274366497994
1772701749858604000,9.47660400390625,-0.3453571597367525,-0.2858777466122061,0.1941542063564062
1772701749868651800,9.48665185546875,-0.199029703438282,-0.2299211007863283,0.004626490756869316
1772701749878700000,9.496699951171875,-0.10467618000507355,-0.17038323547281323,-0.09345978946387767
1772701749888748800,9.506748779296874,-0.09296645298898219,-0.10764518587850033,-0.1116670618057251
1772701749898796800,9.516796875,-0.12334697820544242,-0.12372311804145573,-0.09766425541639327
1772701749908845800,9.526845703125,-0.13149345978200436,-0.07778612725287676,-0.08195639867484569
1772701749918893800,9.536893798828125,-0.17331658551096915,-0.030606515992060303,0.0020049100816249845
1772701749928942000,9.546942138671875,-0.17077683790028095,-0.06558518265374004,0.050422611770033834
1772701749938990800,9.556990966796874,-0.10339958419799804,-0.04329429426006973,0.01914192284345627
1772701749949039000,9.5670390625,1.145166060179472,-0.0156330379396677,-0.20005904648602008
1772701749959087900,9.577087890625,1.3144745790928603,-0.003354278863966465,-0.409691392481327
1772701749969135900,9.587135986328125,-0.10746025776565074,-0.029781390279531476,-0.418455129173398
1772701749979185000,9.597184814453126,-0.44611938116848465,-0.29823899633958934,-0.1651233421832323
1772701749989233000,9.60723291015625,-1.2985405123800038,-0.2394830751840025,-0.12698796505630017
1772701749999281000,9.617281005859375,-1.3206991526961325,0.04128353895954787,-0.12558978869616985
1772701750009330000,9.627329833984374,-1.150063184571266,0.19703151535838842,-0.15548516074419022
1772701750019378000,9.6373779296875,-0.7937696202784776,0.3393880221992731,-0.1408499016702175
1772701750029426700,9.6474267578125,-0.3717687813222408,0.3491154893569648,-0.09718027129173278
1772701750039475000,9.657474853515625,0.13022270919382573,-0.03207023186907172,-0.07018821946978569
1772701750049523000,9.66752294921875,0.6493091268956661,-0.08162950480803847,-0.09611293432116508
