time,seconds_elapsed,z,y,x
1772701740440756700,0.0587568359375,0.025601767003536224,-0.03982783854007721,-0.09376350790262222
1772701740450806000,0.068805908203125,0.010609234683215618,-0.024153007194399834,-0.07497037947177887
1772701740460853800,0.078853759765625,0.002448244020342827,-0.012835371308028698,-0.0456729456782341
1772701740470902000,0.088902099609375,0.001157143502496183,-0.006858705077320337,-0.011893411166965961
1772701740480950800,0.09895068359375,0.005308479070663452,-0.006582268979400396,0.014148309826850891
1772701740490999000,0.1089990234375,-0.007586813066154718,-0.0020397149492055178,0.023197198286652565
1772701740501046800,0.119046875,-0.03152064234018326,0.019327625632286072,0.01943628303706646
1772701740511096000,0.129095947265625,-0.04334214702248573,0.03867655619978905,0.010037986561655998
1772701740521143800,0.139143798828125,-0.0489845871925354,0.05103735253214836,-0.0026549051981419325
1772701740531191800,0.14919189453125,-0.048716407269239426,0.058511778712272644,-0.008592955768108368
1772701740541240800,0.15924072265625,-0.05158596113324165,0.05540759861469269,-0.004420847166329622
1772701740551288800,0.169288818359375,-0.048944372683763504,0.0573333315551281,0.0037177728954702616
1772701740561337000,0.179337158203125,-0.045874547213315964,0.06017439067363739,0.006327404174953699
1772701740571385900,0.1893857421875,-0.04825567826628685,0.053458698093891144,0.01726767048239708
1772701740581434000,0.19943408203125,-0.05246640369296074,0.051049601286649704,0.025075791403651237
1772701740591481900,0.20948193359375,-0.06638674437999725,0.05106904357671738,0.031744614243507385
1772701740601531100,0.21953125,-0.08553887158632278,0.052927661687135696,0.030321154743433
1772701740611579000,0.229578857421875,-0.09377575665712357,0.05348346382379532,0.04141588136553764
1772701740621627000,0.239626953125,-0.09528417140245438,0.05451757088303566,0.048712410032749176
1772701740631676000,0.249676025390625,-0.09173072129487991,0.05861377716064453,0.04759255424141884
1772701740641724000,0.259723876953125,-0.08738071471452713,0.057985007762908936,0.054907724261283875
1772701740651772000,0.26977197265625,-0.0852307379245758,0.07410725206136703,0.06469190865755081
1772701740661821000,0.279821044921875,-0.08775541931390762,0.09524768590927124,0.061698783189058304
1772701740671869000,0.289868896484375,-0.09293952584266663,0.10950758308172226,0.06031367555260658
1772701740681918000,0.29991796875,-0.09598112106323242,0.11768908053636551,0.06412439048290253
1772701740691965700,0.309965576171875,-0.09605196118354797,0.12466257065534592,0.06857932358980179
1772701740702014000,0.320013916015625,-0.09319812059402466,0.12794305384159088,0.06823151558637619
1772701740712062700,0.330062744140625,-0.08577802032232285,0.1334371566772461,0.0751219168305397
1772701740722111000,0.340111083984375,-0.07233438640832901,0.1402987837791443,0.08042320609092712
1772701740732159000,0.350158935546875,-0.057794589549303055,0.16206933557987213,0.08147035539150238
1772701740742208000,0.3602080078125,-0.04313282296061516,0.17634333670139313,0.08546722680330276
1772701740752256000,0.370256103515625,-0.033253561705350876,0.1782512366771698,0.08979540318250656
1772701740762303700,0.3803037109375,-0.02520335651934147,0.1965159922838211,0.08372339606285095
1772701740772353000,0.39035302734375,-0.017363011837005615,0.22477185726165771,0.07895819842815399
1772701740782400800,0.40040087890625,-0.005126585252583027,0.2644478976726532,0.07735098153352737
1772701740792449000,0.410448974609375,0.017129186540842056,0.3045705556869507,0.09096479415893555
1772701740802497800,0.420497802734375,0.04568146914243698,0.3310311734676361,0.1192299872636795
1772701740812546000,0.430546142578125,0.07246887683868408,0.32962265610694885,0.13703028857707977
1772701740822594000,0.440593994140625,0.08865264058113098,0.33704328536987305,0.15619386732578278
1772701740832642800,0.450642822265625,0.09932472556829453,0.3330288231372833,0.16883961856365204
1772701740842691000,0.460691162109375,0.09884694963693619,0.34346309304237366,0.16129301488399506
1772701740852738800,0.47073876953125,0.09263219684362411,0.35505396127700806,0.14715589582920074
1772701740862787800,0.480787841796875,0.07733899354934692,0.3608354330062866,0.1268618106842041
1772701740872835800,0.4908359375,0.07523323595523834,0.4248700737953186,0.10202756524085999
1772701740882884000,0.500884033203125,0.09664824604988098,0.4907422959804535,0.10712724924087524
1772701740892932900,0.510932861328125,0.11291137337684631,0.4949719309806824,0.12349876761436462
1772701740902980900,0.52098095703125,0.11826059967279434,0.4460403323173523,0.15152081847190857
1772701740913030000,0.53102978515625,0.11823689192533493,0.36128363013267517,0.18550434708595276
1772701740923078000,0.541077880859375,0.10638502985239029,0.3025508224964142,0.2210088074207306
1772701740933126000,0.5511259765625,0.08938314020633698,0.21373838186264038,0.25498461723327637
1772701740943175000,0.5611748046875,0.06174672022461891,0.1399107575416565,0.2824111878871918
1772701740953223000,0.571222900390625,0.021497834473848343,0.1133449375629425,0.3017933964729309
1772701740963271000,0.58127099609375,-0.007593204732984304,0.16133323311805725,0.31827518343925476
1772701740973320000,0.59131982421875,-0.03171025961637497,0.2422882616519928,0.320421427488327
1772701740983368000,0.601367919921875,-0.06321492046117783,0.3453877568244934,0.3036043643951416
1772701740993416000,0.611416015625,-0.098188616335392,0.4700276851654053,0.2861694395542145
1772701741003465000,0.62146484375,-0.12797634303569794,0.5423541069030762,0.2642846405506134
1772701741013513000,0.631512939453125,-0.17379629611968994,0.5595221519470215,0.2655392587184906
1772701741023561000,0.64156103515625,-0.21374131739139557,0.502406120300293,0.25612685084342957
1772701741033610000,0.65160986328125,-0.2423471212387085,0.4513775706291199,0.22258274257183075
1772701741043658000,0.661657958984375,-0.27542704343795776,0.4486164152622223,0.18467211723327637
1772701741053706000,0.6717060546875,-0.30114173889160156,0.4666239023208618,0.15243853628635406
1772701741063754800,0.681754638671875,-0.3234632909297943,0.4939489960670471,0.12920112907886505
1772701741073803000,0.691802978515625,-0.32356715202331543,0.49309465289115906,0.11247914284467697
1772701741083851800,0.701851806640625,-0.3185902237892151,0.43457409739494324,0.12052428722381592
1772701741093900000,0.711900146484375,-0.30955970287323,0.3207543194293976,0.15192854404449463
1772701741103947800,0.72194775390625,-0.2966556251049042,0.14676840603351593,0.18414533138275146
1772701741113997000,0.7319970703125,-0.29408860206604004,-0.06653987616300583,0.1980624794960022
1772701741124044800,0.742044921875,-0.27551573514938354,-0.2883652150630951,0.24631629884243011
1772701741134092800,0.7520927734375,-0.23183003067970276,-0.467247873544693,0.3842501938343048
1772701741144141800,0.762141845703125,-0.16161365807056427,-0.6329809427261353,0.6267089247703552
1772701741154189800,0.77218994140625,-0.058531753718853,-0.7313189506530762,0.9074268341064453
1772701741164238000,0.782238037109375,0.08630985766649246,-0.7415851354598999,1.101776361465454
1772701741174286800,0.792286865234375,0.25835564732551575,-0.7899196743965149,1.1832201480865479
1772701741184335000,0.802335205078125,0.4268903434276581,-0.9816774129867554,1.1146063804626465
1772701741194382800,0.8123828125,0.5335124135017395,-1.1041407585144043,0.9453648924827576
1772701741204431600,0.822431640625,0.560376763343811,-1.1088001728057861,0.6841482520103455
1772701741214479400,0.832479248046875,0.5247727036476135,-0.9648004174232483,0.3883325457572937
1772701741224527600,0.842527587890625,0.44591888785362244,-0.8149254322052002,0.13147972524166107
1772701741234576400,0.852576416015625,0.35490110516548157,-0.7537962794303894,-0.11688454449176788
1772701741244624600,0.862624755859375,0.29688760638237,-0.8096845746040344,-0.3746239244937897
1772701741254673400,0.87267333984375,0.27949848771095276,-0.7713127136230469,-0.582487940788269
1772701741264721700,0.8827216796875,0.2973717749118805,-0.5698139667510986,-0.6718090176582336
1772701741274769700,0.892769775390625,0.31464236974716187,-0.3206259608268738,-0.6056832671165466
1772701741284818700,0.902818603515625,0.3107703924179077,-0.06946030259132385,-0.4025280177593231
1772701741294866700,0.91286669921875,0.2844924330711365,0.055800680071115494,-0.09444660693407059
1772701741304914400,0.92291455078125,0.23911884427070618,0.031315844506025314,0.21404170989990234
1772701741314963500,0.93296337890625,0.19747978448867798,-0.24116121232509613,0.4034241735935211
1772701741325011500,0.943011474609375,0.17647063732147217,-0.5605384111404419,0.5517665147781372
1772701741335059700,0.953059814453125,0.1732354313135147,-0.7029623985290527,0.6874620318412781
1772701741345108500,0.9631083984375,0.18724073469638824,-0.7527784109115601,0.7398881912231445
1772701741355156500,0.973156494140625,0.166826531291008,-0.8352762460708618,0.6696060299873352
1772701741365205500,0.98320556640625,0.1553799957036972,-0.8785192966461182,0.516437292098999
1772701741375253500,0.99325341796875,0.17295527458190918,-0.8925176858901978,0.30453619360923767
1772701741385301500,1.003301513671875,0.17405328154563904,-0.8658781051635742,0.07546386122703552
1772701741395350500,1.0133505859375,0.13416285812854767,-0.7829025387763977,-0.12199275195598602
1772701741405398500,1.0233984375,0.06277284026145935,-0.6604058742523193,-0.25667840242385864
1772701741415446500,1.033446533203125,0.008039284497499466,-0.44831758737564087,-0.3010543882846832
1772701741425495600,1.04349560546875,-0.025052888318896294,-0.18495334684848785,-0.26424017548561096
1772701741435543600,1.05354345703125,-0.04868711158633232,0.05992751568555832,-0.1916740983724594
1772701741445591600,1.063591552734375,-0.043586891144514084,0.21308937668800354,-0.10838985443115234
1772701741455640600,1.073640625,-0.025497104972600937,0.28166523575782776,-0.04665086045861244
1772701741465688600,1.0836884765625,0.03389991074800491,0.27212047576904297,0.004466387443244457
1772701741475736600,1.093736572265625,0.10361960530281067,0.18712754547595978,0.04594991356134415
1772701741485785600,1.10378564453125,0.16972751915454865,0.13684174418449402,0.0518576055765152
1772701741495833600,1.11383349609375,0.21651819348335266,0.17710047960281372,0.03189561516046524
1772701741505882600,1.123882568359375,0.26776832342147827,0.24353942275047302,0.008896023035049438
1772701741515930600,1.1339306640625,0.3203769326210022,0.28776493668556213,-0.011031878180801868
1772701741525978600,1.143978515625,0.36480486392974854,0.31949782371520996,-0.017912954092025757
1772701741536027400,1.15402734375,0.39012858271598816,0.38249996304512024,-0.028662271797657013
1772701741546075600,1.16407568359375,0.3989796042442322,0.4572852551937103,-0.038492798805236816
1772701741556123400,1.174123291015625,0.40601861476898193,0.47709012031555176,-0.027659324929118156
1772701741566172700,1.184172607421875,0.4192792773246765,0.4228053092956543,-0.0005914880894124508
1772701741576220400,1.194220458984375,0.4261164367198944,0.2655126452445984,0.05937064811587334
1772701741586268400,1.204268310546875,0.4174576997756958,0.013983992859721184,0.12902402877807617
1772701741596317400,1.2143173828125,0.38021817803382874,-0.1963045299053192,0.15907061100006104
1772701741606365400,1.224365478515625,0.3364613652229309,-0.26310300827026367,0.1556045114994049
1772701741616413700,1.23441357421875,0.30485817790031433,-0.2528322637081146,0.12599174678325653
1772701741626462500,1.24446240234375,0.29035672545433044,-0.126682847738266,0.0965140238404274
1772701741636510700,1.2545107421875,0.31814682483673096,0.18613311648368835,0.07534775137901306
1772701741646559500,1.2645595703125,0.377475380897522,0.7142084240913391,0.06296990811824799
1772701741656607700,1.274607666015625,0.46645238995552063,1.4567173719406128,0.052981726825237274
1772701741666655500,1.284655517578125,0.6005966067314148,1.9300146102905273,0.017838118597865105
1772701741676704800,1.294704833984375,0.7344731688499451,0.9276785850524902,-0.16308799386024475
1772701741686752500,1.30475244140625,0.7131639122962952,0.21095643937587738,-0.4542425870895386
1772701741696800500,1.314800537109375,0.5497637987136841,-0.04628680646419525,-0.4049466848373413
1772701741706849500,1.324849609375,0.447145015001297,0.29377010464668274,-0.6704225540161133
1772701741716897500,1.3348974609375,0.7392623424530029,1.0253500938415527,-0.5006487369537354
1772701741726945500,1.344945556640625,0.8175950050354004,0.6753571629524231,-0.36525067687034607
1772701741736994600,1.35499462890625,0.6609680652618408,0.055090416222810745,-0.20168651640415192
1772701741747042600,1.36504248046875,0.5549601316452026,-0.07535494118928909,0.04400394484400749
1772701741757090600,1.375090576171875,0.492689311504364,0.15962055325508118,0.2934071123600006
1772701741767139300,1.385139404296875,0.4651101529598236,0.6152805089950562,0.4429398775100708
1772701741777187600,1.3951875,0.5129541158676147,1.1574249267578125,0.5069244503974915
1772701741787236400,1.405236328125,0.5790441632270813,1.5836753845214844,0.5074645280838013
1772701741797284600,1.41528466796875,0.671043872833252,1.663050889968872,0.432573527097702
1772701741807332600,1.42533251953125,0.7184478640556335,1.3455557823181152,0.2745239734649658
1772701741817381600,1.435381591796875,0.7152438163757324,0.7605156898498535,0.09310038387775421
1772701741827429600,1.4454296875,0.6642139554023743,0.110199473798275,-0.02960316650569439
1772701741837477400,1.455477294921875,0.612155556678772,-0.4165061414241791,-0.10559114068746567
1772701741847526700,1.465526611328125,0.5277343988418579,-0.7109338045120239,-0.13225151598453522
1772701741857574400,1.475574462890625,0.41619986295700073,-0.7753713726997375,-0.1669599562883377
1772701741867622700,1.48562255859375,0.35821327567100525,-0.704664945602417,-0.239302858710289
1772701741877671400,1.49567138671875,0.3329923450946808,-0.5543428063392639,-0.3163771331310272
1772701741887719700,1.5057197265625,0.25671568512916565,-0.37628814578056335,-0.4040675759315491
1772701741897767400,1.515767333984375,0.10542123019695282,-0.19115370512008667,-0.49585530161857605
1772701741907816700,1.525816650390625,-0.09482318162918091,-0.022949790582060814,-0.6167004704475403
1772701741917864400,1.535864501953125,-0.32795071601867676,0.20549376308918,-0.7449724078178406
1772701741927913500,1.54591357421875,-0.5694893002510071,0.7828189134597778,-0.7974263429641724
1772701741937961500,1.55596142578125,-0.6842728853225708,1.492121696472168,-0.8418635725975037
1772701741948009500,1.566009521484375,-0.6540536880493164,2.1368041038513184,-0.9996340274810791
1772701741958058500,1.57605859375,-0.4935932159423828,2.5758259296417236,-1.1861666440963745
1772701741968106500,1.5861064453125,-0.2944689095020294,2.5902326107025146,-1.2151529788970947
1772701741978154500,1.596154541015625,-0.13594824075698853,2.288719892501831,-1.174100637435913
1772701741988203500,1.60620361328125,-0.1167958602309227,1.7840087413787842,-1.0870522260665894
1772701741998251500,1.61625146484375,-0.4346159100532532,1.2054657936096191,-0.9602195024490356
1772701742008299500,1.626299560546875,-0.7526191473007202,0.7179371118545532,-0.7932422161102295
1772701742018348500,1.6363486328125,-0.6881799697875977,0.44868937134742737,-0.6154637336730957
1772701742028396500,1.646396484375,-0.5278542637825012,0.3814743757247925,-0.5377926230430603
1772701742038445600,1.656445556640625,-0.3697167932987213,0.5089442133903503,-0.5577706098556519
1772701742048493600,1.66649365234375,-0.25446557998657227,0.7800084352493286,-0.5753785967826843
1772701742058541600,1.67654150390625,-0.16911844909191132,1.058976411819458,-0.5397511124610901
1772701742068590600,1.686590576171875,-0.10868014395236969,1.0399407148361206,-0.513595700263977
1772701742078638600,1.696638671875,-0.05964628607034683,0.7535763382911682,-0.4279859662055969
1772701742088686600,1.7066865234375,0.0032258869614452124,0.46259772777557373,-0.2186359316110611
1772701742098735600,1.716735595703125,0.07980641722679138,0.27186188101768494,0.05558256804943085
1772701742108783400,1.726783447265625,0.1285688877105713,0.18299032747745514,0.33282217383384705
1772701742118831600,1.73683154296875,0.1227371022105217,0.17818677425384521,0.6015303134918213
1772701742128880400,1.74688037109375,0.06808238476514816,0.14453934133052826,0.8277080655097961
1772701742138928600,1.7569287109375,-0.036732446402311325,0.05362461134791374,0.9812398552894592
1772701742148976600,1.7669765625,-0.161500483751297,-0.05090765655040741,1.046175479888916
1772701742159025400,1.777025390625,-0.2727460563182831,-0.15448836982250214,1.0320090055465698
1772701742169073700,1.78707373046875,-0.3445113003253937,-0.25415876507759094,0.9807122349739075
1772701742179122400,1.797122314453125,-0.3787020444869995,-0.38663187623023987,0.9061189889907837
1772701742189170700,1.807170654296875,-0.42939263582229614,-0.4838119447231293,0.8173670172691345
1772701742199219200,1.81721923828125,-0.5271596908569336,-0.5546277761459351,0.7111609578132629
1772701742209268000,1.82726806640625,-0.629036009311676,-0.7183181643486023,0.6374111175537109
1772701742219316200,1.837316162109375,-0.7342628240585327,-0.941957414150238,0.5739495754241943
1772701742229364200,1.8473642578125,-0.8522778749465942,-1.0356687307357788,0.48684021830558777
1772701742239413200,1.857413330078125,-0.9430426359176636,-0.9330001473426819,0.4105917811393738
1772701742249461200,1.867461181640625,-0.9643258452415466,-0.865441620349884,0.38250982761383057
1772701742259509000,1.877509033203125,-0.9481527209281921,-1.1564908027648926,0.43158602714538574
1772701742269558300,1.887558349609375,-0.91649329662323,-1.80890691280365,0.5093604326248169
1772701742279606000,1.89760595703125,-0.8411330580711365,-2.4387083053588867,0.5612611770629883
1772701742289655300,1.9076552734375,-0.73162841796875,-2.650683879852295,0.6651127338409424
1772701742299703000,1.917703125,-0.6408612132072449,-2.315354347229004,0.8089489936828613
1772701742309751300,1.927751220703125,-0.5943840146064758,-1.8395750522613525,1.040819525718689
1772701742319800000,1.937800048828125,-0.5491464734077454,-1.6036003828048706,1.3878147602081299
1772701742329848000,1.94784814453125,-0.48565617203712463,-1.6947768926620483,1.8458715677261353
1772701742339896300,1.957896240234375,-0.3625353276729584,-1.8771681785583496,2.2606701850891113
1772701742349945000,1.967945068359375,-0.2236408144235611,-2.0112698078155518,2.5187485218048096
1772701742359993300,1.977993408203125,-0.10189999639987946,-2.0902724266052246,2.556602954864502
1772701742370041000,1.988041015625,-0.009064868092536926,-2.0136656761169434,2.386833667755127
1772701742380090000,1.998090087890625,0.04674912989139557,-1.9127196073532104,2.1294875144958496
1772701742390138000,2.00813818359375,0.0822695717215538,-1.83872389793396,1.8443732261657715
1772701742400187100,2.018187255859375,0.11977779865264893,-1.6872960329055786,1.551507830619812
1772701742410235100,2.028235107421875,0.12484686076641083,-1.4627609252929688,1.185978889465332
1772701742420283100,2.038283203125,0.1175367459654808,-1.2825373411178589,0.8181763291358948
1772701742430332200,2.048332275390625,0.09762243181467056,-1.1593000888824463,0.44284507632255554
1772701742440380200,2.058380126953125,0.07258099317550659,-0.9922162890434265,0.06723123788833618
1772701742450428200,2.06842822265625,0.02310878038406372,-0.7843331694602966,-0.28438299894332886
1772701742460477200,2.078477294921875,-0.03286713734269142,-0.5883561968803406,-0.5596670508384705
1772701742470525200,2.088525146484375,-0.07392722368240356,-0.44348394870758057,-0.7635205388069153
1772701742480573200,2.0985732421875,-0.11180029809474945,-0.3553152084350586,-0.8969776630401611
1772701742490622000,2.1086220703125,-0.11618359386920929,-0.2900795042514801,-0.9511037468910217
1772701742500670200,2.118670166015625,-0.05850112810730934,-0.2212279886007309,-0.9141726493835449
1772701742510719000,2.128718994140625,0.04470408707857132,-0.1541443020105362,-0.7851097583770752
1772701742520767200,2.138767333984375,0.18021397292613983,-0.13232049345970154,-0.55828857421875
1772701742530815200,2.148815185546875,0.306868314743042,-0.12015756964683533,-0.330066055059433
1772701742540864300,2.1588642578125,0.4104793965816498,-0.025484055280685425,-0.1637929230928421
1772701742550912300,2.168912353515625,0.49166932702064514,0.08890217542648315,-0.04694460704922676
1772701742560960000,2.1789599609375,0.5454185605049133,0.16496019065380096,0.03781049698591232
1772701742571009300,2.18900927734375,0.5588614344596863,0.23084679245948792,0.0984480082988739
1772701742581057000,2.19905712890625,0.5424597859382629,0.31061938405036926,0.1452234983444214
1772701742591105300,2.209105224609375,0.5270140171051025,0.36321282386779785,0.19022107124328613
1772701742601154000,2.219154052734375,0.49064216017723083,0.4151593744754791,0.2494170218706131
1772701742611202300,2.229202392578125,0.43205687403678894,0.43918028473854065,0.26458266377449036
1772701742621251000,2.2392509765625,0.35608381032943726,0.47271615266799927,0.2402927577495575
1772701742631299300,2.24929931640625,0.2710544168949127,0.49772801995277405,0.17913326621055603
1772701742641347000,2.25934716796875,0.1968129277229309,0.529821515083313,0.10399510711431503
1772701742651396400,2.269396240234375,0.10890171676874161,0.45945361256599426,-0.02798236533999443
1772701742661444000,2.279444091796875,0.025357553735375404,0.46335089206695557,-0.18707402050495148
1772701742671492000,2.2894921875,-0.055937834084033966,0.5486963987350464,-0.35632428526878357
1772701742681541000,2.299541015625,-0.12372620403766632,0.682551920413971,-0.5091891884803772
1772701742691589000,2.309589111328125,-0.17589379847049713,0.7743316292762756,-0.6181061267852783
1772701742701637400,2.319637451171875,-0.21870304644107819,0.8323891162872314,-0.6801327466964722
1772701742711686100,2.32968603515625,-0.2207355797290802,0.9034848213195801,-0.6795465350151062
1772701742721734100,2.339734130859375,-0.1818494200706482,1.0461684465408325,-0.6341367363929749
1772701742731783200,2.349783203125,-0.06401573121547699,1.3656620979309082,-0.532054603099823
1772701742741831200,2.3598310546875,0.20414407551288605,1.9640171527862549,-0.351998507976532
1772701742751879200,2.369879150390625,0.5070706605911255,2.4205214977264404,-0.263193815946579
1772701742761928200,2.37992822265625,1.0280989408493042,1.4027020931243896,-0.023501863703131676
1772701742771976200,2.38997607421875,1.6277954578399658,0.6191934943199158,0.37602049112319946
1772701742782024200,2.400024169921875,1.0097383260726929,0.4888583719730377,0.2337357997894287
1772701742792073200,2.4100732421875,0.7533382177352905,2.147385358810425,-0.026624687016010284
1772701742802121200,2.420121337890625,1.2475292682647705,1.8506306409835815,-0.663489818572998
1772701742812169000,2.4301689453125,1.5386706590652466,-0.18671607971191406,-1.513988971710205
1772701742822218200,2.44021826171875,1.7551254034042358,-0.7350378036499023,-1.965970516204834
1772701742832266000,2.450265869140625,1.649836540222168,-0.31878596544265747,-2.186936855316162
1772701742842315300,2.460315185546875,1.2709193229675293,0.4789540767669678,-2.0294430255889893
1772701742852363000,2.470363037109375,0.7556482553482056,1.1387906074523926,-1.62599778175354
1772701742862411300,2.480411376953125,0.20623679459095,1.522006630897522,-1.0411361455917358
1772701742872460000,2.4904599609375,-0.18593817949295044,1.850955843925476,-0.371948778629303
1772701742882508300,2.50050830078125,-0.4875883162021637,1.628833532333374,0.2574123740196228
1772701742892556300,2.510556396484375,-0.7012318968772888,1.046345591545105,0.7452728152275085
1772701742902605000,2.52060498046875,-0.7716985940933228,0.2987337112426758,0.9655306339263916
1772701742912653300,2.5306533203125,-0.7068623304367065,-0.6797252297401428,0.9313130378723145
1772701742922701000,2.540701171875,-0.5477621555328369,-1.37302565574646,0.882628858089447
1772701742932750300,2.550750244140625,-0.3591427206993103,-1.3900628089904785,0.9226353764533997
1772701742942798000,2.560798095703125,-0.2429117113351822,-1.2708759307861328,0.8157808184623718
1772701742952847400,2.570847412109375,-0.12883174419403076,-1.0423897504806519,0.6638339161872864
1772701742962895000,2.58089501953125,-0.0408765934407711,-0.563587486743927,0.526982843875885
1772701742972943000,2.590943115234375,-0.00009880327706923708,-0.0030573089607059956,0.4539773464202881
1772701742982992100,2.6009921875,0.03434758633375168,0.5170689821243286,0.421146959066391
1772701742993040100,2.6110400390625,0.06685200333595276,0.9488059878349304,0.3152002990245819
1772701743003088100,2.621088134765625,0.11575749516487122,1.3515859842300415,0.19546617567539215
1772701743013137200,2.63113720703125,0.17343570291996002,1.7581278085708618,0.10426009446382523
1772701743023185200,2.64118505859375,0.15232428908348083,1.8723889589309692,-0.026885943487286568
1772701743033234200,2.651234130859375,-0.012615127488970757,1.4324061870574951,-0.2692498564720154
1772701743043282200,2.6612822265625,-0.2404901087284088,0.4597260355949402,-0.7046508193016052
1772701743053330200,2.671330078125,-0.37561091780662537,-0.3750748038291931,-1.075864553451538
1772701743063379000,2.68137890625,-0.41810163855552673,-0.5345094799995422,-1.1743760108947754
1772701743073427200,2.69142724609375,-0.44733861088752747,-0.10897548496723175,-1.1602628231048584
1772701743083475200,2.70147509765625,-0.4756397604942322,0.7516393661499023,-1.0682274103164673
1772701743093524200,2.711524169921875,-0.42937958240509033,1.6604902744293213,-0.8789762854576111
1772701743103572200,2.721572265625,-0.3868377208709717,1.9806312322616577,-0.7251366972923279
1772701743113620000,2.731619873046875,-0.33884862065315247,1.7467387914657593,-0.5237079858779907
1772701743123669200,2.741669189453125,-0.3162311911582947,1.5086485147476196,-0.2687752842903137
1772701743133717000,2.751717041015625,-0.28471723198890686,1.1901181936264038,-0.02101047709584236
1772701743143766300,2.761766357421875,-0.2583857476711273,0.7315858006477356,0.18413415551185608
1772701743153814000,2.77181396484375,-0.24170157313346863,0.2821643054485321,0.3125469982624054
1772701743163862300,2.7818623046875,-0.21817360818386078,-0.05698525533080101,0.36192384362220764
1772701743173911000,2.7919111328125,-0.18216820061206818,-0.3194062113761902,0.3905336558818817
1772701743183959300,2.801959228515625,-0.18604683876037598,-0.25827309489250183,0.3428071439266205
1772701743194007000,2.812007080078125,-0.200464129447937,0.09302154928445816,0.3986131548881531
1772701743204055800,2.822055908203125,-0.23302659392356873,0.24544039368629456,0.3925997316837311
1772701743214103800,2.832103759765625,-0.264311283826828,0.195197194814682,0.3246009945869446
1772701743224152800,2.84215283203125,-0.28474438190460205,0.16188104450702667,0.2329413741827011
1772701743234200800,2.852200927734375,-0.24216070771217346,0.19381234049797058,0.1316738724708557
1772701743244248800,2.862248779296875,-0.40782982110977173,0.16305390000343323,0.02588006667792797
1772701743254297900,2.8722978515625,-0.2921658158302307,0.12096477299928665,-0.058891281485557556
1772701743264345900,2.882345947265625,-0.5015115737915039,0.0371183417737484,-0.09137918055057526
1772701743274393900,2.892393798828125,-0.3950125575065613,-0.06877533346414566,-0.09161327034235
1772701743284443000,2.90244287109375,-0.6027231216430664,-0.20662161707878113,-0.0755930244922638
1772701743294491000,2.912490966796875,-0.48985305428504944,-0.2674841582775116,-0.055080562829971313
1772701743304538600,2.92253857421875,-0.7029850482940674,-0.28648555278778076,-0.01720774918794632
1772701743314588000,2.932587890625,-0.6078729033470154,-0.2785051167011261,0.03497502952814102
1772701743324635600,2.9426357421875,-0.793721616268158,-0.37120336294174194,0.12702879309654236
1772701743334685000,2.952684814453125,-0.6906772255897522,-0.604619026184082,0.1410122513771057
1772701743344732700,2.962732666015625,-0.834145724773407,-1.0145586729049683,-0.037703968584537506
1772701743354780700,2.97278076171875,-0.6394995450973511,-1.4606178998947144,-0.4254263937473297
1772701743364829700,2.98282958984375,-0.7089068293571472,-1.9798011779785156,-0.7696143984794617
1772701743374877700,2.992877685546875,-0.4632483422756195,-2.415905475616455,-0.8806493282318115
1772701743384926000,3.002926025390625,-0.43059399724006653,-2.420687675476074,-0.7801789045333862
1772701743394974700,3.012974609375,-0.1941111534833908,-1.913144826889038,-0.46840688586235046
1772701743405023000,3.02302294921875,-0.2738502025604248,-1.3021008968353271,0.006107427179813385
1772701743415071700,3.03307177734375,-0.14195260405540466,-1.0537375211715698,0.446925550699234
1772701743425120000,3.0431201171875,-0.20383381843566895,-1.1431394815444946,0.7814055681228638
1772701743435167700,3.053167724609375,-0.11087538301944733,-1.230818748474121,0.9903725981712341
1772701743445216800,3.063216796875,-0.19996291399002075,-1.2258293628692627,1.070547342300415
1772701743455264800,3.0732646484375,-0.10501589626073837,-1.2162768840789795,0.994041383266449
1772701743465312800,3.083312744140625,-0.15841734409332275,-1.2943096160888672,0.8149962425231934
1772701743475361800,3.09336181640625,-0.12556111812591553,-1.3074983358383179,0.6330634951591492
1772701743485409800,3.103409912109375,-0.29148006439208984,-1.2310041189193726,0.48572781682014465
1772701743495458800,3.113458740234375,-0.3452002704143524,-1.0419255495071411,0.4165932238101959
1772701743505506800,3.1235068359375,-0.5089050531387329,-0.8060325980186462,0.38685956597328186
1772701743515554800,3.133554931640625,-0.5256901383399963,-0.6168645620346069,0.37601545453071594
1772701743525603800,3.143603759765625,-0.6447837948799133,-0.5801256895065308,0.35221824049949646
1772701743535651600,3.153651611328125,-0.6478336453437805,-0.5986682176589966,0.31141674518585205
1772701743545699800,3.163699951171875,-0.7404674291610718,-0.6398265957832336,0.22499103844165802
1772701743555748600,3.17374853515625,-0.7117012739181519,-0.5537745356559753,0.16236387193202972
1772701743565796900,3.183796875,-0.7518090605735779,-0.3803097903728485,0.06042792275547981
1772701743575845600,3.193845703125,-0.6048528552055359,-0.17806348204612732,0.013140036724507809
1772701743585894000,3.203893798828125,-0.4568692743778229,0.00683100800961256,-0.011542140506207943
1772701743595942000,3.21394189453125,-0.19168926775455475,0.24986788630485535,0.048767272382974625
1772701743605991000,3.223990966796875,0.0033129723742604256,0.38894161581993103,0.17990505695343018
1772701743616039000,3.234038818359375,0.17287030816078186,0.34288492798805237,0.4088498055934906
1772701743626086700,3.244086669921875,0.35695546865463257,0.13177134096622467,0.6156775951385498
1772701743636136000,3.254135986328125,0.44309914112091064,-0.1889190524816513,0.7074423432350159
1772701743646183700,3.26418359375,0.48203161358833313,-0.338922917842865,0.7498092651367188
1772701743656233000,3.27423291015625,0.4933263659477234,-0.3660738468170166,0.7352979779243469
1772701743666280700,3.28428076171875,0.49345526099205017,-0.34534674882888794,0.6759467720985413
1772701743676329000,3.294328857421875,0.4835387170314789,-0.3068544864654541,0.5636758804321289
1772701743686377700,3.304377685546875,0.4696148931980133,-0.2444387674331665,0.4176776707172394
1772701743696425700,3.31442578125,0.43433254957199097,-0.15943066775798798,0.23739391565322876
1772701743706473700,3.3244736328125,0.3847537934780121,-0.06341918557882309,0.05194202810525894
1772701743716522800,3.334522705078125,0.3339923620223999,0.03508954495191574,-0.13477060198783875
1772701743726570800,3.34457080078125,0.28497156500816345,0.15417759120464325,-0.30703797936439514
1772701743736619800,3.354619873046875,0.2371334582567215,0.2840234637260437,-0.4406096041202545
1772701743746667800,3.364667724609375,0.20877878367900848,0.4151538014411926,-0.5198045372962952
1772701743756715800,3.3747158203125,0.17657610774040222,0.5229575037956238,-0.5629115700721741
1772701743766764800,3.384764892578125,0.15482500195503235,0.5602790117263794,-0.5481669902801514
1772701743776812800,3.394812744140625,0.13484223186969757,0.4546242356300354,-0.4883454442024231
1772701743786860800,3.40486083984375,0.12230940163135529,0.2623961865901947,-0.3953121602535248
1772701743796909800,3.414909912109375,0.1279369294643402,0.1038355827331543,-0.2781461477279663
1772701743806957800,3.424957763671875,0.15639999508857727,-0.012295282445847988,-0.1424945592880249
1772701743817006800,3.4350068359375,0.19163201749324799,-0.0593823678791523,0.008205997757613659
1772701743827054800,3.445054931640625,0.23269370198249817,0.0273250974714756,0.1760474592447281
1772701743837102800,3.455102783203125,0.223704993724823,0.2026606947183609,0.3239772617816925
1772701743847151900,3.46515185546875,0.16708911955356598,0.5424717664718628,0.41270262002944946
1772701743857199600,3.47519970703125,0.2182958573102951,1.1636251211166382,0.42042338848114014
1772701743867249000,3.485248779296875,0.23957957327365875,1.6776018142700195,0.44775888323783875
1772701743877296600,3.495296630859375,0.38749951124191284,0.8722920417785645,0.40120360255241394
1772701743887345000,3.505344970703125,0.5683662295341492,0.06669780611991882,-0.051654405891895294
1772701743897393700,3.5153935546875,0.4517616033554077,0.8266505002975464,-0.39754363894462585
1772701743907442000,3.52544189453125,0.35511574149131775,1.198615312576294,-0.6609007120132446
1772701743917489700,3.53548974609375,0.25020477175712585,0.781400203704834,-0.7741734385490417
1772701743927539000,3.5455390625,0.2017589509487152,0.4813149571418762,-0.7069925665855408
1772701743937586700,3.555586669921875,0.22100508213043213,0.6002280116081238,-0.41629281640052795
1772701743947636000,3.565635986328125,0.2731383144855499,0.7136792540550232,-0.046014364808797836
1772701743957683700,3.57568359375,0.31152859330177307,0.7589691877365112,0.2438667267560959
1772701743967731700,3.585731689453125,0.33662888407707214,0.7767031788825989,0.4151820242404938
1772701743977780700,3.59578076171875,0.3558070957660675,0.7359176874160767,0.49427470564842224
1772701743987828700,3.605828857421875,0.39259496331214905,0.6778642535209656,0.47520673274993896
1772701743997877000,3.615876953125,0.4165751039981842,0.5842772722244263,0.3746519088745117
1772701744007925800,3.62592578125,0.3821620047092438,0.4976518452167511,0.20725411176681519
1772701744017974000,3.63597412109375,0.3275054395198822,0.3586153984069824,0.04313415288925171
1772701744028022800,3.646022705078125,0.25279444456100464,0.17142795026302338,-0.1332869529724121
1772701744038070800,3.65607080078125,0.17978867888450623,-0.02322542853653431,-0.2811616361141205
1772701744048118800,3.666118896484375,0.14861983060836792,-0.24529391527175903,-0.36323440074920654
1772701744058167800,3.676167724609375,0.1531224399805069,-0.4594559967517853,-0.3759384751319885
1772701744068215800,3.6862158203125,0.1895528882741928,-0.5873836278915405,-0.34216105937957764
1772701744078263800,3.696263916015625,0.23112136125564575,-0.5391132831573486,-0.297305703163147
1772701744088312800,3.706312744140625,0.24494850635528564,-0.3306538164615631,-0.29569530487060547
1772701744098360800,3.71636083984375,0.2282685935497284,-0.05417482182383537,-0.34571531414985657
1772701744108409900,3.726409912109375,0.16524887084960938,0.2726994454860687,-0.40055006742477417
1772701744118457900,3.736457763671875,0.10289788246154785,0.593022346496582,-0.41937756538391113
1772701744128505600,3.746505615234375,0.0943845584988594,0.8686326146125793,-0.3849490284919739
1772701744138555000,3.756554931640625,0.11946674436330795,0.9892261028289795,-0.3111240565776825
1772701744148602600,3.7666025390625,0.14429938793182373,1.0177466869354248,-0.21238923072814941
1772701744158651000,3.77665087890625,0.1369061917066574,1.004338264465332,-0.08862893283367157
1772701744168699600,3.78669970703125,0.07058548927307129,0.9224990010261536,0.024636903777718544
1772701744178748000,3.796747802734375,-0.029463881626725197,0.7373923063278198,0.10770808905363083
1772701744188796700,3.806796630859375,-0.13585823774337769,0.5020670890808105,0.15842239558696747
1772701744198844700,3.8168447265625,-0.22677083313465118,0.3327004611492157,0.1895667314529419
1772701744208892400,3.826892333984375,-0.29633525013923645,0.35696345567703247,0.20177492499351501
1772701744218941400,3.83694140625,-0.3490394949913025,0.6355977654457092,0.21080997586250305
1772701744228989400,3.846989501953125,-0.3614029288291931,0.9768799543380737,0.1851610690355301
1772701744239037400,3.857037353515625,-0.3430074155330658,1.2400822639465332,0.17798997461795807
1772701744249086500,3.86708642578125,-0.30449971556663513,1.3510756492614746,0.17810875177383423
1772701744259134500,3.877134521484375,-0.2718837261199951,1.2921286821365356,0.1971767097711563
1772701744269183500,3.88718359375,-0.24837279319763184,1.0734189748764038,0.19934293627738953
1772701744279231200,3.897231201171875,-0.22382190823554993,0.6180105209350586,0.15741385519504547
1772701744289279500,3.907279541015625,-0.20569270849227905,0.19032546877861023,0.1015481948852539
1772701744299328300,3.917328369140625,-0.1770876944065094,-0.03117656148970127,0.06596650183200836
1772701744309376500,3.92737646484375,-0.15022891759872437,-0.09866026043891907,0.03464772552251816
1772701744319424500,3.937424560546875,-0.10115165263414383,-0.21099773049354553,0.01401728205382824
1772701744329473500,3.9474736328125,-0.03971785306930542,-0.3080095052719116,0.026507774367928505
1772701744339521500,3.957521484375,0.011826032772660255,-0.36880359053611755,0.06788477301597595
1772701744349570600,3.967570556640625,0.04319753870368004,-0.4242716431617737,0.09938731044530869
1772701744359618300,3.977618408203125,0.03605999797582626,-0.4425515830516815,0.11335798352956772
1772701744369666300,3.987666259765625,0.0022391858510673046,-0.4762994349002838,0.09828022867441177
1772701744379715300,3.99771533203125,-0.0841393768787384,-0.5908846259117126,0.034638937562704086
1772701744389763300,4.007763427734375,-0.16374792158603668,-0.7650068402290344,-0.1005266085267067
1772701744399812400,4.017812255859375,-0.21255993843078613,-0.9426807165145874,-0.25395023822784424
1772701744409860400,4.0278603515625,-0.20195496082305908,-1.132948637008667,-0.41730907559394836
1772701744419908600,4.03790869140625,-0.17804376780986786,-1.2703139781951904,-0.5211102962493896
1772701744429957400,4.047957275390625,-0.15526868402957916,-1.2876836061477661,-0.5391170382499695
1772701744440005400,4.05800537109375,-0.15425242483615875,-1.2265616655349731,-0.4455876052379608
1772701744450053400,4.068053466796875,-0.15709321200847626,-1.1663217544555664,-0.23406656086444855
1772701744460102400,4.078102294921875,-0.18458662927150726,-1.3182485103607178,0.05215694382786751
1772701744470150400,4.088150390625,-0.24612322449684143,-1.7363823652267456,0.2500511109828949
1772701744480199400,4.098199462890625,-0.2706112563610077,-2.162196397781372,0.31091687083244324
1772701744490247400,4.108247314453125,-0.2589266300201416,-2.378396511077881,0.27400490641593933
1772701744500295400,4.11829541015625,-0.2458489090204239,-2.253667116165161,0.26003584265708923
1772701744510344400,4.128344482421875,-0.22239232063293457,-1.8867894411087036,0.272087961435318
1772701744520392400,4.138392333984375,-0.23091471195220947,-1.4459110498428345,0.30731865763664246
1772701744530440400,4.1484404296875,-0.22707389295101166,-1.0365246534347534,0.3754356801509857
1772701744540489500,4.158489501953125,-0.21747054159641266,-0.829741358757019,0.4987056851387024
1772701744550537500,4.168537353515625,-0.21945619583129883,-0.8724992275238037,0.6945473551750183
1772701744560586500,4.17858642578125,-0.2249436378479004,-1.0838181972503662,0.8529537916183472
1772701744570634200,4.18863427734375,-0.21739037334918976,-1.2612323760986328,0.904754638671875
1772701744580682500,4.1986826171875,-0.18871772289276123,-1.3714041709899902,0.8426723480224609
1772701744590731300,4.208731201171875,-0.17882513999938965,-1.4174989461898804,0.7532426118850708
1772701744600779300,4.218779296875,-0.1593340039253235,-1.4050542116165161,0.658637523651123
1772701744610827500,4.22882763671875,-0.150835320353508,-1.283349633216858,0.559784471988678
1772701744620876300,4.238876220703125,-0.17532894015312195,-1.0292270183563232,0.46994033455848694
1772701744630924500,4.248924560546875,-0.18575388193130493,-0.7649008631706238,0.4058487117290497
1772701744640973300,4.258973388671875,-0.18399779498577118,-0.5637531280517578,0.3556070923805237
1772701744651021600,4.269021484375,-0.17830155789852142,-0.4095188081264496,0.3351005017757416
1772701744661069300,4.2790693359375,-0.1418181210756302,-0.33596494793891907,0.3540313243865967
1772701744671118600,4.28911865234375,-0.11854822188615799,-0.38619059324264526,0.3658437728881836
1772701744681166300,4.299166259765625,-0.06181329861283302,-0.45356428623199463,0.4247094690799713
1772701744691214300,4.30921435546875,0.03503042086958885,-0.5400243401527405,0.5147677063941956
1772701744701263400,4.319263427734375,0.1748136281967163,-0.5653965473175049,0.656619131565094
1772701744711311400,4.329311279296875,0.2783951461315155,-0.4541371464729309,0.7504380345344543
1772701744721360400,4.3393603515625,0.38125520944595337,-0.19392286241054535,0.790740966796875
1772701744731408400,4.349408447265625,0.4589492082595825,0.1538817137479782,0.7591175436973572
1772701744741456400,4.359456298828125,0.4985365569591522,0.5066919326782227,0.6716750264167786
1772701744751505400,4.36950537109375,0.5403268933296204,0.7225744724273682,0.5614503026008606
1772701744761553400,4.379553466796875,0.5865471363067627,0.7823448181152344,0.449802041053772
1772701744771602400,4.3896025390625,0.6299324035644531,0.788865327835083,0.3381548821926117
1772701744781650400,4.399650390625,0.6466242671012878,0.8114686608314514,0.20311637222766876
1772701744791698400,4.409698486328125,0.6423693895339966,0.8502136468887329,0.0622418038547039
1772701744801747200,4.419747314453125,0.6373317241668701,0.9071317911148071,-0.07286488264799118
1772701744811795500,4.42979541015625,0.6234803795814514,0.9320887923240662,-0.1957695037126541
1772701744821843500,4.439843505859375,0.5852394700050354,0.9486555457115173,-0.31217387318611145
1772701744831892500,4.449892578125,0.5446454882621765,0.9590905904769897,-0.42701125144958496
1772701744841940500,4.4599404296875,0.5112749934196472,1.0002505779266357,-0.5215026140213013
1772701744851989500,4.469989501953125,0.47012728452682495,1.0708099603652954,-0.6118577718734741
1772701744862037500,4.48003759765625,0.4236663281917572,1.085950493812561,-0.69039386510849
1772701744872085200,4.490085205078125,0.3629142940044403,1.0626084804534912,-0.7554663419723511
1772701744882134500,4.500134521484375,0.2980037331581116,1.0244415998458862,-0.8311336636543274
1772701744892182300,4.510182373046875,0.2603495717048645,0.9289952516555786,-0.9072108864784241
1772701744902230500,4.52023046875,0.22081972658634186,0.8139818906784058,-0.9902253150939941
1772701744912279300,4.530279296875,0.2079867571592331,0.719376266002655,-1.0556451082229614
1772701744922327600,4.54032763671875,0.24246403574943542,0.6503300666809082,-1.057407259941101
1772701744932376300,4.550376220703125,0.2551625072956085,0.6047993302345276,-1.0011693239212036
1772701744942424300,4.56042431640625,0.2822231650352478,0.5639485716819763,-0.8755533695220947
1772701744952472600,4.57047265625,0.3037415146827698,0.7669773101806641,-0.7132059931755066
1772701744962521300,4.580521240234375,0.319866418838501,1.4129430055618286,-0.47532445192337036
1772701744972569300,4.5905693359375,0.4762965142726898,2.0253474712371826,-0.23750123381614685
1772701744982618400,4.600618408203125,0.6170048713684082,1.754354476928711,-0.09322741627693176
1772701744992666400,4.610666259765625,0.5320689678192139,1.1201386451721191,0.04763702675700188
1772701745002714400,4.62071435546875,0.5832261443138123,0.18689638376235962,0.06943713128566742
1772701745012763400,4.630763427734375,0.7647022008895874,-0.619790256023407,0.11824062466621399
1772701745022811400,4.640811279296875,0.5507254600524902,-0.8533103466033936,0.1880924105644226
1772701745032859400,4.650859375,0.26490169763565063,-0.5706595182418823,0.29143691062927246
1772701745042908400,4.660908447265625,0.07774965465068817,0.023506125435233116,0.4862050712108612
1772701745052956400,4.670956298828125,-0.03706054762005806,0.6090995669364929,0.6580910682678223
1772701745063005400,4.68100537109375,-0.07223371416330338,0.8391303420066833,0.7206428647041321
1772701745073053400,4.691053466796875,-0.04398050531744957,0.7362332940101624,0.6920780539512634
1772701745083101400,4.701101318359375,0.029757630079984665,0.5167019963264465,0.5777866244316101
1772701745093150500,4.711150390625,0.11047830432653427,0.19225546717643738,0.38213539123535156
1772701745103198500,4.721198486328125,0.18366757035255432,0.04519863799214363,0.2110496610403061
1772701745113246500,4.73124658203125,0.20860034227371216,-0.11916980147361755,0.02558019384741783
1772701745123295200,4.741295166015625,0.14129240810871124,-0.4182632863521576,-0.18745830655097961
1772701745133343500,4.751343505859375,0.08700840175151825,-0.6708105802536011,-0.3269650638103485
1772701745143392300,4.761392333984375,0.08192522823810577,-0.7684069275856018,-0.43649688363075256
1772701745153440500,4.7714404296875,0.0860573872923851,-0.6843357086181641,-0.5555388331413269
1772701745163488500,4.781488525390625,0.08130497485399246,-0.48039430379867554,-0.6509732604026794
1772701745173537500,4.79153759765625,0.07618691027164459,-0.19261232018470764,-0.7449727058410645
1772701745183585300,4.801585205078125,0.05807395651936531,0.1312408447265625,-0.8009709715843201
1772701745193634600,4.811634521484375,0.04331951215863228,0.4897017776966095,-0.8118100762367249
1772701745203684400,4.821684326171875,0.012166118249297142,0.8600191473960876,-0.7560408115386963
1772701745213732400,4.831732421875,-0.062064703553915024,1.272449254989624,-0.6544707417488098
1772701745223781400,4.841781494140625,-0.1275760680437088,1.6970165967941284,-0.5100682973861694
1772701745233829400,4.851829345703125,-0.1684739589691162,2.1048383712768555,-0.31942594051361084
1772701745243877000,4.861877197265625,-0.20153285562992096,2.4210684299468994,-0.03190892934799194
1772701745253926400,4.871926513671875,-0.3065341114997864,2.383281707763672,0.3334546685218811
1772701745263974100,4.88197412109375,-0.4592408239841461,2.3020782470703125,0.6583771109580994
1772701745274023200,4.892023193359375,-0.6716185808181763,2.350916862487793,0.8503627777099609
1772701745284071200,4.9020712890625,-0.8031989932060242,2.3732903003692627,0.8148918747901917
1772701745294119400,4.912119384765625,-0.7124906778335571,2.4656686782836914,0.5127655863761902
1772701745304168200,4.922168212890625,-0.5557079911231995,2.907641887664795,-0.3202187418937683
1772701745314216400,4.932216552734375,-0.5109404921531677,2.2737343311309814,-0.9454243183135986
1772701745324264200,4.94226416015625,-0.42157119512557983,1.408730149269104,-1.2663589715957642
1772701745334313500,4.9523134765625,-0.3351316452026367,0.7452765703201294,-1.496292233467102
1772701745344361200,4.962361328125,-0.2311330884695053,0.04469849541783333,-1.6360831260681152
1772701745354410200,4.97241015625,-0.13380174338817596,-0.3318330645561218,-1.5120680332183838
1772701745364458200,4.982458251953125,-0.03292332962155342,-0.6212630271911621,-1.1474146842956543
1772701745374506200,4.99250634765625,0.02919011004269123,-0.934938371181488,-0.6961995959281921
1772701745384555300,5.00255517578125,0.029172798618674278,-1.1590521335601807,-0.19343097507953644
1772701745394603300,5.012603271484375,-0.02147812768816948,-1.1528984308242798,0.3267000913619995
1772701745404652300,5.02265234375,-0.09000339359045029,-1.0579180717468262,0.7014659643173218
1772701745414700300,5.0327001953125,-0.14905792474746704,-1.0146912336349487,0.8724462389945984
1772701745424748300,5.042748291015625,-0.1730964183807373,-0.9196299910545349,0.9285989999771118
1772701745434797300,5.05279736328125,-0.16327627003192902,-0.7822492122650146,0.8811039328575134
1772701745444845300,5.06284521484375,-0.1545211374759674,-0.7141210436820984,0.7523110508918762
1772701745454893300,5.072893310546875,-0.21469871699810028,-0.7030020952224731,0.6002461314201355
1772701745464942300,5.0829423828125,-0.3040323257446289,-0.740382730960846,0.5155783891677856
1772701745474990300,5.092990234375,-0.3663337826728821,-0.9008360505104065,0.5097194314002991
1772701745485039400,5.103039306640625,-0.4124373495578766,-1.163858413696289,0.5594545006752014
1772701745495087400,5.11308740234375,-0.376351535320282,-1.4650166034698486,0.5673326849937439
1772701745505135400,5.12313525390625,-0.3162708878517151,-1.8021900653839111,0.4856351315975189
1772701745515184400,5.133184326171875,-0.275779128074646,-2.1237218379974365,0.34690654277801514
1772701745525232400,5.143232421875,-0.27447497844696045,-2.364274024963379,0.19015368819236755
1772701745535280000,5.153280029296875,-0.33768269419670105,-2.4942471981048584,0.027781562879681587
1772701745545329400,5.163329345703125,-0.47137072682380676,-2.587226629257202,-0.07667507231235504
1772701745555377200,5.173377197265625,-0.5988003015518188,-2.6652884483337402,-0.08720893412828445
1772701745565426400,5.183426513671875,-0.7422533631324768,-2.5043325424194336,0.03454865515232086
1772701745575474200,5.19347412109375,-0.8348839282989502,-1.798526644706726,0.2069137692451477
1772701745585522200,5.203522216796875,-0.8842507004737854,-0.8908430933952332,0.21671606600284576
1772701745595571200,5.2135712890625,-0.8868363499641418,-0.12719950079917908,-0.09607486426830292
1772701745605619200,5.223619140625,-0.8502485156059265,0.04094130918383598,-0.6848363876342773
1772701745615668200,5.233668212890625,-0.7712714076042175,-0.5962852239608765,-1.3490511178970337
1772701745625716200,5.24371630859375,-0.4609031677246094,-1.2955074310302734,-1.6540850400924683
1772701745635764500,5.253764404296875,-0.12498348206281662,-1.4248489141464233,-1.3343079090118408
1772701745645813200,5.263813232421875,0.1554921269416809,-0.8964298963546753,-0.6476491093635559
1772701745655861500,5.273861572265625,0.22123438119888306,-0.5130755305290222,-0.061342984437942505
1772701745665910300,5.28391015625,0.1970643252134323,-0.6470043063163757,0.2998090982437134
1772701745675958300,5.293958251953125,0.1657514125108719,-1.0298798084259033,0.3907584249973297
1772701745686006300,5.30400634765625,0.10113167762756348,-1.35909903049469,0.3049876093864441
1772701745696055300,5.31405517578125,0.03864779323339462,-1.4307310581207275,0.14218829572200775
1772701745706103300,5.324103271484375,-0.04767617583274841,-1.3525848388671875,-0.016895625740289688
1772701745716151300,5.3341513671875,-0.10974673926830292,-1.2402535676956177,-0.14973090589046478
1772701745726200300,5.344200439453125,-0.14825737476348877,-1.1839697360992432,-0.19637005031108856
1772701745736248300,5.354248291015625,-0.17712897062301636,-1.1642935276031494,-0.15770573914051056
1772701745746297300,5.36429736328125,-0.1887691169977188,-1.1699445247650146,-0.04916301742196083
1772701745756345300,5.374345458984375,-0.17763949930667877,-1.160871148109436,0.07786417007446289
1772701745766393000,5.38439306640625,-0.19100084900856018,-1.015041470527649,0.1754802167415619
1772701745776442400,5.3944423828125,-0.2363893687725067,-0.8200618624687195,0.22643154859542847
1772701745786490000,5.404489990234375,-0.3040192723274231,-0.632997989654541,0.2610153555870056
1772701745796539400,5.414539306640625,-0.4252040386199951,-0.49100568890571594,0.3129613697528839
1772701745806587100,5.424587158203125,-0.5259013175964355,-0.38971421122550964,0.4089158773422241
1772701745816635400,5.434635498046875,-0.6837967038154602,-0.23756009340286255,0.4614075720310211
1772701745826684200,5.44468408203125,-0.7565332055091858,-0.11546667665243149,0.5314550995826721
1772701745836732400,5.454732421875,-0.7329056262969971,-0.05590667575597763,0.657738208770752
1772701745846780400,5.464780517578125,-0.6631007194519043,0.027525899931788445,0.7544799447059631
1772701745856829400,5.474829345703125,-0.5228637456893921,0.11107245832681656,0.8938180804252625
1772701745866877400,5.48487744140625,-0.3708193600177765,0.19207170605659485,1.0071479082107544
1772701745876926200,5.49492626953125,-0.25775963068008423,0.36693617701530457,1.0090935230255127
1772701745886974200,5.50497412109375,-0.17291824519634247,0.6564923524856567,0.9022328853607178
1772701745897022200,5.515022216796875,-0.09934230148792267,0.747690737247467,0.739264190196991
1772701745907071200,5.5250712890625,-0.03207617625594139,0.7221986651420593,0.5592036247253418
1772701745917119200,5.535119140625,0.010627344250679016,0.6540382504463196,0.37492433190345764
1772701745927168300,5.545168212890625,0.0295560285449028,0.6151263117790222,0.17304182052612305
1772701745937216300,5.55521630859375,0.02315671741962433,0.664461076259613,-0.066077820956707
1772701745947264300,5.56526416015625,-0.01239035651087761,0.801110029220581,-0.357265442609787
1772701745957313300,5.575313232421875,-0.05927184596657753,0.9578684568405151,-0.666035532951355
1772701745967361300,5.585361328125,-0.11489889025688171,1.021474838256836,-0.9480382204055786
1772701745977410300,5.595410400390625,-0.1649916172027588,0.8939898610115051,-1.1864382028579712
1772701745987458300,5.605458251953125,-0.1673615574836731,0.4847155511379242,-1.382354974746704
1772701745997506300,5.61550634765625,-0.11640703678131104,-0.25096485018730164,-1.5249452590942383
1772701746007555300,5.625555419921875,-0.04336664825677872,-1.030116081237793,-1.644071102142334
1772701746017603300,5.635603271484375,-0.014786669053137302,-1.260251760482788,-1.8243108987808228
1772701746027651300,5.6456513671875,0.05152391269803047,-0.896163284778595,-2.001833915710449
1772701746037700000,5.6557001953125,0.2483605444431305,-0.26838698983192444,-1.8192428350448608
1772701746047748400,5.665748291015625,0.5841090083122253,0.8395013213157654,-0.9567219614982605
1772701746057797000,5.675797119140625,1.1562420129776,3.1390602588653564,0.6518217325210571
1772701746067845400,5.685845458984375,1.7579139471054077,5.752392768859863,2.3544130325317383
1772701746077893400,5.695893310546875,1.5093801021575928,5.161177158355713,2.885502338409424
1772701746087942400,5.7059423828125,0.9168067574501038,4.6159515380859375,2.10587215423584
1772701746097990400,5.715990478515625,1.0098605155944824,2.645669460296631,0.6637694835662842
1772701746108039400,5.726039306640625,1.3185206651687622,0.2713223099708557,-0.6927118897438049
1772701746118087200,5.736087158203125,1.3182727098464966,-1.0788966417312622,-1.4546326398849487
1772701746128135200,5.74613525390625,1.3865668773651123,-2.045616388320923,-1.856816053390503
1772701746138184200,5.75618408203125,1.4378983974456787,-2.1344246864318848,-1.7702878713607788
1772701746148232200,5.766232177734375,1.340140700340271,-1.4314099550247192,-1.3828325271606445
1772701746158281200,5.77628125,1.1859532594680786,-0.7632699608802795,-0.9399791955947876
1772701746168329200,5.7863291015625,1.0661402940750122,-0.1407717615365982,-0.5080426931381226
1772701746178377500,5.79637744140625,0.980072557926178,0.3857799172401428,-0.1025005429983139
1772701746188426200,5.80642626953125,0.9165593981742859,0.6190949082374573,0.15785035490989685
1772701746198474200,5.81647412109375,0.8395535349845886,0.6497337818145752,0.28041142225265503
1772701746208521000,5.82652099609375,0.7081196308135986,0.6243794560432434,0.274252325296402
1772701746218570000,5.836570068359375,0.5407007932662964,0.6178948879241943,0.15337836742401123
1772701746228618000,5.846617919921875,0.3731725215911865,0.6246673464775085,-0.037401698529720306
1772701746238667000,5.8566669921875,0.2205459624528885,0.6399719715118408,-0.24974964559078217
1772701746248715000,5.866715087890625,0.07841624319553375,0.6670984029769897,-0.45025479793548584
1772701746258762800,5.8767626953125,-0.06295713037252426,0.6533581018447876,-0.6196049451828003
1772701746268812000,5.88681201171875,-0.1904064267873764,0.5867801308631897,-0.7435985207557678
1772701746278859800,5.89685986328125,-0.24067147076129913,0.5615312457084656,-0.8045662641525269
1772701746288909000,5.906908935546875,-0.24465368688106537,0.5432891249656677,-0.8420457243919373
1772701746298956800,5.916956787109375,-0.22099070250988007,0.5232378840446472,-0.8631129264831543
1772701746309005000,5.927005126953125,-0.16480758786201477,0.5800719261169434,-0.8432065844535828
1772701746319053800,5.9370537109375,-0.11817697435617447,0.7016782164573669,-0.7741338014602661
1772701746329101800,5.947101806640625,-0.09144149720668793,0.8344586491584778,-0.6803713440895081
1772701746339150800,5.95715087890625,-0.10072287917137146,0.9429771304130554,-0.5781189799308777
1772701746349198800,5.96719873046875,-0.17255951464176178,0.9158576130867004,-0.5105833411216736
1772701746359246800,5.977246826171875,-0.2676277160644531,0.7709755301475525,-0.42875829339027405
1772701746369296000,5.9872958984375,-0.2946963608264923,0.6442447900772095,-0.35232794284820557
1772701746379344000,5.99734375,-0.2664940059185028,0.6871240735054016,-0.2827856242656708
1772701746389392000,6.007391845703125,-0.2058708667755127,0.8951497077941895,-0.197382852435112
1772701746399441000,6.01744091796875,-0.16129222512245178,0.9537304639816284,-0.0607118159532547
1772701746409489000,6.027489013671875,-0.09738727658987045,0.8491635322570801,0.06429749727249146
1772701746419538000,6.037537841796875,-0.039987895637750626,0.7827006578445435,0.10341320931911469
1772701746429586000,6.0475859375,-0.055576175451278687,0.6958426833152771,0.12109553068876266
1772701746439634000,6.057634033203125,-0.1572524756193161,0.6410593390464783,0.17475982010364532
1772701746449683000,6.067682861328125,-0.24359694123268127,0.6040123701095581,0.2710503935813904
1772701746459731000,6.07773095703125,-0.31620776653289795,0.6612458229064941,0.3982986509799957
1772701746469780000,6.087780029296875,-0.39095738530158997,0.7613639235496521,0.610514760017395
1772701746479828000,6.097827880859375,-0.4759811758995056,0.6806904077529907,0.8764007687568665
1772701746489875700,6.107875732421875,-0.5697066187858582,0.5204389095306396,1.0970306396484375
1772701746499925000,6.117925048828125,-0.6358925700187683,0.3024762272834778,1.2446722984313965
1772701746509972700,6.12797265625,-0.6919710040092468,0.10027254372835159,1.3067628145217896
1772701746520022000,6.13802197265625,-0.7105766534805298,0.06450282782316208,1.2486454248428345
1772701746530069800,6.14806982421875,-0.6658682823181152,0.15567028522491455,1.0480188131332397
1772701746540118000,6.158117919921875,-0.5821850895881653,0.21687692403793335,0.7674652338027954
1772701746550166800,6.168166748046875,-0.5171299576759338,0.13226643204689026,0.5189757943153381
1772701746560215000,6.178215087890625,-0.4682060778141022,-0.19214600324630737,0.348823219537735
1772701746570263800,6.188263916015625,-0.4471695125102997,-0.6180376410484314,0.23720961809158325
1772701746580312000,6.19831201171875,-0.4487122893333435,-0.9094588756561279,0.12376348674297333
1772701746590359800,6.20835986328125,-0.5148300528526306,-1.0145796537399292,-0.042388468980789185
1772701746600409000,6.2184091796875,-0.5976719260215759,-1.0235302448272705,-0.22268660366535187
1772701746610456800,6.228456787109375,-0.6206925511360168,-1.1412454843521118,-0.3933321237564087
1772701746620505900,6.238505859375,-0.6458242535591125,-1.1564472913742065,-0.45190566778182983
1772701746630553900,6.248553955078125,-0.6852962970733643,-1.3403047323226929,-0.32368138432502747
1772701746640601900,6.258601806640625,-0.7310238480567932,-1.8794771432876587,0.11884036660194397
1772701746650651000,6.26865087890625,-0.7787642478942871,-2.648615598678589,0.9756514430046082
1772701746660699000,6.278698974609375,-0.7514196634292603,-3.022451162338257,1.780010461807251
1772701746670747000,6.288746826171875,-0.6543373465538025,-2.3364434242248535,2.2689788341522217
1772701746680796000,6.2987958984375,-0.6159707903862,-1.4101887941360474,2.4645044803619385
1772701746690844000,6.308843994140625,-0.6152999401092529,-0.9374939203262329,2.4328434467315674
1772701746700893000,6.318892822265625,-0.555454432964325,-0.9547120928764343,2.157026529312134
1772701746710941000,6.32894091796875,-0.3714132308959961,-1.3320891857147217,1.7425315380096436
1772701746720989000,6.338989013671875,-0.10531337559223175,-1.6621661186218262,1.302787184715271
1772701746731038000,6.349037841796875,0.16435831785202026,-1.8338772058486938,1.0183451175689697
1772701746741086000,6.3590859375,0.34803307056427,-1.9632927179336548,0.8789137005805969
1772701746751135000,6.369135009765625,0.5165730714797974,-2.082380533218384,0.7555113434791565
1772701746761183000,6.379182861328125,0.6077080368995667,-2.0995004177093506,0.5787187218666077
1772701746771231000,6.38923095703125,0.6708002090454102,-2.1117405891418457,0.35562601685523987
1772701746781279700,6.39927978515625,0.6963548064231873,-2.095160961151123,0.16595780849456787
1772701746791328000,6.409327880859375,0.7022209763526917,-1.8478577136993408,-0.06581709533929825
1772701746801376800,6.419376708984375,0.6748471260070801,-1.5671957731246948,-0.20099543035030365
1772701746811425000,6.429425048828125,0.570020318031311,-1.245922565460205,-0.282504141330719
1772701746821472800,6.43947265625,0.40794673562049866,-0.9661074876785278,-0.34323859214782715
1772701746831522000,6.44952197265625,0.19887341558933258,-0.6121944189071655,-0.39981716871261597
1772701746841569800,6.45956982421875,-0.010335994884371758,-0.3888462781906128,-0.4337160289287567
1772701746851619000,6.469619140625,-0.13916055858135223,-0.14091317355632782,-0.38701003789901733
1772701746861666800,6.479666748046875,-0.23833240568637848,0.020019514486193657,-0.3753350079059601
1772701746871714800,6.48971484375,-0.29081079363822937,0.1372705101966858,-0.33238062262535095
1772701746881763800,6.499763916015625,-0.3108478784561157,0.20107026398181915,-0.2721324563026428
1772701746891811800,6.509811767578125,-0.3086388111114502,0.21152450144290924,-0.1962083876132965
1772701746901860900,6.51986083984375,-0.2910051941871643,0.16523689031600952,-0.06921955198049545
1772701746911908900,6.529908935546875,-0.22691357135772705,0.12062282115221024,0.053698647767305374
1772701746921957000,6.53995703125,-0.18971480429172516,0.16417881846427917,0.133351668715477
1772701746932006000,6.550005859375,-0.17294275760650635,0.2767559587955475,0.16759832203388214
1772701746942054000,6.560053955078125,-0.16767555475234985,0.4405185282230377,0.1708974391222
1772701746952103000,6.57010302734375,-0.16842523217201233,0.6427217125892639,0.1527317613363266
1772701746962151000,6.58015087890625,-0.1659868359565735,0.82234126329422,0.10389471054077148
1772701746972199000,6.590198974609375,-0.17345647513866425,0.9865965247154236,0.015561648644506931
1772701746982248000,6.600248046875,-0.18340258300304413,1.1466660499572754,-0.107256680727005
1772701746992296000,6.6102958984375,-0.18600262701511383,1.2534124851226807,-0.2556493580341339
1772701747002344000,6.620343994140625,-0.19241417944431305,1.3412299156188965,-0.42947545647621155
1772701747012393000,6.63039306640625,-0.20763655006885529,1.4086278676986694,-0.5986099243164062
1772701747022441000,6.64044091796875,-0.17956815659999847,1.4308665990829468,-0.7473980188369751
1772701747032490000,6.650489990234375,-0.12397147715091705,1.398872971534729,-0.8565892577171326
1772701747042538000,6.6605380859375,-0.020015519112348557,1.344743251800537,-0.9188805818557739
1772701747052585700,6.670585693359375,0.15017032623291016,1.2585148811340332,-0.9560471177101135
1772701747062635000,6.680635009765625,0.3406561315059662,1.1408811807632446,-0.9466365575790405
1772701747072682800,6.690682861328125,0.5343605875968933,1.0197489261627197,-0.8610196709632874
1772701747082732000,6.70073193359375,0.7238197326660156,1.1831871271133423,-0.6268141269683838
1772701747092779800,6.71077978515625,0.9284575581550598,2.591477394104004,-0.3263493478298187
1772701747102828000,6.720828125,1.2690420150756836,3.6065361499786377,-0.3350594937801361
1772701747112876800,6.730876708984375,1.5511269569396973,1.5193496942520142,-0.3617036044597626
1772701747122924800,6.7409248046875,1.5945320129394531,0.26277169585227966,-0.6702380180358887
1772701747132973800,6.750973876953125,1.75481379032135,0.8558358550071716,-0.7899401783943176
1772701747143021800,6.761021728515625,1.813827395439148,0.9685376286506653,-0.8471315503120422
1772701747153070000,6.771070068359375,1.5175586938858032,0.2029893398284912,-0.6930016279220581
1772701747163118800,6.781118896484375,1.2533442974090576,-0.14543789625167847,-0.2922574281692505
1772701747173167000,6.7911669921875,1.07570219039917,-0.14625148475170135,0.0252198688685894
1772701747183215900,6.8012158203125,0.9674087166786194,0.045643117278814316,0.10673656314611435
1772701747193264000,6.81126416015625,0.8934926986694336,0.469221293926239,0.04351658374071121
1772701747203311400,6.821311279296875,0.8159651160240173,0.9263483285903931,-0.028915004804730415
1772701747213360600,6.831360595703125,0.756665825843811,1.162086844444275,-0.0864158496260643
1772701747223408400,6.841408447265625,0.7091076374053955,1.1277410984039307,-0.11726590245962143
1772701747233457700,6.851457763671875,0.6659063696861267,0.8867729902267456,-0.1687253713607788
1772701747243505400,6.86150537109375,0.6224374771118164,0.5830743312835693,-0.24646782875061035
1772701747253553400,6.871553466796875,0.5950772166252136,0.2880474925041199,-0.35573068261146545
1772701747263602400,6.8816025390625,0.5378490686416626,0.09393022209405899,-0.4737537205219269
1772701747273650400,6.891650390625,0.42286577820777893,-0.012574913911521435,-0.5800772309303284
1772701747283699500,6.901699462890625,0.25489673018455505,-0.048649560660123825,-0.6383176445960999
1772701747293747500,6.91174755859375,0.10217297077178955,0.038306377828121185,-0.6672409176826477
1772701747303795500,6.92179541015625,-0.03314969688653946,0.22828856110572815,-0.6580074429512024
1772701747313844500,6.931844482421875,-0.13135004043579102,0.4295066297054291,-0.6224574446678162
1772701747323892500,6.941892578125,-0.1803162395954132,0.5650279521942139,-0.5388333797454834
1772701747333941500,6.95194140625,-0.14405064284801483,0.6045631170272827,-0.3833567202091217
1772701747343989200,6.9619892578125,-0.038057904690504074,0.585030198097229,-0.16287706792354584
1772701747354037500,6.97203759765625,0.043534692376852036,0.5782375335693359,0.03211266174912453
1772701747364086300,6.982086181640625,0.016516126692295074,0.6244742274284363,0.14244529604911804
1772701747374134500,6.992134521484375,-0.04403483495116234,0.7066823244094849,0.17130810022354126
1772701747384183300,7.002183349609375,-0.1265566051006317,0.7588991522789001,0.10628648847341537
1772701747394231600,7.0122314453125,-0.21704202890396118,0.8221260905265808,-0.061825551092624664
1772701747404279600,7.022279541015625,-0.28568634390830994,0.8817417621612549,-0.19748857617378235
1772701747414328300,7.032328369140625,-0.30014491081237793,0.8148249983787537,-0.30073001980781555
1772701747424376600,7.04237646484375,-0.28951597213745117,0.7150297164916992,-0.4042087197303772
1772701747434425300,7.05242529296875,-0.265095591545105,0.6384209394454956,-0.5102896094322205
1772701747444473600,7.0624736328125,-0.2040599286556244,0.659234344959259,-0.5456337928771973
1772701747454521300,7.072521240234375,-0.11873224377632141,0.6589078307151794,-0.4671746492385864
1772701747464570600,7.082570556640625,-0.01894412934780121,0.5707651972770691,-0.2607884407043457
1772701747474618400,7.092618408203125,0.07526040077209473,0.5581833720207214,-0.018006164580583572
1772701747484667600,7.102667724609375,0.1339588612318039,0.5384756922721863,0.22297795116901398
1772701747494715400,7.11271533203125,0.12990953028202057,0.38068687915802,0.42573320865631104
1772701747504763400,7.122763427734375,0.10770702362060547,0.08504245430231094,0.6133329272270203
1772701747514812400,7.1328125,0.04507879540324211,-0.14958469569683075,0.7419289946556091
1772701747524860400,7.1428603515625,-0.010253436863422394,-0.254302054643631,0.830780565738678
1772701747534908400,7.152908447265625,-0.05414179712533951,-0.3941102921962738,0.9024525880813599
1772701747544957400,7.16295751953125,-0.08313430100679398,-0.5648881793022156,0.968551754951477
1772701747555005400,7.17300537109375,-0.07463535666465759,-0.7012127041816711,1.0026103258132935
1772701747565054500,7.183054443359375,-0.03735030069947243,-0.7566482424736023,0.978424608707428
1772701747575102500,7.1931025390625,0.005263471510261297,-0.7650151252746582,0.9007849097251892
1772701747585151500,7.2031513671875,0.025527464225888252,-0.8715354204177856,0.8154436945915222
1772701747595199200,7.21319921875,0.049073804169893265,-1.1767560243606567,0.7284494042396545
1772701747605247500,7.22324755859375,0.05975201353430748,-1.6415221691131592,0.6735224723815918
1772701747615296300,7.233296142578125,0.07468435913324356,-1.9412175416946411,0.6004725098609924
1772701747625344500,7.243344482421875,0.09885387867689133,-1.9345710277557373,0.44332417845726013
1772701747635393300,7.253393310546875,0.11625710129737854,-1.735077142715454,0.2599183917045593
1772701747645441500,7.263441650390625,0.061524879187345505,-1.5890272855758667,0.08344722539186478
1772701747655489500,7.273489501953125,-0.04589984565973282,-1.5444259643554688,-0.13124723732471466
1772701747665538600,7.28353857421875,-0.1663045585155487,-1.551214575767517,-0.35296550393104553
1772701747675586600,7.293586669921875,-0.20137785375118256,-1.769540548324585,-0.4687674939632416
1772701747685634300,7.30363427734375,-0.13219664990901947,-2.347005605697632,-0.4921979606151581
1772701747695683600,7.31368359375,-0.021033113822340965,-2.765714406967163,-0.437996506690979
1772701747705731300,7.3237314453125,0.03819159418344498,-2.5775794982910156,-0.3806685209274292
1772701747715780600,7.333780517578125,0.0671263039112091,-1.940847396850586,-0.3103690445423126
1772701747725828400,7.343828369140625,0.06244153901934624,-1.2649786472320557,-0.2884728014469147
1772701747735876600,7.353876708984375,0.026911241933703423,-0.952126145362854,-0.2691366672515869
1772701747745925400,7.36392529296875,0.009377522394061089,-0.9753904938697815,-0.19478707015514374
1772701747755973400,7.373973388671875,-0.009551427327096462,-1.127129077911377,-0.07341083139181137
1772701747766022400,7.3840224609375,-0.04842771962285042,-1.1923261880874634,0.09460027515888214
1772701747776070400,7.3940703125,-0.09292061626911163,-1.1104012727737427,0.27213191986083984
1772701747786118400,7.404118408203125,-0.13365472853183746,-0.9535714387893677,0.4442829191684723
1772701747796167400,7.41416748046875,-0.14113421738147736,-0.8054954409599304,0.5874406099319458
1772701747806215400,7.42421533203125,-0.12674090266227722,-0.7311740517616272,0.6957535147666931
1772701747816264400,7.434264404296875,-0.10414104908704758,-0.6352254152297974,0.7852064371109009
1772701747826312400,7.4443125,-0.060382384806871414,-0.4386364817619324,0.8449456691741943
1772701747836360400,7.4543603515625,-0.03651060536503792,-0.15774062275886536,0.8565428853034973
1772701747846409500,7.464409423828125,-0.06073551997542381,0.07391417026519775,0.8349963426589966
1772701747856457500,7.47445751953125,-0.12236852198839188,0.2041723132133484,0.7362915873527527
1772701747866506200,7.48450634765625,-0.17184659838676453,0.28875431418418884,0.5589213371276855
1772701747876554500,7.494554443359375,-0.32808199524879456,0.3092441260814667,0.30385974049568176
1772701747886602500,7.5046025390625,-0.5177462100982666,0.2898525893688202,0.01992710307240486
1772701747896651500,7.514651611328125,-0.7790427803993225,0.26108431816101074,-0.2782324254512787
1772701747906699500,7.524699462890625,-0.8457586765289307,0.37590491771698,-0.48957422375679016
1772701747916748500,7.53474853515625,-0.845952033996582,0.6460070013999939,-0.6568654775619507
1772701747926796500,7.544796630859375,-0.8080552816390991,0.8618705868721008,-0.748299777507782
1772701747936844300,7.55484423828125,-0.7040205001831055,1.0014177560806274,-0.7524130344390869
1772701747946893600,7.5648935546875,-0.5364344120025635,1.016819953918457,-0.693904459476471
1772701747956941300,7.57494140625,-0.3727482855319977,0.9226111173629761,-0.5978721976280212
1772701747966990600,7.584990478515625,-0.23354831337928772,0.8160181045532227,-0.5000678896903992
1772701747977038300,7.595038330078125,-0.1053362786769867,0.8033707737922668,-0.43954968452453613
1772701747987086600,7.605086669921875,0.006985471583902836,0.8602742552757263,-0.4040585160255432
1772701747997135400,7.61513525390625,0.10732299089431763,0.8829271197319031,-0.38383927941322327
1772701748007183600,7.62518359375,0.18899574875831604,0.8594457507133484,-0.38648778200149536
1772701748017232400,7.635232421875,0.26854199171066284,0.8706622123718262,-0.4053983688354492
1772701748027280600,7.64528076171875,0.3513447046279907,0.913791298866272,-0.41504034399986267
1772701748037328400,7.655328369140625,0.39987602829933167,0.9122905731201172,-0.41126585006713867
1772701748047377400,7.66537744140625,0.404893159866333,0.8994467258453369,-0.4439641237258911
1772701748057425400,7.67542529296875,0.39363864064216614,0.8230483531951904,-0.4875965714454651
1772701748067474400,7.685474365234375,0.40599411725997925,0.730431318283081,-0.5726385116577148
1772701748077522400,7.6955224609375,0.40361669659614563,0.6409056782722473,-0.6856046915054321
1772701748087570400,7.7055703125,0.40828070044517517,0.5670216083526611,-0.7498286962509155
1772701748097619500,7.715619384765625,0.43241292238235474,0.4529903829097748,-0.6316682696342468
1772701748107667500,7.72566748046875,0.4574091136455536,0.2556741237640381,-0.3859812617301941
1772701748117716500,7.735716552734375,0.5184990763664246,0.21095271408557892,-0.13378842175006866
1772701748127764500,7.745764404296875,0.5539044737815857,0.6361748576164246,0.008314655162394047
1772701748137812500,7.7558125,0.6287987232208252,1.1170381307601929,-0.034501250833272934
1772701748147861500,7.765861572265625,0.6990845799446106,1.1927318572998047,-0.40408995747566223
1772701748157909500,7.775909423828125,0.6751904487609863,1.173965334892273,-0.7280131578445435
1772701748167958500,7.78595849609375,0.5954639315605164,0.9494781494140625,-0.9550849199295044
1772701748178006500,7.796006591796875,0.5128382444381714,0.3998611271381378,-1.0085396766662598
1772701748188054500,7.806054443359375,0.32703590393066406,0.13661643862724304,-0.7955762147903442
1772701748198103600,7.816103515625,0.12185080349445343,0.006872020661830902,-0.44534578919410706
1772701748208151300,7.8261513671875,-0.032290294766426086,0.049728672951459885,-0.12388492375612259
1772701748218200300,7.836200439453125,-0.14575746655464172,0.19774477183818817,0.0616292767226696
1772701748228248300,7.846248291015625,-0.14176033437252045,0.33731144666671753,0.09831405431032181
1772701748238297300,7.85629736328125,-0.08059151470661163,0.43420177698135376,-0.01931031420826912
1772701748248345300,7.866345458984375,-0.02087279036641121,0.47643497586250305,-0.2175336480140686
1772701748258393300,7.876393310546875,0.038846731185913086,0.4261989891529083,-0.3819231390953064
1772701748268442400,7.8864423828125,0.1008528470993042,0.2612289488315582,-0.48448917269706726
1772701748278490400,7.896490478515625,0.15728816390037537,0.05277053639292717,-0.5162758827209473
1772701748288539400,7.906539306640625,0.1592317372560501,-0.1123366579413414,-0.5229495167732239
1772701748298587400,7.91658740234375,0.14274170994758606,-0.2543582618236542,-0.4845179617404938
1772701748308635100,7.92663525390625,0.1445941925048828,-0.36265143752098083,-0.39225831627845764
1772701748318684400,7.936684326171875,0.20135441422462463,-0.4815983176231384,-0.23532064259052277
1772701748328732200,7.946732177734375,0.29302868247032166,-0.5618758797645569,-0.06924085319042206
1772701748338781400,7.956781494140625,0.3695330321788788,-0.5022892355918884,0.05453621223568916
1772701748348829200,7.9668291015625,0.43377354741096497,-0.2571955919265747,0.10889026522636414
1772701748358877400,7.97687744140625,0.4848617613315582,0.017604026943445206,0.1518305391073227
1772701748368926200,7.98692626953125,0.5137258768081665,0.23100419342517853,0.15729135274887085
1772701748378974500,7.996974365234375,0.5055718421936035,0.36101171374320984,0.14325302839279175
1772701748389023200,8.007023193359375,0.48728683590888977,0.41724836826324463,0.14834019541740417
1772701748399071200,8.0170712890625,0.4624347388744354,0.40130481123924255,0.15802398324012756
1772701748409119500,8.027119384765625,0.44111746549606323,0.35061395168304443,0.13555996119976044
1772701748419168300,8.037168212890625,0.3921195864677429,0.3891805112361908,0.05528402701020241
1772701748429216500,8.047216552734374,0.33785393834114075,0.5390011668205261,-0.04067791998386383
1772701748439264300,8.05726416015625,0.3069967031478882,0.7143351435661316,-0.1408572494983673
1772701748449313300,8.067313232421874,0.2627243101596832,0.7890104651451111,-0.22832532227039337
1772701748459361300,8.077361328125,0.20255842804908752,0.7347267270088196,-0.29616880416870117
1772701748469410300,8.087410400390626,0.13922978937625885,0.5850903391838074,-0.3012876808643341
1772701748479458300,8.097458251953125,0.10626784712076187,0.4024963080883026,-0.21472641825675964
1772701748489506300,8.10750634765625,0.10654082149267197,0.24379321932792664,-0.03549594059586525
1772701748499555300,8.117555419921874,0.120733343064785,0.13684946298599243,0.1961444765329361
1772701748509603300,8.127603271484375,0.11083437502384186,0.08898872882127762,0.41848325729370117
1772701748519652400,8.13765234375,0.0859636440873146,0.09014613926410675,0.6117997169494629
1772701748529700400,8.147700439453125,0.0494152195751667,0.09850047528743744,0.7373994588851929
1772701748539748400,8.157748291015626,0.005784119479358196,0.08726752549409866,0.7829480767250061
1772701748549797400,8.16779736328125,-0.0689321979880333,0.048349156975746155,0.758165717124939
1772701748559845400,8.177845458984375,-0.1648733764886856,-0.032161664217710495,0.6970957517623901
1772701748569894400,8.187894287109375,-0.2727673351764679,-0.14752846956253052,0.6140580773353577
1772701748579942100,8.197942138671875,-0.37749534845352173,-0.26688894629478455,0.5373966097831726
1772701748589991400,8.207991455078124,-0.4412679374217987,-0.41114571690559387,0.45725810527801514
1772701748600039200,8.2180390625,-0.48895397782325745,-0.5623595118522644,0.366862416267395
1772701748610087400,8.22808740234375,-0.5143155455589294,-0.6496778726577759,0.2899878919124603
1772701748620136200,8.23813623046875,-0.5331347584724426,-0.7163804769515991,0.24481934309005737
1772701748630184400,8.248184326171875,-0.5565178394317627,-0.8042322993278503,0.18655629456043243
1772701748640232400,8.258232421875,-0.5678250789642334,-0.8760321736335754,0.09023775160312653
1772701748650281500,8.268281494140625,-0.5747490525245667,-0.879412829875946,-0.08310074359178543
1772701748660329200,8.2783291015625,-0.5830879211425781,-0.8560033440589905,-0.21563535928726196
1772701748670378500,8.28837841796875,-0.6164264678955078,-0.9186033606529236,-0.2637879550457001
1772701748680426200,8.29842626953125,-0.5847595930099487,-1.170367956161499,-0.14752288162708282
1772701748690475300,8.308475341796875,-0.5014713406562805,-1.4450128078460693,0.06022392585873604
1772701748700523300,8.318523193359376,-0.37177276611328125,-1.5572208166122437,0.24046745896339417
1772701748710571300,8.3285712890625,-0.2496335357427597,-1.5221611261367798,0.33377397060394287
1772701748720620300,8.338620361328125,-0.16975361108779907,-1.4500741958618164,0.338951975107193
1772701748730668300,8.348668212890624,-0.11012570559978485,-1.4698023796081543,0.2676183879375458
1772701748740717300,8.35871728515625,-0.10817893594503403,-1.7024261951446533,0.19187995791435242
1772701748750765300,8.368765380859376,-0.1560836136341095,-1.9953683614730835,0.2061808705329895
1772701748760813300,8.378813232421875,-0.15618054568767548,-2.048793315887451,0.40116631984710693
1772701748770862300,8.3888623046875,-0.0659361407160759,-1.7173058986663818,0.7690748572349548
1772701748780910300,8.398910400390625,0.1411304920911789,-1.1366674900054932,1.101702332496643
1772701748790959400,8.40895947265625,0.3628107011318207,-0.6076568961143494,1.3600590229034424
1772701748801007400,8.41900732421875,0.5315730571746826,-0.31704744696617126,1.5168694257736206
1772701748811055400,8.429055419921875,0.6287339925765991,-0.33434122800827026,1.5678257942199707
1772701748821104400,8.4391044921875,0.5988770127296448,-0.49903005361557007,1.5668662786483765
1772701748831152400,8.44915234375,0.48526790738105774,-0.7329496145248413,1.528116226196289
1772701748841201400,8.459201416015626,0.3590015769004822,-0.8987976908683777,1.4788563251495361
1772701748851249200,8.469249267578125,0.23129872977733612,-0.8287597298622131,1.4257293939590454
1772701748861298400,8.47929833984375,0.1473124921321869,-0.5326974391937256,1.3601927757263184
1772701748871346200,8.48934619140625,0.0635044053196907,-0.11865394562482834,1.247044563293457
1772701748881394400,8.49939453125,-0.022180136293172836,0.2777860760688782,1.0678263902664185
1772701748891443200,8.509443115234374,-0.12740562856197357,0.6606112122535706,0.8043995499610901
1772701748901491500,8.519491455078125,-0.23587989807128906,0.9245368838310242,0.4459758698940277
1772701748911540200,8.529540283203126,-0.336750864982605,0.9802477955818176,0.030045250430703163
1772701748921588500,8.53958837890625,-0.40893396735191345,0.8128659725189209,-0.334174782037735
1772701748931636200,8.54963623046875,-0.41567763686180115,0.45450305938720703,-0.5704858303070068
1772701748941685500,8.559685546875,-0.35728248953819275,0.15078817307949066,-0.6595664620399475
1772701748951733200,8.569733154296875,-0.30113452672958374,-0.04326917603611946,-0.7147407531738281
1772701748961782300,8.5797822265625,-0.2764081656932831,-0.11607147753238678,-0.7383779287338257
1772701748971830300,8.589830322265625,-0.2936047315597534,0.028813272714614868,-0.7330363988876343
1772701748981878300,8.599878173828126,-0.2848791480064392,0.3473888635635376,-0.7025741338729858
1772701748991927300,8.60992724609375,-0.23884239792823792,0.7082504034042358,-0.6338847875595093
1772701749001975300,8.619975341796875,-0.2060474455356598,1.0036362409591675,-0.5322633385658264
1772701749012024300,8.6300244140625,-0.19264481961727142,1.2133334875106812,-0.419129878282547
1772701749022072300,8.640072265625,-0.18766842782497406,1.3695896863937378,-0.2765556871891022
1772701749032120300,8.650120361328124,-0.17281146347522736,1.3892112970352173,-0.12563462555408478
1772701749042169300,8.66016943359375,-0.14703631401062012,1.199277639389038,0.03175313398241997
1772701749052217300,8.67021728515625,-0.11177632957696915,0.8367524147033691,0.1701379120349884
1772701749062266400,8.680266357421875,-0.07075752317905426,0.4427012503147125,0.2895338237285614
1772701749072314400,8.690314453125,-0.04406199976801872,0.09306203573942184,0.35158440470695496
1772701749082363400,8.70036328125,-0.05161525681614876,-0.15677763521671295,0.34288546442985535
1772701749092411400,8.710411376953125,-0.08547495305538177,-0.2590147852897644,0.2867255210876465
1772701749102459400,8.72045947265625,-0.1288466602563858,-0.1921239048242569,0.20142845809459686
1772701749112508400,8.73050830078125,-0.15707217156887054,-0.04572700709104538,0.125337153673172
1772701749122556200,8.74055615234375,-0.15898139774799347,0.08818738162517548,0.10452880710363388
1772701749132605400,8.75060546875,-0.1457417607307434,0.1321239471435547,0.11937326192855835
1772701749142653200,8.760653076171875,-0.12377040833234787,-0.02047145366668701,0.1674576997756958
1772701749152701400,8.770701416015624,-0.06054723262786865,-0.4114418625831604,0.2514878809452057
1772701749162750200,8.780750244140625,0.027758127078413963,-0.8807387948036194,0.38284963369369507
1772701749172798500,8.790798583984374,0.10521190613508224,-1.1153830289840698,0.47728613018989563
1772701749182847200,8.80084716796875,0.1510867178440094,-0.9287550449371338,0.4523983597755432
1772701749192895500,8.8108955078125,0.19489598274230957,-0.24943406879901886,0.289265900850296
1772701749202943200,8.820943115234375,0.25813087821006775,0.7040479183197021,-0.05222565308213234
1772701749212993000,8.830992919921876,0.3984845280647278,1.585938572883606,-0.5195448994636536
1772701749223040800,8.841040771484375,0.4287111461162567,1.8236794471740723,-1.0105721950531006
1772701749233090000,8.851090087890626,0.327633798122406,1.4062052965164185,-1.4426231384277344
1772701749243137800,8.8611376953125,0.1889912188053131,0.8848477602005005,-1.7230843305587769
1772701749253186800,8.871186767578125,0.10546250641345978,0.6242907643318176,-1.8178833723068237
1772701749263234800,8.88123486328125,-0.00021891183860134333,0.5210128426551819,-1.9338849782943726
1772701749273283000,8.891282958984375,-0.15617762506008148,0.5821273326873779,-1.9932372570037842
1772701749283331800,8.901331787109376,-0.22098617255687714,0.6802850365638733,-2.016218423843384
1772701749293380000,8.911380126953125,-0.2641461491584778,0.6500190496444702,-1.9526145458221436
1772701749303428900,8.921428955078126,-0.2611200213432312,0.5500655174255371,-1.8205286264419556
1772701749313476900,8.931476806640624,-0.2402309775352478,0.4042883515357971,-1.636926293373108
1772701749323524900,8.94152490234375,-0.23282499611377716,0.15127606689929962,-1.4318701028823853
1772701749333574000,8.951573974609374,-0.1979793906211853,0.008372711949050426,-1.1552366018295288
1772701749343622000,8.961621826171875,-0.10039132088422775,0.16794000566005707,-0.8104992508888245
1772701749353671000,8.9716708984375,-0.04862559214234352,0.5803288817405701,-0.46363744139671326
1772701749363719000,8.981718994140625,-0.013672668486833572,1.0207902193069458,-0.17973540723323822
1772701749373767000,8.991766845703125,-0.015965117141604424,1.201008677482605,0.018606441095471382
1772701749383816000,9.00181591796875,-0.09388335049152374,1.0566141605377197,0.08593807369470596
1772701749393864000,9.011864013671875,-0.2168010175228119,0.6257233023643494,0.057085391134023666
1772701749403913000,9.021912841796874,-0.32843220233917236,0.045932870358228683,-0.010848918929696083
1772701749413961000,9.0319609375,-0.40048083662986755,-0.455102801322937,-0.03242851421236992
1772701749424009700,9.042009765625,-0.41806674003601074,-0.5728480815887451,0.06683708727359772
1772701749434058000,9.05205810546875,-0.4316699206829071,-0.4119555950164795,0.21009758114814758
1772701749444106000,9.06210595703125,-0.4473564624786377,-0.2306521236896515,0.3345779776573181
1772701749454155000,9.072155029296875,-0.4443782567977905,-0.08006500452756882,0.4313277006149292
1772701749464203000,9.082203125,-0.4411126971244812,-0.028630578890442848,0.44594499468803406
1772701749474252000,9.092251953125,-0.3971971571445465,0.03569860756397247,0.36700356006622314
1772701749484299800,9.1022998046875,-0.34234216809272766,0.16520093381404877,0.18998165428638458
1772701749494347800,9.11234765625,-0.3293624520301819,0.3602793514728546,-0.020611003041267395
1772701749504396800,9.122396728515625,-0.36167803406715393,0.5808074474334717,-0.24723881483078003
1772701749514444800,9.13244482421875,-0.4059879779815674,0.7415606379508972,-0.5102089047431946
1772701749524493800,9.142493896484375,-0.42053017020225525,0.7869561314582825,-0.7187195420265198
1772701749534541800,9.152541748046875,-0.40309152007102966,0.7202295660972595,-0.8361164331436157
1772701749544590000,9.162590087890624,-0.3384430408477783,0.589144766330719,-0.8594436049461365
1772701749554638800,9.172638916015625,-0.2524370551109314,0.43794113397598267,-0.8053655028343201
1772701749564687000,9.18268701171875,-0.14844965934753418,0.3133701682090759,-0.6912724375724792
1772701749574736000,9.19273583984375,-0.04972361400723457,0.2378178834915161,-0.5391468405723572
1772701749584784100,9.2027841796875,0.0350826196372509,0.1728801727294922,-0.3788841962814331
1772701749594833000,9.2128330078125,0.08550797402858734,0.15163107216358185,-0.21761249005794525
1772701749604881000,9.222880859375,0.10976910591125488,0.18367022275924683,-0.07309392094612122
1772701749614929000,9.232928955078124,0.12645433843135834,0.2320132553577423,0.031033549457788467
1772701749624978000,9.24297802734375,0.14093688130378723,0.2197778970003128,0.12708711624145508
1772701749635026000,9.25302587890625,0.15427878499031067,0.15652702748775482,0.21604813635349274
1772701749645075000,9.263074951171875,0.15950949490070343,0.08602409809827805,0.3102782368659973
1772701749655123000,9.273123046875,0.1592080295085907,0.06405781209468842,0.394624799489975
1772701749665171000,9.2831708984375,0.15121455490589142,0.031493477523326874,0.4403158724308014
1772701749675220000,9.293219970703126,0.12008912116289139,-0.06428071856498718,0.44595324993133545
1772701749685268000,9.30326806640625,0.07868123054504395,-0.16447363793849945,0.39005616307258606
1772701749695317000,9.31331689453125,0.03273637592792511,-0.1678052395582199,0.3201492428779602
1772701749705365000,9.323364990234374,-0.008501875214278698,-0.10875124484300613,0.2388477325439453
1772701749715413800,9.333413818359375,-0.03729597106575966,-0.037633929401636124,0.1503133326768875
1772701749725462000,9.3434619140625,-0.04963093623518944,0.041183922439813614,0.06983207911252975
1772701749735509800,9.353509765625,-0.057194579392671585,0.09180182218551636,0.016211992129683495
1772701749745559000,9.36355908203125,-0.05782388523221016,0.09904109686613083,0.011439608410000801
1772701749755606800,9.373606689453124,-0.059605807065963745,0.0802767276763916,0.05542943626642227
1772701749765656000,9.383656005859375,-0.05586246773600578,0.03387993574142456,0.12993456423282623
1772701749775703800,9.393703857421874,-0.054178815335035324,-0.017892980948090553,0.22644512355327606
1772701749785751800,9.403751708984375,-0.03450045362114906,-0.06675159931182861,0.31919795274734497
1772701749795800800,9.41380078125,0.007754059974104166,-0.1097123846411705,0.4025793969631195
1772701749805848800,9.423848876953125,0.05085039883852005,-0.12808819115161896,0.450248122215271
1772701749815897900,9.43389794921875,0.08313137292861938,-0.09583225101232529,0.4768456518650055
1772701749825945900,9.44394580078125,0.08910590410232544,-0.055798016488552094,0.480617493391037
1772701749835994000,9.453994140625,0.06636624038219452,-0.025429992005228996,0.45933642983436584
1772701749846043000,9.46404296875,0.041129060089588165,-0.004501008428633213,0.4286560118198395
1772701749856091100,9.474091064453125,0.03181518614292145,-0.002091380301862955,0.39908427000045776
1772701749866140000,9.484139892578124,0.02400919608771801,-0.011629492044448853,0.37597283720970154
1772701749876188000,9.49418798828125,0.026224147528409958,-0.026141855865716934,0.3539660573005676
1772701749886237000,9.50423681640625,0.03044712170958519,-0.028442027047276497,0.3425157964229584
1772701749896285000,9.514284912109375,0.032218389213085175,-0.020749753341078758,0.3191114068031311
1772701749906333000,9.5243330078125,0.028837773948907852,-0.017601097002625465,0.2842695415019989
1772701749916382000,9.5343818359375,0.02028157003223896,-0.013999438844621181,0.254042387008667
1772701749926430000,9.544429931640625,0.009272061288356781,0.017708955332636833,0.23810391128063202
1772701749936479000,9.55447900390625,0.010090450756251812,-0.0018250643042847514,0.2542879283428192
1772701749946527000,9.56452685546875,0.02786465361714363,-0.48748844861984253,0.45604902505874634
1772701749956575700,9.57457568359375,0.03608423471450806,-0.6454788446426392,0.4373086392879486
1772701749966624000,9.5846240234375,0.017009077593684196,-0.6201136112213135,0.387478232383728
1772701749976672000,9.594672119140625,0.0016972325975075364,-0.49886786937713623,0.2400434911251068
1772701749986720800,9.604720703125,-0.02250557579100132,-0.24899303913116455,0.13209491968154907
1772701749996769000,9.61476904296875,-0.0439930222928524,-0.004766792058944702,0.04141242057085037
1772701750006817800,9.62481787109375,-0.052446428686380386,0.19246478378772736,-0.010085124522447586
1772701750016866000,9.634865966796875,-0.049127597361803055,0.2998064160346985,-0.012371981516480446
1772701750026913800,9.644913818359376,-0.05570187792181969,0.27195242047309875,0.024087492376565933
1772701750036963000,9.654963134765625,-0.057611096650362015,0.11782730370759964,0.09202180057764053
1772701750047010800,9.6650107421875,-0.08019790053367615,-0.08392712473869324,0.11538917571306229
