time,seconds_elapsed,z,y,x
1772701740453318000,0.07131787109375,0.006444630213081837,-0.02893177792429924,-0.06562665849924088
1772701740463366000,0.081365966796875,-0.0010820890311151743,-0.0169997438788414,-0.03660993278026581
1772701740473414000,0.091413818359375,0.006320433225482702,-0.011501647531986237,-0.00020771753042936325
1772701740483463000,0.101462890625,0.00539717823266983,-0.012694749049842358,0.015153668820858002
1772701740493511000,0.111510986328125,-0.010538911446928978,-0.002185116522014141,0.020948441699147224
1772701740503559000,0.121558837890625,-0.033338647335767746,0.016579091548919678,0.01590963639318943
1772701740513608000,0.13160791015625,-0.04533059522509575,0.034979935735464096,0.011166281066834927
1772701740523656000,0.141656005859375,-0.04998060315847397,0.04746144637465477,-0.0030630636028945446
1772701740533703700,0.15170361328125,-0.04994544759392738,0.052422646433115005,-0.007480448577553034
1772701740543753000,0.1617529296875,-0.04945361614227295,0.04577868431806564,-0.003680479247123003
1772701740553800700,0.17180078125,-0.047870099544525146,0.05147598311305046,0.005177726969122887
1772701740563849000,0.181848876953125,-0.04512540623545647,0.051904574036598206,0.011676820926368237
1772701740573897700,0.191897705078125,-0.04657922685146332,0.04475957900285721,0.0220173429697752
1772701740583946000,0.201946044921875,-0.05824298784136772,0.04555044695734978,0.02943062037229538
1772701740593994000,0.211993896484375,-0.06872972100973129,0.04332484304904938,0.030728910118341446
1772701740604043000,0.22204296875,-0.08710884302854538,0.04707644134759903,0.03335769847035408
1772701740614091000,0.232091064453125,-0.09262185543775558,0.04492434114217758,0.046150993555784225
1772701740624138800,0.242138671875,-0.09324240684509277,0.048878610134124756,0.04880136623978615
1772701740634188000,0.25218798828125,-0.0897214412689209,0.04978355020284653,0.051909007132053375
1772701740644235800,0.26223583984375,-0.08522921800613403,0.052171073853969574,0.05795411765575409
1772701740654284000,0.272283935546875,-0.0822475403547287,0.06988881528377533,0.06741020828485489
1772701740664332800,0.282332763671875,-0.08937127143144608,0.09170304238796234,0.06148999556899071
1772701740674381000,0.292381103515625,-0.09405683726072311,0.10360391438007355,0.057513631880283356
1772701740684429800,0.302429931640625,-0.09679286181926727,0.1130499541759491,0.06273361295461655
1772701740694477800,0.312477783203125,-0.09308068454265594,0.12112466245889664,0.07275189459323883
1772701740704525800,0.32252587890625,-0.09320483356714249,0.12186884135007858,0.07070116698741913
1772701740714574800,0.332574951171875,-0.08224326372146606,0.12666013836860657,0.07560830563306808
1772701740724622800,0.342622802734375,-0.07066648453474045,0.1391763687133789,0.08032858371734619
1772701740734670800,0.3526708984375,-0.05467233434319496,0.16103479266166687,0.0837307721376419
1772701740744720000,0.362719970703125,-0.03921402990818024,0.16985028982162476,0.0871271938085556
1772701740754768000,0.372767822265625,-0.028660986572504044,0.1729387640953064,0.09408336877822876
1772701740764816000,0.38281591796875,-0.02507295273244381,0.19369561970233917,0.083282470703125
1772701740774865000,0.392864990234375,-0.017841404303908348,0.22464342415332794,0.07881208509206772
1772701740784913000,0.402912841796875,-0.0027732281014323235,0.268595814704895,0.08093800395727158
1772701740794961000,0.4129609375,0.026663223281502724,0.3060520887374878,0.0978299006819725
1772701740805010000,0.423010009765625,0.05433148145675659,0.32339468598365784,0.12472613155841827
1772701740815058000,0.433057861328125,0.07739446312189102,0.32236164808273315,0.14207981526851654
1772701740825106000,0.44310595703125,0.09338410198688507,0.32812783122062683,0.16279824078083038
1772701740835155000,0.453155029296875,0.09956236928701401,0.3281283676624298,0.1678827404975891
1772701740845203000,0.463202880859375,0.09800291806459427,0.3370361030101776,0.15952521562576294
1772701740855251000,0.4732509765625,0.09028561413288116,0.3499836027622223,0.14604243636131287
1772701740865300000,0.483300048828125,0.07511404901742935,0.366486132144928,0.12304390221834183
1772701740875348000,0.493347900390625,0.08303987979888916,0.4352516233921051,0.1069517508149147
1772701740885396000,0.50339599609375,0.10259385406970978,0.48945876955986023,0.10765287280082703
1772701740895445000,0.513445068359375,0.11616532504558563,0.4798077344894409,0.13378514349460602
1772701740905493000,0.523492919921875,0.11983843147754669,0.4196275770664215,0.15963369607925415
1772701740915541800,0.533541748046875,0.11888714879751205,0.3392072916030884,0.19639970362186432
1772701740925589800,0.54358984375,0.10392256826162338,0.2727312445640564,0.23053805530071259
1772701740935638000,0.553637939453125,0.08350943773984909,0.18287912011146545,0.2648603320121765
1772701740945686800,0.563686767578125,0.04685763269662857,0.12192504107952118,0.2892358899116516
1772701740955735000,0.573735107421875,0.01285545714199543,0.10986839234828949,0.30889320373535156
1772701740965782800,0.58378271484375,-0.010239709168672562,0.1714148223400116,0.3218423128128052
1772701740975832000,0.59383203125,-0.03696373105049133,0.2585601210594177,0.3183772563934326
1772701740985879800,0.6038798828125,-0.0728190541267395,0.370986670255661,0.30289748311042786
1772701740995927800,0.613927734375,-0.10449256002902985,0.48849865794181824,0.2813221514225006
1772701741005976800,0.623976806640625,-0.13702213764190674,0.5452185869216919,0.26534247398376465
1772701741016024800,0.63402490234375,-0.1829928308725357,0.5466383099555969,0.2674410343170166
1772701741026073000,0.644072998046875,-0.2167278528213501,0.48145169019699097,0.2509828805923462
1772701741036121900,0.654121826171875,-0.24962347745895386,0.4383910298347473,0.2164190411567688
1772701741046170000,0.664170166015625,-0.28242072463035583,0.44786420464515686,0.17756670713424683
1772701741056217900,0.6742177734375,-0.3073465824127197,0.4661737084388733,0.14786288142204285
1772701741066267100,0.68426708984375,-0.3255864381790161,0.493630588054657,0.12578022480010986
1772701741076315000,0.69431494140625,-0.3224761188030243,0.4775858223438263,0.11195335537195206
1772701741086364000,0.704364013671875,-0.3169558346271515,0.4047349691390991,0.126620814204216
1772701741096412000,0.714411865234375,-0.30230873823165894,0.27704039216041565,0.16102911531925201
1772701741106460000,0.7244599609375,-0.29659566283226013,0.09015657007694244,0.1888013333082199
1772701741116509000,0.734509033203125,-0.29107120633125305,-0.12975874543190002,0.20667114853858948
1772701741126557000,0.744556884765625,-0.2733568847179413,-0.3437497913837433,0.2713927924633026
1772701741136605000,0.75460498046875,-0.2173716425895691,-0.516333818435669,0.43621689081192017
1772701741146654000,0.764654052734375,-0.13804002106189728,-0.6748349070549011,0.7011662125587463
1772701741156701700,0.77470166015625,-0.02395046129822731,-0.7448635697364807,0.9630752801895142
1772701741166750000,0.78475,0.1277671456336975,-0.7447541952133179,1.1335102319717407
1772701741176798700,0.794798828125,0.30527591705322266,-0.8405941724777222,1.1810109615325928
1772701741186847000,0.804846923828125,0.46137869358062744,-1.0285449028015137,1.08155357837677
1772701741196895000,0.81489501953125,0.5477950572967529,-1.1295878887176514,0.8872149586677551
1772701741206943500,0.824943603515625,0.5594034790992737,-1.0871669054031372,0.6095899343490601
1772701741216991500,0.834991455078125,0.5088872909545898,-0.9279137849807739,0.3214343190193176
1772701741227039500,0.84503955078125,0.4223284423351288,-0.7981604337692261,0.0716828852891922
1772701741237088500,0.855088623046875,0.334632933139801,-0.7713975310325623,-0.180080384016037
1772701741247136500,0.865136474609375,0.2916583716869354,-0.8235122561454773,-0.4332062900066376
1772701741257185500,0.875185546875,0.2825961410999298,-0.735438346862793,-0.6182965040206909
1772701741267233500,0.885233642578125,0.3017506003379822,-0.5169132947921753,-0.6694934964179993
1772701741277281500,0.895281494140625,0.316180944442749,-0.2590886950492859,-0.5676480531692505
1772701741287330600,0.90533056640625,0.3026668429374695,-0.028208451345562935,-0.3338261544704437
1772701741297378600,0.915378662109375,0.2750735878944397,0.06266845762729645,-0.008602004498243332
1772701741307426600,0.925426513671875,0.22759979963302612,-0.021924104541540146,0.26789820194244385
1772701741317475600,0.9354755859375,0.19449937343597412,-0.33894386887550354,0.4418199360370636
1772701741327523600,0.945523681640625,0.17361384630203247,-0.620596170425415,0.5875128507614136
1772701741337571600,0.955571533203125,0.17395126819610596,-0.7228615880012512,0.7148119211196899
1772701741347620600,0.96562060546875,0.18822407722473145,-0.7779501676559448,0.7312473654747009
1772701741357668600,0.975668701171875,0.16322019696235657,-0.8581360578536987,0.6388967037200928
1772701741367717600,0.985717529296875,0.1601005345582962,-0.8891531229019165,0.4669097363948822
1772701741377765600,0.995765625,0.17502754926681519,-0.898679792881012,0.246914803981781
1772701741387813600,1.005813720703125,0.16727276146411896,-0.8564342856407166,0.021449189633131027
1772701741397862400,1.0158623046875,0.1177763119339943,-0.7625110149383545,-0.16300374269485474
1772701741407910700,1.02591064453125,0.046842221170663834,-0.6225682497024536,-0.27391719818115234
1772701741417958400,1.03595849609375,-0.0039754221215844154,-0.3929143249988556,-0.29369890689849854
1772701741428007700,1.046007568359375,-0.031890686601400375,-0.12406884133815765,-0.24988847970962524
1772701741438055400,1.056055419921875,-0.0511847585439682,0.0979333370923996,-0.16619811952114105
1772701741448103400,1.066103515625,-0.043040577322244644,0.23272232711315155,-0.090606689453125
1772701741458152400,1.07615234375,-0.014539160765707493,0.2750231623649597,-0.03409920632839203
1772701741468200400,1.086200439453125,0.051557909697294235,0.24982841312885284,0.016882138326764107
1772701741478248700,1.096248779296875,0.12341239303350449,0.15941381454467773,0.05025767162442207
1772701741488297500,1.10629736328125,0.18056336045265198,0.13487082719802856,0.046713896095752716
1772701741498345700,1.116345703125,0.2299700528383255,0.184766486287117,0.028880039229989052
1772701741508394500,1.12639453125,0.2810938358306885,0.2515658736228943,0.0007838578312657773
1772701741518442800,1.13644287109375,0.3317386507987976,0.28953802585601807,-0.014281378127634525
1772701741528490500,1.146490478515625,0.3719673454761505,0.3295365571975708,-0.019576802849769592
1772701741538539800,1.156539794921875,0.3919444978237152,0.39497068524360657,-0.03153280168771744
1772701741548587500,1.16658740234375,0.4028119742870331,0.4622887670993805,-0.03945491090416908
1772701741558635500,1.176635498046875,0.4078035354614258,0.46182510256767273,-0.02385491132736206
1772701741568684500,1.1866845703125,0.42158472537994385,0.3869352340698242,0.011860393919050694
1772701741578732500,1.196732666015625,0.42690810561180115,0.2049446403980255,0.07765325903892517
1772701741588780500,1.206780517578125,0.4134293794631958,-0.059388160705566406,0.14437928795814514
1772701741598829600,1.21682958984375,0.36860892176628113,-0.2300347238779068,0.15931189060211182
1772701741608877300,1.226877197265625,0.32641837000846863,-0.2738335430622101,0.14907008409500122
1772701741618925600,1.236925537109375,0.3018035590648651,-0.24681469798088074,0.11923788487911224
1772701741628974300,1.246974365234375,0.293118953704834,-0.07393541187047958,0.09222207218408585
1772701741639022600,1.257022705078125,0.3286745548248291,0.2915174067020416,0.0721903070807457
1772701741649071400,1.2670712890625,0.39705920219421387,0.8749127388000488,0.05965045467019081
1772701741659119600,1.27711962890625,0.5011986494064331,1.6420453786849976,0.05303622782230377
1772701741669167600,1.287167724609375,0.6301281452178955,1.7977830171585083,-0.008158418349921703
1772701741679216600,1.297216552734375,0.7535797953605652,0.7291924953460693,-0.2536510229110718
1772701741689264600,1.3072646484375,0.6924160122871399,-0.0009358404204249382,-0.443101167678833
1772701741699312400,1.3173125,0.48704177141189575,-0.037469618022441864,-0.4540393054485321
1772701741709361700,1.327361572265625,0.5140537619590759,0.5359375476837158,-0.6624025702476501
1772701741719409400,1.337409423828125,0.7930268049240112,1.0311816930770874,-0.4505150616168976
1772701741729457700,1.347457763671875,0.7905588746070862,0.47997039556503296,-0.3364273011684418
1772701741739506400,1.35750634765625,0.6277055144309998,-0.03747248649597168,-0.14745202660560608
1772701741749554700,1.3675546875,0.535165548324585,-0.04377124831080437,0.11041954159736633
1772701741759602400,1.3776025390625,0.47947487235069275,0.24322402477264404,0.3385041058063507
1772701741769651700,1.387651611328125,0.47053563594818115,0.7439197897911072,0.4695351719856262
1772701741779699500,1.397699462890625,0.5321121215820312,1.2765272855758667,0.5091515779495239
1772701741789748500,1.40774853515625,0.6013051867485046,1.6372557878494263,0.501356840133667
1772701741799796500,1.41779638671875,0.6882730722427368,1.6140356063842773,0.40136954188346863
1772701741809844500,1.427844482421875,0.7259578704833984,1.2068111896514893,0.22923558950424194
1772701741819893500,1.4378935546875,0.702905535697937,0.5894612073898315,0.05379771813750267
1772701741829941500,1.44794140625,0.6563878655433655,-0.045102138072252274,-0.052378252148628235
1772701741839989500,1.457989501953125,0.5986231565475464,-0.5230058431625366,-0.11637534201145172
1772701741850038500,1.46803857421875,0.5011214017868042,-0.7550331950187683,-0.13575419783592224
1772701741860086500,1.47808642578125,0.3956722021102905,-0.776732861995697,-0.18378856778144836
1772701741870134500,1.488134521484375,0.3565427362918854,-0.6809032559394836,-0.2539352476596832
1772701741880183600,1.49818359375,0.3214052617549896,-0.5153840184211731,-0.33719658851623535
1772701741890231600,1.5082314453125,0.2259136587381363,-0.33627259731292725,-0.4244108498096466
1772701741900279600,1.518279541015625,0.06046478822827339,-0.1565995216369629,-0.5236634016036987
1772701741910328600,1.52832861328125,-0.14841695129871368,0.015975316986441612,-0.6496898531913757
1772701741920376600,1.53837646484375,-0.3936038017272949,0.3075863718986511,-0.7702890038490295
1772701741930425600,1.548425537109375,-0.6091198325157166,0.9575764536857605,-0.8010693788528442
1772701741940473600,1.5584736328125,-0.6879832148551941,1.6596068143844604,-0.8746602535247803
1772701741950521300,1.568521240234375,-0.6236909627914429,2.2689249515533447,-1.043545126914978
1772701741960570600,1.578570556640625,-0.43908435106277466,2.61106014251709,-1.2078198194503784
1772701741970618400,1.588618408203125,-0.25100311636924744,2.532397508621216,-1.2088439464569092
1772701741980666600,1.59866650390625,-0.11112908273935318,2.168907642364502,-1.1561671495437622
1772701741990715400,1.60871533203125,-0.15890175104141235,1.637477993965149,-1.0584288835525513
1772701742000763600,1.618763671875,-0.5487256646156311,1.0623621940612793,-0.9196068644523621
1772701742010811600,1.628811767578125,-0.7546780109405518,0.622973620891571,-0.7456382513046265
1772701742020860400,1.6388603515625,-0.6541959047317505,0.4064921736717224,-0.5782955884933472
1772701742030908700,1.64890869140625,-0.48703834414482117,0.38393521308898926,-0.539301872253418
1772701742040957400,1.65895751953125,-0.3364642858505249,0.5595081448554993,-0.5669723749160767
1772701742051005700,1.669005615234375,-0.23297551274299622,0.8515862822532654,-0.5683358907699585
1772701742061053400,1.679053466796875,-0.14767099916934967,1.085909366607666,-0.5287123322486877
1772701742071102700,1.689102783203125,-0.0951400026679039,0.975972592830658,-0.5053066611289978
1772701742081150500,1.699150390625,-0.04586060717701912,0.6646535992622375,-0.3840912878513336
1772701742091198500,1.709198486328125,0.025518745183944702,0.39715200662612915,-0.14801140129566193
1772701742101247500,1.71924755859375,0.09612207859754562,0.2325497567653656,0.12704068422317505
1772701742111295500,1.72929541015625,0.13062246143817902,0.1711050570011139,0.4029494822025299
1772701742121343500,1.739343505859375,0.11466612666845322,0.16797210276126862,0.6640966534614563
1772701742131392500,1.749392578125,0.04908427968621254,0.12181967496871948,0.8753190040588379
1772701742141440500,1.7594404296875,-0.07089405506849289,0.019268270581960678,1.0071423053741455
1772701742151488500,1.769488525390625,-0.19031351804733276,-0.08788788318634033,1.0478302240371704
1772701742161537500,1.77953759765625,-0.2940060794353485,-0.1806686967611313,1.016775131225586
1772701742171585500,1.78958544921875,-0.3559410572052002,-0.2918357849121094,0.9653125405311584
1772701742181634300,1.79963427734375,-0.38770031929016113,-0.4214499592781067,0.8837446570396423
1772701742191682600,1.8096826171875,-0.4505007266998291,-0.5086871981620789,0.7896882891654968
1772701742201731300,1.8197314453125,-0.5517551898956299,-0.5870416164398193,0.6878138780593872
1772701742211780000,1.829780029296875,-0.6550861597061157,-0.7829505205154419,0.6223307847976685
1772701742221828000,1.839828125,-0.7619582414627075,-0.9915242195129395,0.5545743703842163
1772701742231876000,1.8498759765625,-0.8793944120407104,-1.030113935470581,0.4691601097583771
1772701742241925000,1.859925048828125,-0.9554332494735718,-0.9058055877685547,0.3915947377681732
1772701742251973000,1.86997314453125,-0.9619234204292297,-0.9040516018867493,0.3898458480834961
1772701742262021000,1.880021240234375,-0.9434500932693481,-1.3077354431152344,0.4561076760292053
1772701742272070100,1.890070068359375,-0.902373731136322,-1.991977572441101,0.522280216217041
1772701742282118100,1.9001181640625,-0.813235878944397,-2.55214524269104,0.5811267495155334
1772701742292167200,1.910167236328125,-0.7117573618888855,-2.6233484745025635,0.6970974206924438
1772701742302215200,1.920215087890625,-0.6267200112342834,-2.1975088119506836,0.8555653691291809
1772701742312263200,1.93026318359375,-0.5889471769332886,-1.759943962097168,1.1174734830856323
1772701742322312200,1.940312255859375,-0.5376222133636475,-1.6083585023880005,1.5000451803207397
1772701742332360200,1.950360107421875,-0.4549630284309387,-1.7501198053359985,1.9603253602981567
1772701742342408200,1.960408203125,-0.3247813284397125,-1.9215757846832275,2.342555522918701
1772701742352457000,1.97045703125,-0.18897190690040588,-2.047624349594116,2.5525641441345215
1772701742362505200,1.980505126953125,-0.07161731272935867,-2.0965142250061035,2.530285358428955
1772701742372553200,1.99055322265625,0.008416064083576202,-1.986048698425293,2.3270883560180664
1772701742382602200,2.000602294921875,0.05712394788861275,-1.9049665927886963,2.0584001541137695
1772701742392650200,2.010650146484375,0.09454186260700226,-1.8148388862609863,1.776318073272705
1772701742402699300,2.02069921875,0.12577354907989502,-1.6411082744598389,1.4639471769332886
1772701742412747300,2.030747314453125,0.12841278314590454,-1.4175595045089722,1.0984244346618652
1772701742422795000,2.040794921875,0.11522667855024338,-1.254350185394287,0.726790726184845
1772701742432844300,2.05084423828125,0.08926992863416672,-1.1361654996871948,0.3442160487174988
1772701742442892000,2.06089208984375,0.06791936606168747,-0.938148558139801,-0.022962220013141632
1772701742452940300,2.070940185546875,0.0046010976657271385,-0.7435742020606995,-0.36174142360687256
1772701742462989000,2.080989013671875,-0.038474198430776596,-0.5493283271789551,-0.6177796125411987
1772701742473037300,2.091037353515625,-0.0812058374285698,-0.4208736717700958,-0.8000137209892273
1772701742483085000,2.1010849609375,-0.11823709309101105,-0.3439897894859314,-0.9191681146621704
1772701742493134300,2.11113427734375,-0.10819387435913086,-0.2797773480415344,-0.9517287611961365
1772701742503182000,2.12118212890625,-0.03976048529148102,-0.2129775434732437,-0.8915750980377197
1772701742513231400,2.1312314453125,0.08030300587415695,-0.15427957475185394,-0.7337306141853333
1772701742523279000,2.141279052734375,0.2154453694820404,-0.13870380818843842,-0.49482962489128113
1772701742533327000,2.1513271484375,0.33302953839302063,-0.10837120562791824,-0.2819881737232208
1772701742543376100,2.161376220703125,0.43359822034835815,-0.0034948578104376793,-0.1304444670677185
1772701742553424100,2.171424072265625,0.5082594156265259,0.1080879494547844,-0.024109063670039177
1772701742563472400,2.181472412109375,0.5487330555915833,0.17384324967861176,0.051365453749895096
1772701742573521200,2.191521240234375,0.5556210875511169,0.24498958885669708,0.10488060861825943
1772701742583569200,2.201569091796875,0.5417758226394653,0.323024183511734,0.15376532077789307
1772701742593617200,2.2116171875,0.5200496912002563,0.36996254324913025,0.20752833783626556
1772701742603666200,2.221666259765625,0.47832170128822327,0.4153670370578766,0.254364550113678
1772701742613714200,2.231714111328125,0.41493895649909973,0.4411158263683319,0.2667714059352875
1772701742623763200,2.24176318359375,0.3352142870426178,0.4786466956138611,0.23072661459445953
1772701742633811200,2.251811279296875,0.25648486614227295,0.5034612417221069,0.1705322414636612
1772701742643859200,2.261859130859375,0.17362754046916962,0.5070466995239258,0.07213535904884338
1772701742653908200,2.271908203125,0.09107425063848495,0.4441547095775604,-0.06639668345451355
1772701742663956200,2.281956298828125,0.005152684636414051,0.4708406627178192,-0.22998881340026855
1772701742674004000,2.29200390625,-0.07371990382671356,0.5755431056022644,-0.3965064287185669
1772701742684053200,2.30205322265625,-0.13697077333927155,0.7043458223342896,-0.5388933420181274
1772701742694101000,2.31210107421875,-0.18844285607337952,0.7806596755981445,-0.6384552121162415
1772701742704149200,2.322149169921875,-0.21995124220848083,0.8422141075134277,-0.6859489679336548
1772701742714198000,2.332197998046875,-0.21444831788539886,0.9248951077461243,-0.6713303327560425
1772701742724246300,2.342246337890625,-0.16846030950546265,1.1004520654678345,-0.6140049695968628
1772701742734295000,2.352294921875,-0.006293338257819414,1.4784618616104126,-0.49281176924705505
1772701742744343300,2.36234326171875,0.28623491525650024,2.139451742172241,-0.3067619800567627
1772701742754391300,2.372391357421875,0.5806382894515991,2.2751243114471436,-0.25772029161453247
1772701742764440000,2.382440185546875,1.2272833585739136,1.214709997177124,0.10797750949859619
1772701742774488300,2.39248828125,1.5589298009872437,0.42062315344810486,0.40567347407341003
1772701742784536000,2.4025361328125,0.8622182011604309,0.8881142139434814,0.1648227721452713
1772701742794585300,2.41258544921875,0.8485412001609802,2.3531382083892822,-0.12523725628852844
1772701742804633000,2.422633056640625,1.3507410287857056,1.3207032680511475,-0.9067871570587158
1772701742814681000,2.43268115234375,1.5972087383270264,-0.4825133979320526,-1.6558715105056763
1772701742824730000,2.442730224609375,1.762371301651001,-0.6976291537284851,-2.046276569366455
1772701742834778000,2.452778076171875,1.5798815488815308,-0.13141986727714539,-2.182851552963257
1772701742844827100,2.4628271484375,1.14972984790802,0.655893087387085,-1.945751667022705
1772701742854875100,2.472875244140625,0.6137224435806274,1.2467429637908936,-1.4967503547668457
1772701742864923100,2.482923095703125,0.09469470381736755,1.6118232011795044,-0.8745152950286865
1772701742874972200,2.49297216796875,-0.26428335905075073,1.8451271057128906,-0.2039625495672226
1772701742885020200,2.503020263671875,-0.5555370450019836,1.4925698041915894,0.4016943573951721
1772701742895068200,2.513068115234375,-0.7307091951370239,0.8734958171844482,0.8304343819618225
1772701742905117200,2.5231171875,-0.767615020275116,0.05883511155843735,0.9781234860420227
1772701742915165200,2.533165283203125,-0.6749096512794495,-0.9213025569915771,0.9030435085296631
1772701742925213200,2.543213134765625,-0.49850979447364807,-1.425086259841919,0.8996815085411072
1772701742935262200,2.55326220703125,-0.3231629729270935,-1.3644829988479614,0.9088878631591797
1772701742945310200,2.563310302734375,-0.21685729920864105,-1.247782826423645,0.7785543203353882
1772701742955359200,2.573359130859375,-0.10266145318746567,-0.9483413100242615,0.624992847442627
1772701742965407200,2.5834072265625,-0.030063949525356293,-0.4314917325973511,0.5051199793815613
1772701742975455000,2.593455078125,0.009167388081550598,0.12453826516866684,0.44530102610588074
1772701742985504300,2.603504150390625,0.043870508670806885,0.630071759223938,0.4069376587867737
1772701742995552000,2.613552001953125,0.0759483054280281,1.035210371017456,0.2817729115486145
1772701743005600300,2.623600341796875,0.13036440312862396,1.4594820737838745,0.1743393987417221
1772701743015649000,2.63364892578125,0.17554935812950134,1.8177770376205444,0.07694626599550247
1772701743025697300,2.643697265625,0.12575116753578186,1.811974287033081,-0.07308158278465271
1772701743035746000,2.65374609375,-0.06813878566026688,1.218867301940918,-0.35910019278526306
1772701743045794300,2.663794189453125,-0.2888503968715668,0.19894368946552277,-0.817914605140686
1772701743055842000,2.673842041015625,-0.39173492789268494,-0.4948475956916809,-1.1215016841888428
1772701743065891300,2.683891357421875,-0.4228678345680237,-0.47414419054985046,-1.17545485496521
1772701743075939000,2.69393896484375,-0.4574131667613983,0.05903616175055504,-1.1458194255828857
1772701743085987000,2.703987060546875,-0.47417643666267395,0.9960115551948547,-1.0287410020828247
1772701743096036000,2.7140361328125,-0.4115091860294342,1.8133060932159424,-0.8309699892997742
1772701743106084000,2.724083984375,-0.37584784626960754,1.9376959800720215,-0.6901103258132935
1772701743116132400,2.73413232421875,-0.3303626775741577,1.6741607189178467,-0.4594527781009674
1772701743126181000,2.74418115234375,-0.3091388940811157,1.4369747638702393,-0.2072858065366745
1772701743136229400,2.7542294921875,-0.276257187128067,1.0763019323349,0.03838726505637169
1772701743146278100,2.764278076171875,-0.25319206714630127,0.6061738133430481,0.2260357290506363
1772701743156326100,2.774326171875,-0.2366926670074463,0.1747516393661499,0.33022063970565796
1772701743166374100,2.7843740234375,-0.20704929530620575,-0.14009204506874084,0.3745633363723755
1772701743176423200,2.794423095703125,-0.17949804663658142,-0.354737251996994,0.37822914123535156
1772701743186471200,2.80447119140625,-0.1855711191892624,-0.18851259350776672,0.34950587153434753
1772701743196519200,2.814519287109375,-0.20527444779872894,0.15522901713848114,0.41062065958976746
1772701743206567700,2.824567626953125,-0.23903188109397888,0.2339209020137787,0.37852743268013
1772701743216615700,2.83461572265625,-0.26746702194213867,0.16995924711227417,0.30269762873649597
1772701743226664700,2.844664794921875,-0.28571605682373047,0.15504421293735504,0.2085370570421219
1772701743236712700,2.854712646484375,-0.36345231533050537,0.1784038245677948,0.10445699095726013
1772701743246761000,2.864760986328125,-0.2836530804634094,0.14901822805404663,0.008082515560090542
1772701743256809700,2.874809814453125,-0.43995463848114014,0.09387646615505219,-0.06986180692911148
1772701743266858000,2.88485791015625,-0.37336015701293945,0.010663071647286415,-0.09660820662975311
1772701743276905700,2.89490576171875,-0.5558127760887146,-0.11635106801986694,-0.08350571990013123
1772701743286954800,2.904954833984375,-0.465552419424057,-0.22932209074497223,-0.07304402440786362
1772701743297002800,2.915002685546875,-0.6465988755226135,-0.29150596261024475,-0.03940128907561302
1772701743307050800,2.92505078125,-0.5745068788528442,-0.2791054844856262,-0.009667360223829746
1772701743317099800,2.935099853515625,-0.7601813673973083,-0.30082762241363525,0.06261411309242249
1772701743327147800,2.945147705078125,-0.658972978591919,-0.4162602126598358,0.14199228584766388
1772701743337196800,2.95519677734375,-0.8431336879730225,-0.7035632729530334,0.12331385165452957
1772701743347244800,2.965244873046875,-0.679762065410614,-1.1259443759918213,-0.12358488142490387
1772701743357292800,2.975292724609375,-0.7672662734985352,-1.598046064376831,-0.5204805731773376
1772701743367341800,2.985341796875,-0.5440728664398193,-2.107365131378174,-0.820682168006897
1772701743377389600,2.9953896484375,-0.5673443078994751,-2.491342067718506,-0.8707125186920166
1772701743387437800,3.005437744140625,-0.25141963362693787,-2.3285107612609863,-0.7209309935569763
1772701743397486600,3.015486572265625,-0.3172653019428253,-1.7681537866592407,-0.354226678609848
1772701743407534800,3.025534912109375,-0.14296887814998627,-1.1871501207351685,0.12544190883636475
1772701743417583600,3.03558349609375,-0.2584514617919922,-1.075018048286438,0.5420128703117371
1772701743427631900,3.0456318359375,-0.07259665429592133,-1.1757904291152954,0.8466699719429016
1772701743437679900,3.055679931640625,-0.23639057576656342,-1.2497811317443848,1.022478699684143
1772701743447729000,3.06572900390625,-0.07923026382923126,-1.2198104858398438,1.0695593357086182
1772701743457777000,3.07577685546875,-0.21131911873817444,-1.2528454065322876,0.9527144432067871
1772701743467824600,3.08582470703125,-0.05093078315258026,-1.3070931434631348,0.7668634057044983
1772701743477874000,3.0958740234375,-0.2506202459335327,-1.3126380443572998,0.589887261390686
1772701743487921700,3.105921630859375,-0.21294718980789185,-1.1879682540893555,0.4648531675338745
1772701743497971000,3.115970947265625,-0.47223371267318726,-1.0029305219650269,0.4068742096424103
1772701743508018700,3.126018798828125,-0.4211135506629944,-0.7446824908256531,0.3873750567436218
1772701743518067000,3.13606689453125,-0.6479395627975464,-0.6106119155883789,0.3664902150630951
1772701743528115700,3.14611572265625,-0.5569007396697998,-0.5822460651397705,0.3491455912590027
1772701743538164000,3.1561640625,-0.7563616037368774,-0.6242505311965942,0.2893224358558655
1772701743548211700,3.166211669921875,-0.6444060206413269,-0.6286476850509644,0.21445992588996887
1772701743558260700,3.1762607421875,-0.8142164349555969,-0.5378466844558716,0.12747718393802643
1772701743568308700,3.186308837890625,-0.6472710967063904,-0.3222081959247589,0.04584197327494621
1772701743578357800,3.196357666015625,-0.6499859094619751,-0.15177135169506073,-0.0037879839073866606
1772701743588405800,3.20640576171875,-0.32798686623573303,0.061195243149995804,-0.0013815516140311956
1772701743598453800,3.216453857421875,-0.20421850681304932,0.2863498330116272,0.06715241074562073
1772701743608502800,3.226502685546875,0.09763829410076141,0.3894437551498413,0.23818247020244598
1772701743618550800,3.23655078125,0.21893344819545746,0.304660439491272,0.47153693437576294
1772701743628598800,3.246598876953125,0.39001521468162537,0.04337772727012634,0.6436799168586731
1772701743638647800,3.256647705078125,0.45237603783607483,-0.252010703086853,0.7225552201271057
1772701743648695800,3.26669580078125,0.4888429641723633,-0.35919973254203796,0.751150369644165
1772701743658744800,3.276744873046875,0.49491599202156067,-0.36807164549827576,0.7247418165206909
1772701743668792800,3.286792724609375,0.4931636452674866,-0.3470745086669922,0.6555598378181458
1772701743678840800,3.2968408203125,0.48368972539901733,-0.304570734500885,0.5303571820259094
1772701743688889900,3.306889892578125,0.4613484740257263,-0.23296180367469788,0.3737577199935913
1772701743698937900,3.316937744140625,0.4232880473136902,-0.14237000048160553,0.19094537198543549
1772701743708985900,3.32698583984375,0.37376868724823,-0.0483311228454113,0.004771498031914234
1772701743719034600,3.33703466796875,0.3221311867237091,0.05600432679057121,-0.17775852978229523
1772701743729083000,3.347082763671875,0.2737516462802887,0.17826420068740845,-0.3460884094238281
1772701743739131600,3.357131591796875,0.22812308371067047,0.3114665150642395,-0.465611070394516
1772701743749180000,3.367179931640625,0.1999574899673462,0.4379757046699524,-0.5348556637763977
1772701743759227600,3.3772275390625,0.17055417597293854,0.5359337329864502,-0.560287594795227
1772701743769277000,3.38727685546875,0.14727628231048584,0.5425906181335449,-0.5398129820823669
1772701743779324700,3.39732470703125,0.1300341784954071,0.4024984538555145,-0.47044214606285095
1772701743789372700,3.40737255859375,0.12279624491930008,0.20846158266067505,-0.3656049370765686
1772701743799421700,3.417421630859375,0.1337214857339859,0.0665631890296936,-0.2450820803642273
1772701743809469700,3.4274697265625,0.16494892537593842,-0.0417688749730587,-0.1032988429069519
1772701743819518700,3.437518798828125,0.20520858466625214,-0.05978007987141609,0.049816835671663284
1772701743829566700,3.447566650390625,0.23692816495895386,0.0564168319106102,0.21914780139923096
1772701743839615000,3.457614990234375,0.20758570730686188,0.2566302716732025,0.35249850153923035
1772701743849663700,3.467663818359375,0.1654856652021408,0.6665623784065247,0.42469120025634766
1772701743859712000,3.4777119140625,0.2415187805891037,1.3426475524902344,0.4158552885055542
1772701743869760800,3.4877607421875,0.24513162672519684,1.60434889793396,0.4756683111190796
1772701743879809000,3.49780908203125,0.4492347836494446,0.5917236804962158,0.3198840022087097
1772701743889856800,3.507856689453125,0.5527513027191162,0.07069913297891617,-0.16663797199726105
1772701743899905800,3.51790576171875,0.4244127869606018,1.0406920909881592,-0.4767513871192932
1772701743909953800,3.527953857421875,0.32381001114845276,1.1348973512649536,-0.6994704604148865
1772701743920001800,3.538001708984375,0.22944535315036774,0.6591563820838928,-0.778307318687439
1772701743930050800,3.54805078125,0.20038335025310516,0.4767266511917114,-0.653531014919281
1772701743940098800,3.558098876953125,0.23493269085884094,0.6336337327957153,-0.32313641905784607
1772701743950147800,3.56814794921875,0.29031631350517273,0.72145015001297,0.03494849056005478
1772701743960195800,3.57819580078125,0.32036906480789185,0.7627760171890259,0.30035343766212463
1772701743970243600,3.58824365234375,0.34262457489967346,0.7613989114761353,0.4456797242164612
1772701743980292900,3.59829296875,0.3643640875816345,0.7208359837532043,0.49550288915634155
1772701743990340600,3.608340576171875,0.40751394629478455,0.643311619758606,0.46220698952674866
1772701744000388900,3.618388916015625,0.4122891128063202,0.5568029284477234,0.3370387554168701
1772701744010437600,3.628437744140625,0.3708271384239197,0.46545785665512085,0.16420093178749084
1772701744020486000,3.63848583984375,0.31025323271751404,0.3069458305835724,-0.001970282755792141
1772701744030534700,3.64853466796875,0.23130860924720764,0.11691409349441528,-0.1717263013124466
1772701744040583000,3.6585830078125,0.16790758073329926,-0.08026255667209625,-0.30699899792671204
1772701744050631000,3.668630859375,0.15007026493549347,-0.3127754330635071,-0.37158599495887756
1772701744060679700,3.6786796875,0.15616905689239502,-0.5109589695930481,-0.3724079132080078
1772701744070728000,3.68872802734375,0.19876472651958466,-0.6009567379951477,-0.3296641707420349
1772701744080775700,3.698775634765625,0.23552095890045166,-0.5016077160835266,-0.290699303150177
1772701744090825000,3.708824951171875,0.24322202801704407,-0.27552133798599243,-0.3030577003955841
1772701744100872700,3.718872802734375,0.21716244518756866,0.02082616463303566,-0.3588666617870331
1772701744110922000,3.728921875,0.1461481899023056,0.3430257737636566,-0.4092981517314911
1772701744120969700,3.7389697265625,0.09611139446496964,0.6644017696380615,-0.41421282291412354
1772701744131017700,3.749017822265625,0.09896710515022278,0.902488112449646,-0.36937347054481506
1772701744141066800,3.759066650390625,0.12594552338123322,0.9925336837768555,-0.28882449865341187
1772701744151114800,3.76911474609375,0.14804551005363464,1.012232780456543,-0.1796330213546753
1772701744161162800,3.779162841796875,0.12466228753328323,0.9848574995994568,-0.057259634137153625
1772701744171211800,3.789211669921875,0.04900587350130081,0.8734081983566284,0.0490950345993042
1772701744181259800,3.799259765625,-0.05562432482838631,0.6694046854972839,0.12265367060899734
1772701744191308800,3.809308837890625,-0.16025114059448242,0.4418623447418213,0.16688930988311768
1772701744201356800,3.819356689453125,-0.24494916200637817,0.3073204457759857,0.19297575950622559
1772701744211404300,3.829404296875,-0.31778183579444885,0.40279266238212585,0.20722420513629913
1772701744221453300,3.839453369140625,-0.35681384801864624,0.7172483801841736,0.20782645046710968
1772701744231501300,3.849501220703125,-0.35729163885116577,1.044782042503357,0.18150776624679565
1772701744241549600,3.859549560546875,-0.3338829576969147,1.2791454792022705,0.179611936211586
1772701744251598300,3.869598388671875,-0.2976810038089752,1.341496467590332,0.1794649362564087
1772701744261646600,3.879646484375,-0.2663978040218353,1.2505855560302734,0.19882646203041077
1772701744271695400,3.8896953125,-0.2418099045753479,0.9699357748031616,0.19124232232570648
1772701744281743600,3.89974365234375,-0.2152775228023529,0.495388388633728,0.14240989089012146
1772701744291791400,3.909791259765625,-0.1985211819410324,0.10978852957487106,0.09078586101531982
1772701744301840400,3.91984033203125,-0.16956129670143127,-0.06125786900520325,0.06087987497448921
1772701744311888400,3.929888427734375,-0.1370968222618103,-0.12758682668209076,0.030556587502360344
1772701744321936400,3.939936279296875,-0.08382076770067215,-0.24827615916728973,0.014078184962272644
1772701744331985400,3.9499853515625,-0.022837845608592033,-0.33543825149536133,0.03842906281352043
1772701744342033400,3.960033447265625,0.023574523627758026,-0.39186564087867737,0.07659421861171722
1772701744352082400,3.97008251953125,0.04135645180940628,-0.43797507882118225,0.10546315461397171
1772701744362130400,3.98013037109375,0.03398284316062927,-0.4506458044052124,0.11248379945755005
1772701744372178400,3.990178466796875,-0.016927475109696388,-0.5006732940673828,0.08762504905462265
1772701744382227500,4.0002275390625,-0.11040270328521729,-0.6358082294464111,0.007676846347749233
1772701744392275500,4.010275390625,-0.17831411957740784,-0.8161457777023315,-0.13811391592025757
1772701744402324500,4.020324462890625,-0.21158985793590546,-0.9965634942054749,-0.29431939125061035
1772701744412372200,4.030372314453125,-0.19568651914596558,-1.1826316118240356,-0.4477267861366272
1772701744422420500,4.04042041015625,-0.1690351963043213,-1.2929059267044067,-0.5344008207321167
1772701744432469200,4.05046923828125,-0.15610794723033905,-1.2860652208328247,-0.5252834558486938
1772701744442517500,4.060517578125,-0.1529427468776703,-1.2117726802825928,-0.40728867053985596
1772701744452565500,4.0705654296875,-0.16015379130840302,-1.1794346570968628,-0.160837322473526
1772701744462614300,4.0806142578125,-0.2006170153617859,-1.4121876955032349,0.11432517319917679
1772701744472662500,4.09066259765625,-0.25629091262817383,-1.85860276222229,0.28072986006736755
1772701744482711300,4.100711181640625,-0.26895472407341003,-2.2494113445281982,0.3070610761642456
1772701744492759600,4.110759521484375,-0.25513505935668945,-2.389549493789673,0.2660555839538574
1772701744502807300,4.120807373046875,-0.23714977502822876,-2.1829380989074707,0.26389795541763306
1772701744512856600,4.130856689453125,-0.22632935643196106,-1.7880668640136719,0.27981194853782654
1772701744522904300,4.140904296875,-0.23254507780075073,-1.3438564538955688,0.3215084671974182
1772701744532952300,4.150952392578125,-0.22260217368602753,-0.966926097869873,0.39700639247894287
1772701744543001300,4.16100146484375,-0.2188144326210022,-0.8242868781089783,0.5459389090538025
1772701744553049300,4.17104931640625,-0.2213050127029419,-0.9252510666847229,0.7442583441734314
1772701744563098400,4.181098388671875,-0.2240314483642578,-1.1428662538528442,0.8813865184783936
1772701744573146400,4.191146484375,-0.2122269868850708,-1.2976340055465698,0.8961660265922546
1772701744583194400,4.2011943359375,-0.18471434712409973,-1.3987051248550415,0.8253812193870544
1772701744593243400,4.211243408203125,-0.1706957370042801,-1.4236335754394531,0.7324880361557007
1772701744603291400,4.22129150390625,-0.15561383962631226,-1.3977634906768799,0.6364995837211609
1772701744613339400,4.23133935546875,-0.15465110540390015,-1.2375320196151733,0.5358158349990845
1772701744623388400,4.241388427734375,-0.17674985527992249,-0.9642812013626099,0.4555026590824127
1772701744633436400,4.2514365234375,-0.1847422569990158,-0.7147584557533264,0.38975533843040466
1772701744643485200,4.261485107421875,-0.18385817110538483,-0.527790367603302,0.3512532114982605
1772701744653533400,4.271533447265625,-0.1721237450838089,-0.3858707845211029,0.339557945728302
1772701744663581400,4.28158154296875,-0.13352255523204803,-0.3469824194908142,0.3562588095664978
1772701744673630500,4.29163037109375,-0.10470928996801376,-0.41107484698295593,0.3753480911254883
1772701744683678500,4.301678466796875,-0.0429784394800663,-0.482975035905838,0.4386666715145111
1772701744693726200,4.311726318359375,0.07444725185632706,-0.5500485897064209,0.5573288798332214
1772701744703775500,4.321775390625,0.19983558356761932,-0.5614237189292908,0.6781156659126282
1772701744713823200,4.3318232421875,0.30695298314094543,-0.40929490327835083,0.7662058472633362
1772701744723872500,4.34187255859375,0.41032475233078003,-0.11911232024431229,0.7923693656921387
1772701744733920300,4.351920166015625,0.4740336835384369,0.23791131377220154,0.7432135939598083
1772701744743968500,4.361968505859375,0.5082234740257263,0.568784236907959,0.6448400616645813
1772701744754017300,4.372017333984375,0.5540071725845337,0.7394393086433411,0.5313166975975037
1772701744764065500,4.3820654296875,0.5989497900009155,0.7794594764709473,0.42229411005973816
1772701744774114300,4.3921142578125,0.6377110481262207,0.7856316566467285,0.30687403678894043
1772701744784162600,4.40216259765625,0.6460907459259033,0.8140888214111328,0.16778486967086792
1772701744794210600,4.41221044921875,0.6455179452896118,0.8570940494537354,0.0280474666506052
1772701744804259300,4.42225927734375,0.6397808790206909,0.9077205657958984,-0.10296656936407089
1772701744814307300,4.432307373046875,0.6174750924110413,0.9292104244232178,-0.22234410047531128
1772701744824355300,4.442355224609375,0.5746188759803772,0.944133460521698,-0.3423849046230316
1772701744834404400,4.452404296875,0.5366773009300232,0.9575688242912292,-0.4498903155326843
1772701744844452400,4.462452392578125,0.5023425221443176,1.0077097415924072,-0.5435558557510376
1772701744854501400,4.47250146484375,0.46073856949806213,1.075774073600769,-0.6348127722740173
1772701744864549400,4.48254931640625,0.4115733802318573,1.0734447240829468,-0.7034011483192444
1772701744874597400,4.492597412109375,0.3454340398311615,1.049910545349121,-0.7712970972061157
1772701744884646400,4.502646484375,0.29056140780448914,0.9974966645240784,-0.8506233096122742
1772701744894694400,4.5126943359375,0.2501353919506073,0.8892274498939514,-0.9284254312515259
1772701744904742400,4.522742431640625,0.212325319647789,0.780531108379364,-1.0075559616088867
1772701744914791400,4.53279150390625,0.2151956707239151,0.6925681829452515,-1.0626903772354126
1772701744924839400,4.54283935546875,0.25121018290519714,0.6315792798995972,-1.0499931573867798
1772701744934888400,4.552888427734375,0.2568094730377197,0.5849569439888,-0.9745708703994751
1772701744944936400,4.5629365234375,0.29712456464767456,0.5665873885154724,-0.8326542973518372
1772701744954984400,4.572984375,0.2961841821670532,0.8833914399147034,-0.6676245927810669
1772701744965033500,4.583033447265625,0.33523258566856384,1.597717046737671,-0.4123378098011017
1772701744975081500,4.59308154296875,0.5244251489639282,2.1111021041870117,-0.18656538426876068
1772701744985130200,4.603130126953125,0.6164475679397583,1.5004253387451172,-0.059828586876392365
1772701744995178500,4.613178466796875,0.5132309198379517,0.9858837723731995,0.06782019138336182
1772701745005226500,4.6232265625,0.6430948972702026,-0.09930402785539627,0.08311125636100769
1772701745015275500,4.633275634765625,0.7457405924797058,-0.7306867837905884,0.1335882693529129
1772701745025323300,4.6433232421875,0.47393912076950073,-0.829277515411377,0.20503318309783936
1772701745035371300,4.653371337890625,0.20814311504364014,-0.4447692334651947,0.3349754810333252
1772701745045420300,4.663420166015625,0.04434536397457123,0.18214859068393707,0.5349183082580566
1772701745055468300,4.67346826171875,-0.05795783922076225,0.6995429992675781,0.6862231492996216
1772701745065517300,4.683517333984375,-0.06890718638896942,0.8285306692123413,0.7168667316436768
1772701745075565300,4.6935654296875,-0.030579768121242523,0.6901535987854004,0.6742162108421326
1772701745085613600,4.703613525390625,0.04924517869949341,0.4281618297100067,0.5343179106712341
1772701745095662300,4.713662353515625,0.1302204579114914,0.12751412391662598,0.3348577916622162
1772701745105710600,4.723710693359375,0.198751762509346,0.013248220086097717,0.16801248490810394
1772701745115758300,4.73375830078125,0.1981501579284668,-0.1984829306602478,-0.02979273535311222
1772701745125807600,4.7438076171875,0.1235070526599884,-0.49705907702445984,-0.22864662110805511
1772701745135855400,4.75385546875,0.08120141178369522,-0.7212937474250793,-0.35695984959602356
1772701745145904400,4.763904296875,0.08665481209754944,-0.7708077430725098,-0.4656219780445099
1772701745155952400,4.773952392578125,0.08348459005355835,-0.6461039185523987,-0.5778502225875854
1772701745166000400,4.78400048828125,0.08035904914140701,-0.4224514067173004,-0.6771048307418823
1772701745176049400,4.79404931640625,0.07527800649404526,-0.1223674789071083,-0.76320481300354
1772701745186097400,4.804097412109375,0.05557308718562126,0.21457986533641815,-0.8070332407951355
1772701745196146400,4.814146484375,0.04016510397195816,0.5677696466445923,-0.8028646111488342
1772701745206196200,4.8241962890625,-0.0008036328945308924,0.9516456723213196,-0.7350272536277771
1772701745216244200,4.834244140625,-0.0782422348856926,1.3766239881515503,-0.6198322176933289
1772701745226293200,4.844293212890625,-0.14017058908939362,1.7941395044326782,-0.46671584248542786
1772701745236341200,4.85434130859375,-0.17329125106334686,2.1952521800994873,-0.2584233582019806
1772701745246389500,4.864389404296875,-0.21897710859775543,2.441415309906006,0.05939645320177078
1772701745256438300,4.874438232421875,-0.3454567492008209,2.3430168628692627,0.42373284697532654
1772701745266486300,4.884486328125,-0.5061709880828857,2.295506238937378,0.72206050157547
1772701745276535300,4.894535400390625,-0.7188169360160828,2.3520054817199707,0.8634375929832458
1772701745286583300,4.904583251953125,-0.7984540462493896,2.3680100440979004,0.7627439498901367
1772701745296631300,4.91463134765625,-0.669172465801239,2.550276756286621,0.3674274981021881
1772701745306680300,4.924680419921875,-0.5366942882537842,2.905623197555542,-0.544039785861969
1772701745316728300,4.934728271484375,-0.49436813592910767,1.9904083013534546,-1.0375994443893433
1772701745326776300,4.9447763671875,-0.39658093452453613,1.2404035329818726,-1.3253940343856812
1772701745336825300,4.954825439453125,-0.31160345673561096,0.5637672543525696,-1.5416454076766968
1772701745346873300,4.964873291015625,-0.20186057686805725,-0.09733043611049652,-1.6333699226379395
1772701745356922400,4.97492236328125,-0.110355444252491,-0.39033594727516174,-1.4375327825546265
1772701745366970400,4.984970458984375,-0.010514901019632816,-0.7075405120849609,-1.0373684167861938
1772701745377018000,4.99501806640625,0.03607070818543434,-1.0143568515777588,-0.574188768863678
1772701745387067400,5.0050673828125,0.021616803482174873,-1.1889162063598633,-0.05676494166254997
1772701745397115100,5.015115234375,-0.03759884834289551,-1.1360359191894531,0.43923628330230713
1772701745407164400,5.025164306640625,-0.11033850163221359,-1.053737759590149,0.7618836760520935
1772701745417212200,5.035212158203125,-0.15867432951927185,-1.0065175294876099,0.8938683271408081
1772701745427260400,5.045260498046875,-0.1736348271369934,-0.8916530013084412,0.9272933602333069
1772701745437309200,5.05530908203125,-0.15483877062797546,-0.7652532458305359,0.8539187908172607
1772701745447357200,5.065357177734375,-0.16079974174499512,-0.7117421627044678,0.711399257183075
1772701745457405400,5.075405517578125,-0.23333971202373505,-0.7144122123718262,0.5673264861106873
1772701745467454200,5.0854541015625,-0.31776267290115356,-0.773745059967041,0.5062302947044373
1772701745477502500,5.09550244140625,-0.3826386034488678,-0.9639266729354858,0.5205461382865906
1772701745487551200,5.10555126953125,-0.4098483920097351,-1.2440569400787354,0.5695035457611084
1772701745497599500,5.115599609375,-0.3570943772792816,-1.5544201135635376,0.5560135841369629
1772701745507647200,5.125647216796875,-0.3006911873817444,-1.8929262161254883,0.4566069543361664
1772701745517696300,5.1356962890625,-0.2662687599658966,-2.20337176322937,0.3087594211101532
1772701745527744300,5.145744140625,-0.28084293007850647,-2.4130988121032715,0.14562642574310303
1772701745537792300,5.155792236328125,-0.3675232231616974,-2.525221824645996,-0.004496234934777021
1772701745547841300,5.16584130859375,-0.4999765157699585,-2.6166634559631348,-0.09178544580936432
1772701745557889300,5.17588916015625,-0.6318245530128479,-2.673454523086548,-0.06251490861177444
1772701745567938300,5.185938232421875,-0.7733015418052673,-2.378741979598999,0.07728081941604614
1772701745577986300,5.195986328125,-0.8493965864181519,-1.5874818563461304,0.23939701914787292
1772701745588034300,5.206034423828125,-0.8862349390983582,-0.6783961653709412,0.16853241622447968
1772701745598083300,5.216083251953125,-0.8794249892234802,-0.021630268543958664,-0.21965473890304565
1772701745608131000,5.226131103515625,-0.8456834554672241,-0.06387326121330261,-0.8567668795585632
1772701745618180400,5.236180419921875,-0.7149661779403687,-0.8027425408363342,-1.4761496782302856
1772701745628228000,5.24622802734375,-0.371913880109787,-1.395431637763977,-1.6362558603286743
1772701745638276400,5.2562763671875,-0.041601501405239105,-1.3616806268692017,-1.1737325191497803
1772701745648325000,5.2663251953125,0.19316202402114868,-0.7512602806091309,-0.4839765727519989
1772701745658373400,5.276373291015625,0.2143155187368393,-0.5120466351509094,0.05519663915038109
1772701745668422100,5.286422119140625,0.19236288964748383,-0.7423575520515442,0.3478928208351135
1772701745678470400,5.296470458984375,0.1514897644519806,-1.1394712924957275,0.3800014853477478
1772701745688518400,5.306518310546875,0.08726963400840759,-1.409715175628662,0.2678670883178711
1772701745698567400,5.3165673828125,0.02075798623263836,-1.4236050844192505,0.09833426773548126
1772701745708615400,5.326615478515625,-0.06271102279424667,-1.331093430519104,-0.054688140749931335
1772701745718663200,5.3366630859375,-0.11668664216995239,-1.2288496494293213,-0.1688983291387558
1772701745728712400,5.34671240234375,-0.15922923386096954,-1.1838643550872803,-0.1966373324394226
1772701745738760200,5.35676025390625,-0.17859306931495667,-1.175517201423645,-0.13469913601875305
1772701745748809200,5.366809326171875,-0.1854689121246338,-1.1761850118637085,-0.01995847187936306
1772701745758857200,5.376857177734375,-0.17434382438659668,-1.1438028812408447,0.10181482881307602
1772701745768905500,5.386905517578125,-0.1949935406446457,-0.9753154516220093,0.18837425112724304
1772701745778954200,5.396954345703125,-0.2505286931991577,-0.7777249217033386,0.23755884170532227
1772701745789002200,5.407002197265625,-0.32459548115730286,-0.6084691882133484,0.27277371287345886
1772701745799051300,5.41705126953125,-0.4616928994655609,-0.4650731682777405,0.32898372411727905
1772701745809099300,5.427099365234375,-0.5684676170349121,-0.3551330268383026,0.42003029584884644
1772701745819147300,5.437147216796875,-0.7047247886657715,-0.20909114181995392,0.482147753238678
1772701745829196300,5.4471962890625,-0.7585300207138062,-0.09904944896697998,0.5595085620880127
1772701745839244300,5.457244384765625,-0.7191498875617981,-0.04828214272856712,0.6849777698516846
1772701745849292300,5.467292236328125,-0.6332770586013794,0.037778280675411224,0.7870715856552124
1772701745859341300,5.47734130859375,-0.4848814904689789,0.12327320873737335,0.9254938960075378
1772701745869389300,5.487389404296875,-0.33878910541534424,0.221879243850708,1.0169758796691895
1772701745879438300,5.497438232421875,-0.23733492195606232,0.43388041853904724,0.9864334464073181
1772701745889486300,5.507486328125,-0.1534108817577362,0.695458710193634,0.8624846339225769
1772701745899534300,5.517534423828125,-0.07894837856292725,0.7397454380989075,0.6967388391494751
1772701745909583400,5.527583251953125,-0.02020927518606186,0.700388491153717,0.5154633522033691
1772701745919631400,5.53763134765625,0.017228111624717712,0.6325556635856628,0.32994088530540466
1772701745929680400,5.547680419921875,0.03367297723889351,0.6087788939476013,0.11835481971502304
1772701745939728400,5.557728271484375,0.019076725468039513,0.6865333914756775,-0.13214530050754547
1772701745949776100,5.567776123046875,-0.022909412160515785,0.8340919017791748,-0.4351232647895813
1772701745959825200,5.5778251953125,-0.07080955803394318,0.9821535348892212,-0.7384325265884399
1772701745969873200,5.587873046875,-0.1267603635787964,1.0003734827041626,-1.0090479850769043
1772701745979922200,5.597922119140625,-0.16809262335300446,0.8184539675712585,-1.2367680072784424
1772701745989970200,5.60797021484375,-0.15752457082271576,0.3154809772968292,-1.4258941411972046
1772701746000018400,5.618018310546875,-0.09876725822687149,-0.46547582745552063,-1.54989492893219
1772701746010067200,5.628067138671875,-0.029817987233400345,-1.1742130517959595,-1.6810054779052734
1772701746020115500,5.638115478515625,-0.008719892241060734,-1.2135381698608398,-1.8797465562820435
1772701746030163200,5.6481630859375,0.0885218009352684,-0.7661822438240051,-2.0001471042633057
1772701746040212500,5.65821240234375,0.32597777247428894,-0.07297046482563019,-1.6770895719528198
1772701746050260200,5.66826025390625,0.6996280550956726,1.2788563966751099,-0.6093297600746155
1772701746060309200,5.678309326171875,1.3479703664779663,3.8529727458953857,1.11360502243042
1772701746070357200,5.688357177734375,1.799755573272705,5.992994785308838,2.6515913009643555
1772701746080405200,5.6984052734375,1.3336882591247559,4.849472999572754,2.7760801315307617
1772701746090454300,5.708454345703125,0.8680553436279297,4.3552656173706055,1.8089289665222168
1772701746100502300,5.718502197265625,1.116986632347107,2.013813018798828,0.2529107928276062
1772701746110551300,5.72855126953125,1.3300632238388062,-0.1988050937652588,-0.9110785722732544
1772701746120599300,5.738599365234375,1.3217341899871826,-1.3618099689483643,-1.599560260772705
1772701746130647300,5.748647216796875,1.4129359722137451,-2.1715826988220215,-1.8815871477127075
1772701746140696300,5.7586962890625,1.426999807357788,-2.006047010421753,-1.691922664642334
1772701746150744300,5.768744384765625,1.3025031089782715,-1.250135898590088,-1.2676602602005005
1772701746160793300,5.77879345703125,1.1505613327026367,-0.6189797520637512,-0.8296607732772827
1772701746170841300,5.78884130859375,1.0371724367141724,0.004021288827061653,-0.40177133679389954
1772701746180889300,5.798889404296875,0.97097247838974,0.46036699414253235,-0.01892806962132454
1772701746190938000,5.808938232421875,0.8975183367729187,0.6297253370285034,0.20107634365558624
1772701746200986400,5.818986328125,0.8086009621620178,0.637144148349762,0.2835446000099182
1772701746211032800,5.82903271484375,0.6676430106163025,0.6181319952011108,0.24983727931976318
1772701746221081900,5.839081787109375,0.4952593147754669,0.6102940440177917,0.10840984433889389
1772701746231129900,5.8491298828125,0.3372695744037628,0.6185716390609741,-0.08405790477991104
1772701746241179000,5.859178955078125,0.1823367178440094,0.6423587203025818,-0.30407893657684326
1772701746251227000,5.869226806640625,0.04426446929574013,0.6629984378814697,-0.4983260929584503
1772701746261275000,5.87927490234375,-0.09965941309928894,0.6310133934020996,-0.6551998257637024
1772701746271324000,5.889323974609375,-0.20769548416137695,0.5705219507217407,-0.7617135643959045
1772701746281372000,5.899371826171875,-0.2420278936624527,0.5526095628738403,-0.8143224120140076
1772701746291421000,5.9094208984375,-0.24557720124721527,0.5310457348823547,-0.8515563011169434
1772701746301469000,5.919468994140625,-0.20605508983135223,0.5223351120948792,-0.8621386289596558
1772701746311517000,5.929516845703125,-0.15023736655712128,0.6030389666557312,-0.8286898732185364
1772701746321566000,5.93956591796875,-0.1077389121055603,0.725802481174469,-0.7530225515365601
1772701746331614000,5.949614013671875,-0.0866398960351944,0.8617532849311829,-0.654679536819458
1772701746341663000,5.9596630859375,-0.11165603250265121,0.9423019289970398,-0.558364987373352
1772701746351710700,5.969710693359375,-0.19583825767040253,0.8757719993591309,-0.4925285577774048
1772701746361759000,5.979759033203125,-0.28315263986587524,0.7266693711280823,-0.40592044591903687
1772701746371807700,5.989807861328125,-0.2919534146785736,0.6227835416793823,-0.338375061750412
1772701746381856000,5.99985595703125,-0.2529250681400299,0.7288444638252258,-0.2623705565929413
1772701746391904000,6.009904052734375,-0.19355462491512299,0.9287001490592957,-0.16432690620422363
1772701746401953000,6.019953125,-0.1429242044687271,0.9366092085838318,-0.019461601972579956
1772701746412000800,6.030000732421875,-0.08520561456680298,0.8162333965301514,0.07831389456987381
1772701746422050000,6.040050048828125,-0.03284866362810135,0.7579429745674133,0.11069713532924652
1772701746432097800,6.050097900390625,-0.07394293695688248,0.6681486368179321,0.1275728940963745
1772701746442145800,6.060145751953125,-0.18211334943771362,0.627508282661438,0.1993618607521057
1772701746452194800,6.07019482421875,-0.2616015374660492,0.5950654745101929,0.2997930347919464
1772701746462242800,6.080242919921875,-0.3335298001766205,0.6898958683013916,0.44362345337867737
1772701746472291800,6.090291748046875,-0.4113038182258606,0.7473915219306946,0.6799930930137634
1772701746482339800,6.10033984375,-0.4991644322872162,0.6406887769699097,0.9416944980621338
1772701746492388000,6.11038818359375,-0.586780846118927,0.4644719958305359,1.1388226747512817
1772701746502436900,6.120436767578125,-0.6538048982620239,0.23379886150360107,1.2699064016342163
1772701746512485000,6.130485107421875,-0.6984376907348633,0.06848572194576263,1.3070749044418335
1772701746522534000,6.140533935546875,-0.7070397138595581,0.07415612041950226,1.2126866579055786
1772701746532582000,6.150581787109375,-0.641798198223114,0.1680886298418045,0.9829777479171753
1772701746542630000,6.1606298828125,-0.559229850769043,0.21335944533348083,0.7024928331375122
1772701746552679000,6.170678955078125,-0.5019677877426147,0.0603346973657608,0.47928476333618164
1772701746562727000,6.180726806640625,-0.4583423137664795,-0.31732258200645447,0.31396985054016113
1772701746572776000,6.19077587890625,-0.44383400678634644,-0.7058849930763245,0.21449823677539825
1772701746582824000,6.200823974609375,-0.4610111117362976,-0.96697598695755,0.08605877310037613
1772701746592872000,6.210871826171875,-0.5322377681732178,-1.0183509588241577,-0.08344320952892303
1772701746602921000,6.2209208984375,-0.6095181703567505,-1.0594485998153687,-0.2674812078475952
1772701746612969000,6.230968994140625,-0.6223840117454529,-1.156708002090454,-0.4196365475654602
1772701746623018000,6.24101806640625,-0.6573297381401062,-1.1796166896820068,-0.4392605721950531
1772701746633066000,6.25106591796875,-0.6936864852905273,-1.452405333518982,-0.2504165768623352
1772701746643113700,6.26111376953125,-0.746319591999054,-2.071119785308838,0.30387377738952637
1772701746653163000,6.2711630859375,-0.7799946069717407,-2.828716278076172,1.2020407915115356
1772701746663210800,6.281210693359375,-0.7278839945793152,-2.947493314743042,1.9338088035583496
1772701746673259000,6.291259033203125,-0.6360529065132141,-2.0921499729156494,2.345726490020752
1772701746683307800,6.301307861328125,-0.6151896715164185,-1.2435375452041626,2.4793238639831543
1772701746693355800,6.311355712890625,-0.6081027984619141,-0.9159818291664124,2.389864683151245
1772701746703404800,6.32140478515625,-0.5222480297088623,-1.0288596153259277,2.062438726425171
1772701746713452800,6.331452880859375,-0.31037279963493347,-1.4456632137298584,1.628164529800415
1772701746723501000,6.3415009765625,-0.02966761589050293,-1.7220487594604492,1.2162379026412964
1772701746733549800,6.3515498046875,0.21893447637557983,-1.8636631965637207,0.9776936173439026
1772701746743598000,6.36159814453125,0.39456167817115784,-2.0147910118103027,0.8502051830291748
1772701746753646800,6.371646728515625,0.5460320115089417,-2.096081018447876,0.720312237739563
1772701746763695000,6.381695068359375,0.62625652551651,-2.1057803630828857,0.5278671383857727
1772701746773742800,6.391742919921875,0.6804243326187134,-2.1193017959594727,0.30467283725738525
1772701746783792000,6.401792236328125,0.7002872228622437,-2.062889814376831,0.10557013005018234
1772701746793839900,6.41183984375,0.6986324191093445,-1.7726632356643677,-0.10508867353200912
1772701746803889000,6.421888916015625,0.6523994207382202,-1.4835011959075928,-0.23121917247772217
1772701746813937000,6.43193701171875,0.5364295840263367,-1.194893479347229,-0.29339998960494995
1772701746823985000,6.44198486328125,0.358204185962677,-0.8912963271141052,-0.35672810673713684
1772701746834034000,6.452033935546875,0.14531664550304413,-0.5463743805885315,-0.4144664704799652
1772701746844082000,6.46208203125,-0.047506604343652725,-0.3340114951133728,-0.4185467064380646
1772701746854131000,6.472130859375,-0.16359800100326538,-0.09941555559635162,-0.38280922174453735
1772701746864179000,6.482178955078125,-0.25584352016448975,0.046069737523794174,-0.3635854721069336
1772701746874226700,6.492226806640625,-0.2970511019229889,0.15369635820388794,-0.31486383080482483
1772701746884276000,6.50227587890625,-0.3126034438610077,0.20011286437511444,-0.2578631043434143
1772701746894323700,6.51232373046875,-0.30990368127822876,0.19878815114498138,-0.17018255591392517
1772701746904373000,6.522373046875,-0.2768429219722748,0.14335444569587708,-0.03545643389225006
1772701746914420700,6.532420654296875,-0.21107463538646698,0.11424259096384048,0.08222369104623795
1772701746924469000,6.542468994140625,-0.18260011076927185,0.1785760372877121,0.1462857723236084
1772701746934517800,6.552517822265625,-0.17161157727241516,0.30776575207710266,0.17405743896961212
1772701746944566000,6.56256591796875,-0.16870634257793427,0.48279160261154175,0.16945603489875793
1772701746954614800,6.57261474609375,-0.16663841903209686,0.6840749979019165,0.14366458356380463
1772701746964663000,6.5826630859375,-0.1693314015865326,0.8592918515205383,0.08814378827810287
1772701746974711000,6.5927109375,-0.1755555421113968,1.0195218324661255,-0.011465954594314098
1772701746984759800,6.602759765625,-0.18431679904460907,1.167580246925354,-0.1407690793275833
1772701746994808000,6.61280810546875,-0.18514591455459595,1.2701618671417236,-0.29905787110328674
1772701747004855800,6.622855712890625,-0.19906732439994812,1.3540887832641602,-0.4715481400489807
1772701747014905000,6.632905029296875,-0.20499667525291443,1.4138704538345337,-0.6423920392990112
1772701747024952800,6.642952880859375,-0.1686871349811554,1.418025016784668,-0.7790854573249817
1772701747035002000,6.653002197265625,-0.10179829597473145,1.3810373544692993,-0.8728931546211243
1772701747045049900,6.6630498046875,0.018173381686210632,1.3183720111846924,-0.9321836233139038
1772701747055097900,6.673097900390625,0.19395700097084045,1.221083164215088,-0.9580146670341492
1772701747065147000,6.68314697265625,0.3946346938610077,1.1010504961013794,-0.9334448575973511
1772701747075195000,6.69319482421875,0.5773792862892151,1.0053502321243286,-0.8179757595062256
1772701747085244000,6.703243896484375,0.7690249085426331,1.3630156517028809,-0.5420006513595581
1772701747095292000,6.7132919921875,1.0069553852081299,3.060342311859131,-0.29610127210617065
1772701747105340000,6.72333984375,1.3562875986099243,3.3078110218048096,-0.3398658037185669
1772701747115389000,6.733388916015625,1.582649827003479,0.9220126867294312,-0.4074954390525818
1772701747125437000,6.74343701171875,1.6183929443359375,0.3020245134830475,-0.7374546527862549
1772701747135486000,6.75348583984375,1.7967394590377808,1.0204366445541382,-0.7970321178436279
1772701747145533700,6.76353369140625,1.769600510597229,0.7917259335517883,-0.8434858918190002
1772701747155582000,6.77358203125,1.432056188583374,0.051654618233442307,-0.6024534702301025
1772701747165630700,6.783630615234375,1.2015305757522583,-0.1717102974653244,-0.19120517373085022
1772701747175679000,6.793678955078125,1.0452767610549927,-0.12671855092048645,0.06853518635034561
1772701747185727700,6.803727783203125,0.9504599571228027,0.12524525821208954,0.0995442345738411
1772701747195776000,6.81377587890625,0.8713277578353882,0.5849859118461609,0.026063574478030205
1772701747205823500,6.823823486328125,0.8010703325271606,1.0035061836242676,-0.04487744718790054
1772701747215872500,6.83387255859375,0.7415030002593994,1.1714223623275757,-0.09164063632488251
1772701747225920500,6.84392041015625,0.6974684000015259,1.0749540328979492,-0.1278654932975769
1772701747235969500,6.853969482421875,0.6539735794067383,0.805880069732666,-0.18532659113407135
1772701747246017500,6.864017578125,0.615742564201355,0.49632909893989563,-0.2702731788158417
1772701747256065300,6.874065185546875,0.5859507918357849,0.21950742602348328,-0.388682097196579
1772701747266114600,6.884114501953125,0.5176686644554138,0.05420207977294922,-0.5023838877677917
1772701747276162300,6.894162353515625,0.3814176619052887,-0.03501548618078232,-0.6000500321388245
1772701747286211600,6.904211669921875,0.21250243484973907,-0.04562711715698242,-0.6462697386741638
1772701747296259300,6.91425927734375,0.06600670516490936,0.06752219051122665,-0.6715013384819031
1772701747306307600,6.9243076171875,-0.055386826395988464,0.2779984474182129,-0.6484591364860535
1772701747316356400,6.9343564453125,-0.14891450107097626,0.46384522318840027,-0.6053578853607178
1772701747326404600,6.944404541015625,-0.1787799894809723,0.5798479914665222,-0.5057593584060669
1772701747336453400,6.954453369140625,-0.12035278230905533,0.5937882661819458,-0.3297361433506012
1772701747346501400,6.96450146484375,-0.008527983911335468,0.5722853541374207,-0.109909787774086
1772701747356549400,6.97454931640625,0.04852845147252083,0.5770227313041687,0.06856787949800491
1772701747366598400,6.984598388671875,0.005520264618098736,0.6382977962493896,0.15786978602409363
1772701747376646400,6.994646484375,-0.06297198683023453,0.7126955986022949,0.16839852929115295
1772701747386695400,7.0046953125,-0.14798222482204437,0.7617257237434387,0.06686124950647354
1772701747396743400,7.014743408203125,-0.23433205485343933,0.83244788646698,-0.10237748920917511
1772701747406791400,7.02479150390625,-0.2918755114078522,0.870026707649231,-0.2233228087425232
1772701747416840400,7.03484033203125,-0.29770052433013916,0.7813202738761902,-0.32464271783828735
1772701747426888400,7.044888427734375,-0.28229787945747375,0.6842898726463318,-0.43369758129119873
1772701747436937500,7.0549375,-0.25296103954315186,0.6258382797241211,-0.5288880467414856
1772701747446985500,7.0649853515625,-0.18231160938739777,0.6668978333473206,-0.537906289100647
1772701747457033500,7.075033447265625,-0.092780202627182,0.6287919282913208,-0.423909991979599
1772701747467082500,7.08508251953125,0.008996754884719849,0.5544130206108093,-0.20144842565059662
1772701747477130500,7.095130615234375,0.09677886217832565,0.5495219230651855,0.04491676762700081
1772701747487179500,7.105179443359375,0.13556008040905,0.50653076171875,0.2732734978199005
1772701747497227500,7.1152275390625,0.12762488424777985,0.30769333243370056,0.48038434982299805
1772701747507275300,7.125275146484375,0.09643633663654327,0.006181683391332626,0.6497228145599365
1772701747517324500,7.135324462890625,0.029662633314728737,-0.192604660987854,0.7704042196273804
1772701747527372300,7.145372314453125,-0.019280407577753067,-0.28989872336387634,0.8494167327880859
1772701747537420500,7.155420654296875,-0.06016121804714203,-0.44326111674308777,0.9156758785247803
1772701747547469300,7.16546923828125,-0.08825597167015076,-0.6102157831192017,0.9807949662208557
1772701747557517600,7.175517578125,-0.06559371203184128,-0.7330216765403748,1.0051560401916504
1772701747567566300,7.18556640625,-0.025275051593780518,-0.76408451795578,0.9620232582092285
1772701747577614600,7.195614501953125,0.013413799926638603,-0.7836239337921143,0.8797629475593567
1772701747587663400,7.205663330078125,0.031349122524261475,-0.9335473775863647,0.7954232692718506
1772701747597711600,7.215711669921875,0.05413410812616348,-1.2948856353759766,0.7122000455856323
1772701747607759400,7.22575927734375,0.06312467157840729,-1.7465097904205322,0.661346971988678
1772701747617808400,7.235808349609375,0.08644066751003265,-1.9768038988113403,0.5688246488571167
1772701747627856400,7.2458564453125,0.10867299884557724,-1.896000862121582,0.400122731924057
1772701747637905400,7.255905517578125,0.10999803990125656,-1.6951937675476074,0.2165881097316742
1772701747647953400,7.265953369140625,0.03665778040885925,-1.5815937519073486,0.040045302361249924
1772701747658001400,7.27600146484375,-0.07127013057470322,-1.5456881523132324,-0.18830792605876923
1772701747668050400,7.286050537109375,-0.1851101517677307,-1.5772165060043335,-0.3906983435153961
1772701747678098400,7.296098388671875,-0.1877354085445404,-1.8973214626312256,-0.4889741539955139
1772701747688146400,7.306146484375,-0.10460856556892395,-2.496612787246704,-0.4777396023273468
1772701747698195500,7.316195556640625,-0.0027136243879795074,-2.7829432487487793,-0.4255584180355072
1772701747708243500,7.326243408203125,0.04927580803632736,-2.4596803188323975,-0.36539122462272644
1772701747718292500,7.33629248046875,0.0711245983839035,-1.7632842063903809,-0.30121544003486633
1772701747728340500,7.346340576171875,0.05034635588526726,-1.1545066833496094,-0.285847932100296
1772701747738388500,7.356388427734375,0.025174817070364952,-0.9427047967910767,-0.25026410818099976
1772701747748437500,7.3664375,0.005690599326044321,-1.0206674337387085,-0.17250248789787292
1772701747758485500,7.376485595703125,-0.017625240609049797,-1.1609437465667725,-0.03272910416126251
1772701747768534500,7.386534423828125,-0.06248166039586067,-1.1947598457336426,0.13911163806915283
1772701747778582300,7.396582275390625,-0.10086202621459961,-1.0773184299468994,0.31868085265159607
1772701747788630500,7.406630615234375,-0.13930156826972961,-0.917136549949646,0.4861598610877991
1772701747798679300,7.41667919921875,-0.13497918844223022,-0.784778356552124,0.6174504160881042
1772701747808727600,7.4267275390625,-0.12332997471094131,-0.7191988229751587,0.7191058993339539
1772701747818776300,7.4367763671875,-0.09353598207235336,-0.6107573509216309,0.8052281737327576
1772701747828824600,7.446824462890625,-0.05168413743376732,-0.37740397453308105,0.8516635894775391
1772701747838872300,7.456872314453125,-0.041456326842308044,-0.09596381336450577,0.8535819053649902
1772701747848921600,7.466921630859375,-0.06965787708759308,0.10971984267234802,0.816093921661377
1772701747858969300,7.47696923828125,-0.13730457425117493,0.2225017100572586,0.703618049621582
1772701747869018600,7.4870185546875,-0.19771385192871094,0.29879486560821533,0.5024351477622986
1772701747879066400,7.49706640625,-0.376354455947876,0.29957491159439087,0.23845013976097107
1772701747889114400,7.5071142578125,-0.5698951482772827,0.2811511754989624,-0.0515313558280468
1772701747899163400,7.517163330078125,-0.8126909732818604,0.2540394067764282,-0.3370705544948578
1772701747909211400,7.52721142578125,-0.8470265865325928,0.4315984845161438,-0.5369839072227478
1772701747919260400,7.537260498046875,-0.8414955139160156,0.7034720778465271,-0.6914466023445129
1772701747929308400,7.547308349609375,-0.7910978198051453,0.9001119136810303,-0.7535973191261292
1772701747939356700,7.557356689453125,-0.6652752757072449,1.0086930990219116,-0.7396611571311951
1772701747949405400,7.567405517578125,-0.49547266960144043,0.9969560503959656,-0.6695981621742249
1772701747959453400,7.577453369140625,-0.33765342831611633,0.8843704462051392,-0.570554256439209
1772701747969502500,7.58750244140625,-0.198942169547081,0.795624852180481,-0.48326754570007324
1772701747979550500,7.597550537109375,-0.07636164128780365,0.8073140978813171,-0.43173831701278687
1772701747989598500,7.607598388671875,0.03205671161413193,0.8675814270973206,-0.39726370573043823
1772701747999647500,7.6176474609375,0.13006959855556488,0.8700695633888245,-0.3818885087966919
1772701748009695500,7.627695556640625,0.2068389505147934,0.851046621799469,-0.3901914358139038
1772701748019744500,7.63774462890625,0.29118582606315613,0.8731439709663391,-0.40793779492378235
1772701748029792500,7.64779248046875,0.36921006441116333,0.9080649614334106,-0.4092637896537781
1772701748039840500,7.657840576171875,0.40934422612190247,0.90535968542099,-0.4161297678947449
1772701748049889500,7.6678896484375,0.4021965563297272,0.8748920559883118,-0.45190826058387756
1772701748059937500,7.6779375,0.3975503444671631,0.7964156270027161,-0.4994423985481262
1772701748069986300,7.687986328125,0.4094008803367615,0.6975545287132263,-0.6037431955337524
1772701748080034600,7.69803466796875,0.4074123799800873,0.6173990368843079,-0.7115815877914429
1772701748090082300,7.708082275390625,0.4135917127132416,0.5356993675231934,-0.7386611104011536
1772701748100131600,7.718131591796875,0.4412316679954529,0.4035206437110901,-0.5780580639839172
1772701748110179300,7.728179443359375,0.47428256273269653,0.20066341757774353,-0.31541767716407776
1772701748120228600,7.738228515625,0.5317142009735107,0.2747133672237396,-0.07941233366727829
1772701748130276400,7.7482763671875,0.5646239519119263,0.7667919993400574,0.018951522186398506
1772701748140324400,7.758324462890625,0.657576322555542,1.1743463277816772,-0.10023178160190582
1772701748150373400,7.768373291015625,0.7005916833877563,1.1654282808303833,-0.5002881288528442
1772701748160421400,7.77842138671875,0.6566876173019409,1.177553415298462,-0.7844781279563904
1772701748170470400,7.788470458984375,0.5822357535362244,0.785881519317627,-0.9988111853599548
1772701748180518400,7.798518310546875,0.47188737988471985,0.31186234951019287,-0.9785866141319275
1772701748190566700,7.808566650390625,0.2795746326446533,0.08430773764848709,-0.7153922319412231
1772701748200615400,7.818615478515625,0.07556010782718658,-0.011009395122528076,-0.35763636231422424
1772701748210663400,7.828663330078125,-0.06378500163555145,0.07675375044345856,-0.06683274358510971
1772701748220712400,7.83871240234375,-0.15894481539726257,0.23107567429542542,0.0847860723733902
1772701748230760400,7.848760498046875,-0.1260145604610443,0.35688233375549316,0.08208642899990082
1772701748240809500,7.8588095703125,-0.061282914131879807,0.44457828998565674,-0.06664510071277618
1772701748250857500,7.868857421875,-0.00419752299785614,0.4655706584453583,-0.2610188126564026
1772701748260905200,7.8789052734375,0.05249114707112312,0.3838096857070923,-0.41120481491088867
1772701748270954500,7.88895458984375,0.12269366532564163,0.20237065851688385,-0.4969860315322876
1772701748281002200,7.899002197265625,0.1639380156993866,0.0040137385949492455,-0.5126614570617676
1772701748291051300,7.90905126953125,0.15792138874530792,-0.16167083382606506,-0.5144862532615662
1772701748301099300,7.919099365234375,0.13921546936035156,-0.2873498499393463,-0.4632149636745453
1772701748311147300,7.929147216796875,0.1553177386522293,-0.40050995349884033,-0.3543907403945923
1772701748321196300,7.9391962890625,0.22239463031291962,-0.5161078572273254,-0.18895167112350464
1772701748331244300,7.949244384765625,0.3135192096233368,-0.5716920495033264,-0.029038969427347183
1772701748341293300,7.959293212890625,0.3846203088760376,-0.45950597524642944,0.07414155453443527
1772701748351341300,7.96934130859375,0.44926002621650696,-0.1967310756444931,0.12351895868778229
1772701748361389300,7.979389404296875,0.49509260058403015,0.06983507424592972,0.15740516781806946
1772701748371438300,7.989438232421875,0.5128316879272461,0.26275286078453064,0.15245194733142853
1772701748381486300,7.999486328125,0.4994245767593384,0.3765682280063629,0.14287209510803223
1772701748391535400,8.009535400390625,0.487048864364624,0.41263091564178467,0.152658149600029
1772701748401583400,8.019583251953126,0.46182459592819214,0.37936773896217346,0.1599748730659485
1772701748411631400,8.02963134765625,0.43146082758903503,0.3402016758918762,0.11809294670820236
1772701748421680000,8.03968017578125,0.37604260444641113,0.40956971049308777,0.03076956607401371
1772701748431728400,8.049728271484375,0.33140215277671814,0.5800716280937195,-0.06685952097177505
1772701748441777200,8.059777099609375,0.2997211813926697,0.7385814785957336,-0.16341517865657806
1772701748451825400,8.069825439453124,0.2523140013217926,0.7795361280441284,-0.24845337867736816
1772701748461873400,8.079873291015625,0.18694137036800385,0.6982957124710083,-0.30520009994506836
1772701748471922400,8.08992236328125,0.12938299775123596,0.5311440229415894,-0.2918986678123474
1772701748481970400,8.099970458984375,0.10234323889017105,0.35272905230522156,-0.1796482354402542
1772701748492019500,8.11001953125,0.11128640174865723,0.2049579620361328,0.021454771980643272
1772701748502067200,8.120067138671875,0.1213800460100174,0.11286932229995728,0.2566089630126953
1772701748512115200,8.130115234375,0.10451558232307434,0.07738110423088074,0.46973320841789246
1772701748522164200,8.140164306640624,0.08014896512031555,0.08552037179470062,0.6496051549911499
1772701748532212200,8.150212158203125,0.03903508186340332,0.08990313857793808,0.7564935684204102
1772701748542261200,8.16026123046875,-0.010719429701566696,0.07673222571611404,0.7839607000350952
1772701748552309200,8.170309326171875,-0.09222334623336792,0.027890384197235107,0.7502466440200806
1772701748562357500,8.180357421875,-0.19170282781124115,-0.06703842431306839,0.6788404583930969
1772701748572406300,8.19040625,-0.30090785026550293,-0.1810438185930252,0.591036856174469
1772701748582454500,8.20045458984375,-0.3944808840751648,-0.30522817373275757,0.5204498171806335
1772701748592503300,8.21050341796875,-0.4502253532409668,-0.45690104365348816,0.43423745036125183
1772701748602551300,8.22055126953125,-0.5022332072257996,-0.5967167019844055,0.34627217054367065
1772701748612599300,8.230599365234376,-0.5148001313209534,-0.6708122491836548,0.27791550755500793
1772701748622648300,8.2406484375,-0.5390252470970154,-0.7500465512275696,0.236036017537117
1772701748632696300,8.2506962890625,-0.5530121922492981,-0.8342093229293823,0.16669343411922455
1772701748642745300,8.260745361328125,-0.5693042278289795,-0.8890610337257385,0.0545581579208374
1772701748652793300,8.27079345703125,-0.5747637152671814,-0.8821091651916504,-0.1175110712647438
1772701748662841300,8.28084130859375,-0.5899690389633179,-0.8621191382408142,-0.23731522262096405
1772701748672890400,8.290890380859375,-0.6152195334434509,-0.9762153625488281,-0.2525021731853485
1772701748682938400,8.3009384765625,-0.566794216632843,-1.2550995349884033,-0.09528511017560959
1772701748692987400,8.3109873046875,-0.470302015542984,-1.498725175857544,0.10765894502401352
1772701748703035400,8.321035400390626,-0.33738335967063904,-1.5649945735931396,0.2744264304637909
1772701748713083400,8.33108349609375,-0.22687843441963196,-1.512962818145752,0.3444769084453583
1772701748723132400,8.34113232421875,-0.15306711196899414,-1.4424587488174438,0.3256201148033142
1772701748733180200,8.35118017578125,-0.10132614523172379,-1.5141414403915405,0.2438592165708542
1772701748743229400,8.3612294921875,-0.11806692183017731,-1.7859904766082764,0.18485862016677856
1772701748753277200,8.371277099609374,-0.16699372231960297,-2.0514066219329834,0.23783688247203827
1772701748763325200,8.3813251953125,-0.1410347819328308,-2.007009506225586,0.482916921377182
1772701748773374200,8.391374267578126,-0.02326367050409317,-1.5885539054870605,0.8579784035682678
1772701748783422200,8.401422119140625,0.20234616100788116,-0.9983645081520081,1.1740434169769287
1772701748793471200,8.41147119140625,0.4105989336967468,-0.5144457817077637,1.41389799118042
1772701748803519200,8.421519287109374,0.5652158260345459,-0.30078086256980896,1.539957046508789
1772701748813568300,8.431568359375,0.6355712413787842,-0.3768596649169922,1.5738321542739868
1772701748823616300,8.4416162109375,0.5721808075904846,-0.5566421747207642,1.5587444305419922
1772701748833664500,8.45166455078125,0.45624005794525146,-0.7974169254302979,1.5161505937576294
1772701748843713300,8.46171337890625,0.32746532559394836,-0.9119062423706055,1.4661595821380615
1772701748853761500,8.471761474609375,0.21024200320243835,-0.7807818055152893,1.4155739545822144
1772701748863810300,8.481810302734376,0.12306929379701614,-0.4407493770122528,1.3374532461166382
1772701748873858300,8.4918583984375,0.043627992272377014,-0.023268796503543854,1.2099157571792603
1772701748883907300,8.5019072265625,-0.04650053754448891,0.37338948249816895,1.0125019550323486
1772701748893955300,8.511955322265624,-0.15110737085342407,0.7371759414672852,0.7210167050361633
1772701748904003300,8.52200341796875,-0.2581411302089691,0.9547924995422363,0.3453655242919922
1772701748914052400,8.53205224609375,-0.3577929139137268,0.9497112035751343,-0.06677913665771484
1772701748924100400,8.542100341796875,-0.4173758625984192,0.7277209758758545,-0.4054364562034607
1772701748934149400,8.5521494140625,-0.40126293897628784,0.35729923844337463,-0.5997907519340515
1772701748944197400,8.562197265625,-0.34374111890792847,0.08268291503190994,-0.6756351590156555
1772701748954245400,8.572245361328125,-0.28766852617263794,-0.08318061381578445,-0.71998530626297
1772701748964294400,8.58229443359375,-0.27773168683052063,-0.10877139866352081,-0.7362930178642273
1772701748974342400,8.59234228515625,-0.2938483655452728,0.08967991173267365,-0.7281160354614258
1772701748984391200,8.60239111328125,-0.2713603675365448,0.434772789478302,-0.691074013710022
1772701748994439400,8.612439453125,-0.2260408252477646,0.7885020971298218,-0.6064720749855042
1772701749004487200,8.622487060546876,-0.19750173389911652,1.0523923635482788,-0.5041677355766296
1772701749014536400,8.632536376953125,-0.19060255587100983,1.252933144569397,-0.38301870226860046
1772701749024584200,8.642584228515625,-0.18481099605560303,1.3828450441360474,-0.23741310834884644
1772701749034633500,8.652633544921875,-0.16586953401565552,1.3599849939346313,-0.0856986716389656
1772701749044681200,8.66268115234375,-0.1375340074300766,1.11198890209198,0.06578893959522247
1772701749054729200,8.672729248046876,-0.10250944644212723,0.7272636294364929,0.20358675718307495
1772701749064778200,8.6827783203125,-0.062043823301792145,0.34117767214775085,0.31217876076698303
1772701749074826200,8.692826171875,-0.043807029724121094,0.01345733180642128,0.3568013310432434
1772701749084875300,8.702875244140625,-0.056565701961517334,-0.20547448098659515,0.3340611457824707
1772701749094923300,8.71292333984375,-0.09807639569044113,-0.25988179445266724,0.263954758644104
1772701749104972300,8.72297216796875,-0.13453033566474915,-0.16742858290672302,0.17725886404514313
1772701749115020300,8.733020263671875,-0.15563587844371796,-0.017132289707660675,0.11810232698917389
1772701749125068500,8.743068603515624,-0.15382498502731323,0.10385224223136902,0.10997011512517929
1772701749135117300,8.753117431640625,-0.14338992536067963,0.10788480192422867,0.12728731334209442
1772701749145165600,8.76316552734375,-0.11318002641201019,-0.10568898171186447,0.18318882584571838
1772701749155214300,8.77321435546875,-0.03578456863760948,-0.5437923073768616,0.2821471095085144
1772701749165262300,8.783262451171876,0.049217645078897476,-0.9759265184402466,0.4139796197414398
1772701749175310300,8.793310302734374,0.11895144730806351,-1.1171081066131592,0.48246467113494873
1772701749185359400,8.803359375,0.1607808917760849,-0.8153012990951538,0.42667606472969055
1772701749195407400,8.813407470703124,0.20709726214408875,-0.030239712446928024,0.21999266743659973
1772701749205457000,8.823456787109375,0.2844901978969574,0.9420790076255798,-0.16032488644123077
1772701749215505000,8.8335048828125,0.43229296803474426,1.7145065069198608,-0.6443759799003601
1772701749225553000,8.843552978515625,0.407552033662796,1.7590724229812622,-1.1274186372756958
1772701749235602000,8.853601806640626,0.2926430106163025,1.2546318769454956,-1.53156578540802
1772701749245650000,8.86364990234375,0.16636353731155396,0.789738655090332,-1.7568359375
1772701749255699000,8.873698974609376,0.09130872786045074,0.5780431628227234,-1.8468133211135864
1772701749265747000,8.883746826171874,-0.04193978011608124,0.5171872973442078,-1.9503554105758667
1772701749275796000,8.8937958984375,-0.17873013019561768,0.6048633456230164,-2.0003669261932373
1772701749285844000,8.903843994140624,-0.23394572734832764,0.6803279519081116,-2.009024143218994
1772701749295892000,8.91389208984375,-0.2633478045463562,0.6198707818984985,-1.9272587299346924
1772701749305941000,8.92394091796875,-0.2573184370994568,0.515662431716919,-1.778944492340088
1772701749315989000,8.933989013671875,-0.23414228856563568,0.3397108316421509,-1.5867295265197754
1772701749326037800,8.944037841796876,-0.22713106870651245,0.0871872678399086,-1.3697291612625122
1772701749336085800,8.954085693359374,-0.17500580847263336,0.010553477331995964,-1.0691388845443726
1772701749346134000,8.964134033203125,-0.08232210576534271,0.2433396875858307,-0.7155718803405762
1772701749356182800,8.974182861328124,-0.04062632843852043,0.6905587911605835,-0.3874507248401642
1772701749366231000,8.98423095703125,-0.006235168781131506,1.088982105255127,-0.12036698311567307
1772701749376279800,8.99427978515625,-0.02571725845336914,1.1890630722045898,0.04897916689515114
1772701749386328000,9.004328125,-0.12060783058404922,0.9666813611984253,0.08500862866640091
1772701749396375800,9.014375732421875,-0.24871626496315002,0.47936415672302246,0.04464443400502205
1772701749406425000,9.024425048828125,-0.34774458408355713,-0.10478316992521286,-0.02684919163584709
1772701749416472800,9.034472900390625,-0.40920528769493103,-0.5336272120475769,-0.018503377214074135
1772701749426522000,9.044522216796874,-0.4179697334766388,-0.5523766875267029,0.10512188822031021
1772701749436569900,9.05456982421875,-0.4341607093811035,-0.3702068626880646,0.24224965274333954
1772701749446619000,9.064618896484374,-0.44574734568595886,-0.19639810919761658,0.3624856173992157
1772701749456667000,9.0746669921875,-0.44369110465049744,-0.06571653485298157,0.442634254693985
1772701749466715000,9.08471484375,-0.43294093012809753,-0.02608673647046089,0.43944141268730164
1772701749476764000,9.094763916015625,-0.3845941424369812,0.0566057451069355,0.3288462162017822
1772701749486812000,9.10481201171875,-0.3338492512702942,0.2052881419658661,0.13618509471416473
1772701749496861000,9.11486083984375,-0.3329962491989136,0.4067877233028412,-0.07302405685186386
1772701749506909000,9.124908935546875,-0.37516242265701294,0.6253480911254883,-0.3091900944709778
1772701749516957000,9.13495703125,-0.41156652569770813,0.7565236687660217,-0.5693790912628174
1772701749527006000,9.145005859375,-0.4185589849948883,0.7754459381103516,-0.756774365901947
1772701749537053700,9.1550537109375,-0.38655978441238403,0.6814632415771484,-0.8475215435028076
1772701749547103000,9.16510302734375,-0.3149455487728119,0.5454261898994446,-0.8487632274627686
1772701749557150700,9.175150634765625,-0.2259882390499115,0.39448222517967224,-0.7828579545021057
1772701749567200000,9.185199951171874,-0.12375538796186447,0.2840009331703186,-0.6515234112739563
1772701749577247700,9.195247802734375,-0.02542935311794281,0.21432918310165405,-0.5043307542800903
1772701749587296000,9.2052958984375,0.046779487282037735,0.15411648154258728,-0.33631813526153564
1772701749597344800,9.2153447265625,0.0917767882347107,0.14750544726848602,-0.17912107706069946
1772701749607393000,9.22539306640625,0.11657746136188507,0.19085897505283356,-0.04323691874742508
1772701749617441800,9.23544189453125,0.13108742237091064,0.2267240285873413,0.058837782591581345
1772701749627489800,9.24548974609375,0.14545221626758575,0.2015598714351654,0.14976663887500763
1772701749637538000,9.2555380859375,0.15769316256046295,0.13047823309898376,0.23910930752754211
1772701749647586800,9.2655869140625,0.15931396186351776,0.0697179064154625,0.3317401111125946
1772701749657635000,9.275635009765624,0.15648356080055237,0.05255863070487976,0.41020214557647705
1772701749667683800,9.285683837890625,0.14497342705726624,0.005705576855689287,0.4509841799736023
1772701749677732000,9.295732177734376,0.11216754466295242,-0.1015673503279686,0.4356462359428406
1772701749687779800,9.30577978515625,0.07164813578128815,-0.18436361849308014,0.37432292103767395
1772701749697829000,9.3158291015625,0.02033807337284088,-0.16306152939796448,0.30481335520744324
1772701749707876900,9.325876953125,-0.017695283517241478,-0.09831281751394272,0.21821801364421844
1772701749717926100,9.335926025390625,-0.04039207473397255,-0.021456919610500336,0.12717118859291077
1772701749727974000,9.345973876953124,-0.053230468183755875,0.049250781536102295,0.054093003273010254
1772701749738023000,9.35602294921875,-0.05679937079548836,0.08943148702383041,0.009333787485957146
1772701749748071000,9.36607080078125,-0.05707486718893051,0.08945409208536148,0.018213791772723198
1772701749758119000,9.376118896484375,-0.05610254779458046,0.06224671006202698,0.07112786918878555
1772701749768168000,9.38616796875,-0.056292545050382614,0.013946600258350372,0.15255975723266602
1772701749778216000,9.3962158203125,-0.05044557526707649,-0.03911634907126427,0.25076326727867126
1772701749788265000,9.406264892578125,-0.02463711053133011,-0.08782956004142761,0.3457106351852417
1772701749798313000,9.41631298828125,0.02211867831647396,-0.12514762580394745,0.41362711787223816
1772701749808360700,9.426360595703125,0.06325745582580566,-0.1319047212600708,0.4592779874801636
1772701749818410000,9.436409912109376,0.08941448479890823,-0.09332402795553207,0.48244670033454895
1772701749828457700,9.446457763671875,0.0870489552617073,-0.05324927344918251,0.4827922582626343
1772701749838507000,9.456507080078126,0.061527084559202194,-0.02948455512523651,0.45383623242378235
1772701749848554800,9.4665546875,0.038705985993146896,-0.007919862866401672,0.4214116036891937
1772701749858604000,9.47660400390625,0.032683514058589935,-0.008667678572237492,0.3937796950340271
1772701749868651800,9.48665185546875,0.02523621916770935,-0.022424375638365746,0.3748154938220978
1772701749878700000,9.496699951171875,0.02728498913347721,-0.03557905927300453,0.3526793122291565
1772701749888748800,9.506748779296874,0.03301157057285309,-0.030364926904439926,0.33870312571525574
1772701749898796800,9.516796875,0.03145628422498703,-0.02551477774977684,0.31230056285858154
1772701749908845800,9.526845703125,0.025341760367155075,-0.023834969848394394,0.2806533873081207
1772701749918893800,9.536893798828125,0.017641495913267136,-0.01900452747941017,0.24885524809360504
1772701749928942000,9.546942138671875,0.007221064064651728,0.015755511820316315,0.23785194754600525
1772701749938990800,9.556990966796874,0.012116487137973309,-0.08556018769741058,0.35067835450172424
1772701749949039000,9.5670390625,0.03472687676548958,-0.5633083581924438,0.3916584253311157
1772701749959087900,9.577087890625,0.034222476184368134,-0.6542326807975769,0.461417019367218
1772701749969135900,9.587135986328125,0.012290752492845058,-0.6113495230674744,0.3438742458820343
1772701749979185000,9.597184814453126,-0.0022226767614483833,-0.45033690333366394,0.21185733377933502
1772701749989233000,9.60723291015625,-0.02694295160472393,-0.18837116658687592,0.10940508544445038
1772701749999281000,9.617281005859375,-0.04650174081325531,0.04259307682514191,0.02468780428171158
1772701750009330000,9.627329833984374,-0.05121840536594391,0.22281573712825775,-0.011558709666132927
1772701750019378000,9.6373779296875,-0.046925123780965805,0.297949880361557,-0.007415896747261286
1772701750029426700,9.6474267578125,-0.056720055639743805,0.2391296923160553,0.03968025743961334
1772701750039475000,9.657474853515625,-0.059301190078258514,0.05756708234548569,0.10678126662969589
1772701750049523000,9.66752294921875,-0.08602646738290787,-0.1183541789650917,0.10623220354318619
