time,seconds_elapsed,z,y,x
1772702903375942100,0.051942138671875,-0.387359619140625,0.3953094482421875,0.8274383544921875
1772702903385992000,0.061991943359375,-0.3867645263671875,0.394989013671875,0.8302154541015625
1772702903396043000,0.07204296875,-0.3908538818359375,0.3964080810546875,0.8309326171875
1772702903406093000,0.082093017578125,-0.393585205078125,0.395477294921875,0.8316650390625
1772702903416143000,0.09214306640625,-0.391754150390625,0.3954315185546875,0.832550048828125
1772702903426193200,0.102193115234375,-0.3894500732421875,0.396453857421875,0.8306732177734375
1772702903436243000,0.112242919921875,-0.388427734375,0.3947601318359375,0.8301849365234375
1772702903446293000,0.12229296875,-0.38787841796875,0.3966827392578125,0.83056640625
1772702903456344000,0.132343994140625,-0.3865814208984375,0.397308349609375,0.831512451171875
1772702903466394000,0.14239404296875,-0.389129638671875,0.397186279296875,0.8297576904296875
1772702903476444200,0.152444091796875,-0.39239501953125,0.3958740234375,0.8306884765625
1772702903486494000,0.162493896484375,-0.3909759521484375,0.396240234375,0.831268310546875
1772702903496544000,0.1725439453125,-0.3887176513671875,0.397552490234375,0.832305908203125
1772702903506594300,0.18259423828125,-0.389495849609375,0.3978271484375,0.8296661376953125
1772702903516645000,0.19264501953125,-0.3928985595703125,0.3982696533203125,0.8292999267578125
1772702903526695200,0.202695068359375,-0.393402099609375,0.396514892578125,0.8300018310546875
1772702903536745000,0.212744873046875,-0.3917236328125,0.3964385986328125,0.83074951171875
1772702903546795000,0.222794921875,-0.392822265625,0.396514892578125,0.831390380859375
1772702903556845300,0.23284521484375,-0.3940887451171875,0.396087646484375,0.83056640625
1772702903566896000,0.242896240234375,-0.3949432373046875,0.3981475830078125,0.8300018310546875
1772702903576946200,0.2529462890625,-0.39276123046875,0.3992156982421875,0.8292236328125
1772702903586996000,0.262995849609375,-0.39117431640625,0.3983306884765625,0.829559326171875
1772702903597046000,0.2730458984375,-0.3909149169921875,0.39788818359375,0.83135986328125
1772702903607096300,0.283096435546875,-0.3949737548828125,0.39630126953125,0.8311920166015625
1772702903617147100,0.293147216796875,-0.394500732421875,0.395660400390625,0.83331298828125
1772702903627197000,0.303197021484375,-0.3928985595703125,0.3940277099609375,0.8339996337890625
1772702903637247000,0.3132470703125,-0.391510009765625,0.3950042724609375,0.8318939208984375
1772702903647297000,0.323297119140625,-0.3917388916015625,0.3953857421875,0.8294830322265625
1772702903657347300,0.333347412109375,-0.3955078125,0.3951416015625,0.8294830322265625
1772702903667397000,0.343397216796875,-0.397308349609375,0.3959808349609375,0.8294830322265625
1772702903677448000,0.353447998046875,-0.3975830078125,0.395416259765625,0.8318939208984375
1772702903687498000,0.363498046875,-0.394775390625,0.3941192626953125,0.8334808349609375
1772702903697548000,0.373548095703125,-0.3942108154296875,0.3957672119140625,0.8311767578125
1772702903707598300,0.383598388671875,-0.3935699462890625,0.39569091796875,0.8309326171875
1772702903717648100,0.393648193359375,-0.39385986328125,0.3962554931640625,0.830291748046875
1772702903727698200,0.4036982421875,-0.3927764892578125,0.397857666015625,0.8289794921875
1772702903737749000,0.4137490234375,-0.3934478759765625,0.3960418701171875,0.8272857666015625
1772702903747799000,0.423799072265625,-0.3944549560546875,0.3944549560546875,0.8287200927734375
1772702903757849300,0.433849365234375,-0.3949737548828125,0.3935546875,0.828338623046875
1772702903767899100,0.443899169921875,-0.39373779296875,0.3924713134765625,0.8300933837890625
1772702903777949200,0.45394921875,-0.394744873046875,0.3930816650390625,0.830291748046875
1772702903788000000,0.464,-0.39373779296875,0.3943328857421875,0.8285369873046875
1772702903798050000,0.474050048828125,-0.394927978515625,0.393035888671875,0.8294219970703125
1772702903808100000,0.48410009765625,-0.394805908203125,0.392333984375,0.831451416015625
1772702903818150100,0.494150146484375,-0.3945159912109375,0.391815185546875,0.831939697265625
1772702903828200200,0.5042001953125,-0.3934326171875,0.3925933837890625,0.831756591796875
1772702903838250200,0.514250244140625,-0.393798828125,0.3923187255859375,0.8330535888671875
1772702903848301000,0.524301025390625,-0.3954315185546875,0.3918609619140625,0.8321533203125
1772702903858351000,0.53435107421875,-0.393341064453125,0.3928070068359375,0.8340911865234375
1772702903868401200,0.544401123046875,-0.3938446044921875,0.3950042724609375,0.8332366943359375
1772702903878451200,0.554451171875,-0.393829345703125,0.3932952880859375,0.83331298828125
1772702903888501200,0.564501220703125,-0.39520263671875,0.3936614990234375,0.8310699462890625
1772702903898552000,0.574552001953125,-0.3916473388671875,0.3947296142578125,0.8311614990234375
1772702903908602000,0.58460205078125,-0.3919830322265625,0.39422607421875,0.83221435546875
1772702903918652200,0.594652099609375,-0.3913726806640625,0.3930206298828125,0.8336944580078125
1772702903928702200,0.6047021484375,-0.3928680419921875,0.3923187255859375,0.8327789306640625
1772702903938752300,0.614752197265625,-0.3939666748046875,0.392364501953125,0.8324127197265625
1772702903948802300,0.62480224609375,-0.3936309814453125,0.393218994140625,0.8324432373046875
1772702903958853000,0.63485302734375,-0.3942413330078125,0.393280029296875,0.829071044921875
1772702903968903200,0.644903076171875,-0.3925933837890625,0.3923187255859375,0.83038330078125
1772702903978953200,0.654953125,-0.39276123046875,0.393157958984375,0.830352783203125
1772702903989003300,0.665003173828125,-0.390625,0.39306640625,0.8309478759765625
1772702903999053300,0.67505322265625,-0.390838623046875,0.392578125,0.8301544189453125
1772702904009104100,0.685104248046875,-0.391357421875,0.39178466796875,0.8301239013671875
1772702904019154200,0.695154296875,-0.3929443359375,0.3922576904296875,0.83221435546875
1772702904029204200,0.705204345703125,-0.3930511474609375,0.3911285400390625,0.8329620361328125
1772702904039254300,0.715254150390625,-0.3927764892578125,0.393463134765625,0.830108642578125
1772702904049304300,0.72530419921875,-0.393035888671875,0.395263671875,0.8281097412109375
1772702904059354000,0.73535400390625,-0.3918304443359375,0.394073486328125,0.8283538818359375
1772702904069405200,0.7454052734375,-0.3906707763671875,0.3950042724609375,0.827728271484375
1772702904079455200,0.755455322265625,-0.3892822265625,0.3946533203125,0.82952880859375
1772702904089505300,0.76550537109375,-0.390869140625,0.3941802978515625,0.8306884765625
1772702904099554800,0.775554931640625,-0.3945159912109375,0.3950958251953125,0.831329345703125
1772702904109604900,0.78560498046875,-0.3946990966796875,0.3969573974609375,0.8316497802734375
1772702904119656000,0.795656005859375,-0.395599365234375,0.3955841064453125,0.831787109375
1772702904129706000,0.8057060546875,-0.395538330078125,0.393951416015625,0.8320465087890625
1772702904139756000,0.815756103515625,-0.393463134765625,0.3951873779296875,0.8317718505859375
1772702904149805800,0.825805908203125,-0.39208984375,0.3961944580078125,0.8323974609375
1772702904159855900,0.83585595703125,-0.39361572265625,0.3955535888671875,0.8319854736328125
1772702904169906000,0.845906005859375,-0.39581298828125,0.396270751953125,0.829864501953125
1772702904179957000,0.85595703125,-0.39471435546875,0.3955841064453125,0.8281707763671875
1772702904190006800,0.8660068359375,-0.39337158203125,0.395751953125,0.8309783935546875
1772702904200056800,0.876056884765625,-0.3946685791015625,0.39691162109375,0.830535888671875
1772702904210107000,0.88610693359375,-0.3966522216796875,0.39654541015625,0.829986572265625
1772702904220157000,0.896156982421875,-0.3970184326171875,0.396820068359375,0.8292999267578125
1772702904230208000,0.9062080078125,-0.3963623046875,0.3968505859375,0.829742431640625
1772702904240257800,0.9162578125,-0.395599365234375,0.39593505859375,0.8303070068359375
1772702904250307800,0.926307861328125,-0.3989715576171875,0.39605712890625,0.8262939453125
1772702904260358000,0.93635791015625,-0.396942138671875,0.3968353271484375,0.826324462890625
1772702904270408000,0.946407958984375,-0.3951568603515625,0.3954925537109375,0.8258819580078125
1772702904280457700,0.956457763671875,-0.39691162109375,0.396484375,0.8293914794921875
1772702904290508800,0.9665087890625,-0.39739990234375,0.3952484130859375,0.829864501953125
1772702904300558800,0.976558837890625,-0.3945465087890625,0.3964691162109375,0.8293609619140625
1772702904310609000,0.98660888671875,-0.3962249755859375,0.3956756591796875,0.827728271484375
1772702904320659000,0.996658935546875,-0.3987884521484375,0.3954010009765625,0.8290557861328125
1772702904330708700,1.006708740234375,-0.39825439453125,0.394012451171875,0.82928466796875
1772702904340759800,1.016759765625,-0.3963470458984375,0.3941802978515625,0.8294219970703125
1772702904350809900,1.026809814453125,-0.3951416015625,0.3941650390625,0.8298187255859375
1772702904360860000,1.03685986328125,-0.3935699462890625,0.3941802978515625,0.8307952880859375
1772702904370910000,1.046909912109375,-0.3946075439453125,0.395721435546875,0.8291015625
1772702904380959700,1.056959716796875,-0.3949737548828125,0.395843505859375,0.8258056640625
1772702904391009800,1.067009765625,-0.398681640625,0.3967132568359375,0.8291778564453125
1772702904401060900,1.077060791015625,-0.39971923828125,0.396697998046875,0.8296051025390625
1772702904411111000,1.08711083984375,-0.3996124267578125,0.395721435546875,0.8312530517578125
1772702904421161000,1.097160888671875,-0.398834228515625,0.3961639404296875,0.8347320556640625
1772702904431210800,1.107210693359375,-0.394195556640625,0.395294189453125,0.8334503173828125
1772702904441260800,1.1172607421875,-0.3907928466796875,0.3950347900390625,0.8335113525390625
1772702904451310800,1.127310791015625,-0.39215087890625,0.394775390625,0.8294830322265625
1772702904461362000,1.13736181640625,-0.396881103515625,0.396514892578125,0.8243408203125
1772702904471412000,1.147411865234375,-0.398681640625,0.395843505859375,0.824859619140625
1772702904481461800,1.157461669921875,-0.3966064453125,0.394317626953125,0.827484130859375
1772702904491511800,1.16751171875,-0.397064208984375,0.38958740234375,0.83062744140625
1772702904501561900,1.177561767578125,-0.3989715576171875,0.3889312744140625,0.8275604248046875
1772702904511613000,1.187613037109375,-0.399017333984375,0.3898773193359375,0.8255615234375
1772702904521663000,1.1976630859375,-0.39794921875,0.3910675048828125,0.8278350830078125
1772702904531712800,1.207712646484375,-0.3961639404296875,0.3917694091796875,0.8265380859375
1772702904541762800,1.2177626953125,-0.395660400390625,0.3923187255859375,0.825958251953125
1772702904551812900,1.227812744140625,-0.39581298828125,0.3906097412109375,0.82611083984375
1772702904561863000,1.23786279296875,-0.394927978515625,0.393829345703125,0.8294830322265625
1772702904571914000,1.2479140625,-0.397186279296875,0.3931732177734375,0.82977294921875
1772702904581963800,1.2579638671875,-0.39599609375,0.3937835693359375,0.8316802978515625
1772702904592013800,1.268013916015625,-0.3966827392578125,0.39361572265625,0.8324127197265625
1772702904602064000,1.27806396484375,-0.3964080810546875,0.3934783935546875,0.8323974609375
1772702904612114000,1.288114013671875,-0.395355224609375,0.39422607421875,0.8315277099609375
1772702904622165000,1.2981650390625,-0.3966827392578125,0.3952178955078125,0.8308563232421875
1772702904632214800,1.30821484375,-0.3971710205078125,0.3945770263671875,0.832763671875
1772702904642264800,1.318264892578125,-0.396728515625,0.3936920166015625,0.8334503173828125
1772702904652315000,1.32831494140625,-0.3967437744140625,0.39404296875,0.830169677734375
1772702904662365000,1.338364990234375,-0.3964996337890625,0.393310546875,0.8303070068359375
1772702904672414700,1.348414794921875,-0.3946990966796875,0.39593505859375,0.8285064697265625
1772702904682465800,1.3584658203125,-0.3935699462890625,0.3968963623046875,0.82623291015625
1772702904692515800,1.368515869140625,-0.39630126953125,0.3941192626953125,0.8265533447265625
1772702904702566000,1.37856591796875,-0.397735595703125,0.3938140869140625,0.8303375244140625
1772702904712616000,1.388615966796875,-0.395782470703125,0.3924713134765625,0.831817626953125
1772702904722665700,1.398665771484375,-0.39630126953125,0.393585205078125,0.8307342529296875
1772702904732716800,1.408716796875,-0.39776611328125,0.3917999267578125,0.8285675048828125
1772702904742766800,1.418766845703125,-0.3988189697265625,0.391571044921875,0.82861328125
1772702904752817000,1.42881689453125,-0.3997344970703125,0.39337158203125,0.826263427734375
1772702904762866700,1.43886669921875,-0.3966522216796875,0.3943634033203125,0.826080322265625
1772702904772916700,1.448916748046875,-0.395233154296875,0.39385986328125,0.826568603515625
1772702904782966800,1.458966796875,-0.39556884765625,0.3923187255859375,0.8271484375
1772702904793017900,1.469017822265625,-0.3981170654296875,0.393585205078125,0.828369140625
1772702904803068000,1.47906787109375,-0.3970184326171875,0.3930511474609375,0.8252105712890625
1772702904813117700,1.48911767578125,-0.3976898193359375,0.392608642578125,0.8262939453125
1772702904823167700,1.499167724609375,-0.39825439453125,0.3919525146484375,0.830474853515625
1772702904833217800,1.5092177734375,-0.3994293212890625,0.39495849609375,0.8294525146484375
1772702904843268900,1.519268798828125,-0.4011688232421875,0.3968353271484375,0.8265533447265625
1772702904853319000,1.52931884765625,-0.3975067138671875,0.3966827392578125,0.8274078369140625
1772702904863368700,1.53936865234375,-0.39801025390625,0.3966827392578125,0.828948974609375
1772702904873418800,1.549418701171875,-0.3995819091796875,0.397369384765625,0.828887939453125
1772702904883468800,1.55946875,-0.39996337890625,0.395751953125,0.828369140625
1772702904893518800,1.569518798828125,-0.3984832763671875,0.3968353271484375,0.8290252685546875
1772702904903570000,1.57956982421875,-0.3991241455078125,0.396636962890625,0.827178955078125
1772702904913619700,1.58961962890625,-0.39910888671875,0.39697265625,0.828277587890625
1772702904923669800,1.599669677734375,-0.399566650390625,0.397003173828125,0.8297119140625
1772702904933719800,1.6097197265625,-0.39984130859375,0.39715576171875,0.8302001953125
1772702904943769900,1.619769775390625,-0.3999176025390625,0.397186279296875,0.8285369873046875
1772702904953821000,1.629821044921875,-0.401397705078125,0.3948822021484375,0.8278656005859375
1772702904963870700,1.63987060546875,-0.401611328125,0.3959197998046875,0.8278656005859375
1772702904973920800,1.649920654296875,-0.4006195068359375,0.3960723876953125,0.82861328125
1772702904983970800,1.659970703125,-0.4015350341796875,0.3955535888671875,0.8273468017578125
1772702904994020900,1.670020751953125,-0.4015350341796875,0.395416259765625,0.82537841796875
1772702905004070700,1.680070556640625,-0.4028472900390625,0.3943023681640625,0.8253936767578125
1772702905014121700,1.690121826171875,-0.4008026123046875,0.3952789306640625,0.8257293701171875
1772702905024171800,1.700171875,-0.39971923828125,0.3945159912109375,0.8253631591796875
1772702905034221800,1.710221923828125,-0.4004364013671875,0.3932037353515625,0.824615478515625
1772702905044271900,1.72027197265625,-0.40179443359375,0.3943023681640625,0.8237762451171875
1772702905054321700,1.73032177734375,-0.4006805419921875,0.3934783935546875,0.8244171142578125
1772702905064371700,1.740371826171875,-0.3993377685546875,0.3928375244140625,0.8269195556640625
1772702905074422800,1.7504228515625,-0.3985137939453125,0.39385986328125,0.8268280029296875
1772702905084472800,1.760472900390625,-0.3974609375,0.394317626953125,0.82794189453125
1772702905094523000,1.77052294921875,-0.397308349609375,0.3952178955078125,0.82476806640625
1772702905104572700,1.78057275390625,-0.3998565673828125,0.395111083984375,0.82623291015625
1772702905114622700,1.790622802734375,-0.4029541015625,0.3948974609375,0.8276824951171875
1772702905124673800,1.800673828125,-0.4024505615234375,0.39501953125,0.827606201171875
1772702905134723600,1.8107236328125,-0.4009857177734375,0.3963470458984375,0.8279876708984375
1772702905144773600,1.820773681640625,-0.399627685546875,0.398651123046875,0.8304901123046875
1772702905154823700,1.83082373046875,-0.3978729248046875,0.3980255126953125,0.83258056640625
1772702905164873700,1.840873779296875,-0.3968505859375,0.3968963623046875,0.8304290771484375
1772702905174923800,1.850923828125,-0.3979339599609375,0.39434814453125,0.8278350830078125
1772702905184974600,1.860974609375,-0.3986968994140625,0.3962860107421875,0.827850341796875
1772702905195024600,1.871024658203125,-0.4013824462890625,0.3980255126953125,0.8277740478515625
1772702905205074700,1.88107470703125,-0.401611328125,0.39404296875,0.8276824951171875
1772702905215124700,1.891124755859375,-0.4009246826171875,0.3922576904296875,0.826751708984375
1772702905225174800,1.9011748046875,-0.39996337890625,0.3922882080078125,0.82647705078125
1772702905235225600,1.9112255859375,-0.3979339599609375,0.394073486328125,0.8261871337890625
1772702905245275600,1.921275634765625,-0.3972930908203125,0.3936767578125,0.82537841796875
1772702905255325700,1.93132568359375,-0.3980255126953125,0.3930511474609375,0.826690673828125
1772702905265375700,1.941375732421875,-0.3973846435546875,0.3950347900390625,0.82666015625
1772702905275425800,1.95142578125,-0.3975830078125,0.395538330078125,0.8291015625
1772702905285475800,1.961475830078125,-0.3997650146484375,0.3945770263671875,0.826812744140625
1772702905295526700,1.971526611328125,-0.399871826171875,0.392852783203125,0.8305511474609375
1772702905305576700,1.98157666015625,-0.40045166015625,0.393768310546875,0.8328857421875
1772702905315626800,1.991626708984375,-0.3984527587890625,0.3958282470703125,0.8334808349609375
1772702905325676800,2.0016767578125,-0.3981475830078125,0.3950347900390625,0.8321990966796875
1772702905335726800,2.011726806640625,-0.397491455078125,0.393707275390625,0.82830810546875
1772702905345777700,2.021777587890625,-0.3976898193359375,0.3946685791015625,0.828125
1772702905355827700,2.03182763671875,-0.3954010009765625,0.3936614990234375,0.829559326171875
1772702905365877800,2.041877685546875,-0.393798828125,0.3947906494140625,0.8294525146484375
1772702905375927800,2.051927734375,-0.3975830078125,0.3938751220703125,0.828125
1772702905385977900,2.061977783203125,-0.3986663818359375,0.3946380615234375,0.8273773193359375
1772702905396028000,2.07202783203125,-0.397857666015625,0.3952178955078125,0.825927734375
1772702905406078700,2.08207861328125,-0.3978424072265625,0.3948822021484375,0.8275909423828125
1772702905416128800,2.092128662109375,-0.3986053466796875,0.39532470703125,0.8286285400390625
1772702905426178800,2.1021787109375,-0.3970947265625,0.393707275390625,0.83062744140625
1772702905436228900,2.112228759765625,-0.3973541259765625,0.3924560546875,0.830810546875
1772702905446279000,2.12227880859375,-0.3973846435546875,0.3933258056640625,0.8299560546875
1772702905456329000,2.132328857421875,-0.3980560302734375,0.394805908203125,0.8275299072265625
1772702905466379800,2.1423798828125,-0.39642333984375,0.3964385986328125,0.82763671875
1772702905476429800,2.152429931640625,-0.397125244140625,0.3974456787109375,0.825897216796875
1772702905486480000,2.16247998046875,-0.3966064453125,0.3958282470703125,0.826324462890625
1772702905496530000,2.172530029296875,-0.39752197265625,0.3947296142578125,0.8268890380859375
1772702905506580000,2.182580078125,-0.39678955078125,0.3966522216796875,0.8279571533203125
1772702905516630500,2.192630615234375,-0.3954010009765625,0.3973236083984375,0.828948974609375
1772702905526680800,2.202680908203125,-0.39593505859375,0.3968963623046875,0.829742431640625
1772702905536731000,2.21273095703125,-0.3958892822265625,0.397613525390625,0.8286895751953125
1772702905546781000,2.222781005859375,-0.3983612060546875,0.39739990234375,0.8261566162109375
1772702905556831000,2.2328310546875,-0.39990234375,0.3983001708984375,0.828125
1772702905566880800,2.242880859375,-0.3980712890625,0.3964385986328125,0.82989501953125
1772702905576931800,2.252931884765625,-0.3959197998046875,0.3969879150390625,0.828399658203125
1772702905586982000,2.26298193359375,-0.396270751953125,0.3977508544921875,0.8276519775390625
1772702905597032000,2.273031982421875,-0.3937530517578125,0.39849853515625,0.827056884765625
1772702905607081700,2.283081787109375,-0.3955078125,0.39874267578125,0.8288421630859375
1772702905617131800,2.2931318359375,-0.3962554931640625,0.3983154296875,0.8290863037109375
1772702905627182800,2.303182861328125,-0.396759033203125,0.3970794677734375,0.8289031982421875
1772702905637233000,2.31323291015625,-0.397186279296875,0.397735595703125,0.8281402587890625
1772702905647283000,2.323282958984375,-0.398895263671875,0.3962554931640625,0.8275909423828125
1772702905657332700,2.333332763671875,-0.3964080810546875,0.3948822021484375,0.8311004638671875
1772702905667382800,2.3433828125,-0.394195556640625,0.3954010009765625,0.8314056396484375
1772702905677432800,2.353432861328125,-0.3934326171875,0.396575927734375,0.8289337158203125
1772702905687484000,2.36348388671875,-0.393585205078125,0.3954010009765625,0.8292236328125
1772702905697534000,2.373533935546875,-0.396636962890625,0.3965301513671875,0.8296051025390625
1772702905707583700,2.383583740234375,-0.395843505859375,0.396240234375,0.830780029296875
1772702905717633800,2.3936337890625,-0.3954315185546875,0.3984832763671875,0.8281097412109375
1772702905727683800,2.403683837890625,-0.3967437744140625,0.3973846435546875,0.8299713134765625
1772702905737734000,2.41373388671875,-0.3955535888671875,0.3944244384765625,0.8294830322265625
1772702905747785000,2.423784912109375,-0.3947906494140625,0.3936614990234375,0.8316192626953125
1772702905757834800,2.433834716796875,-0.3931732177734375,0.393890380859375,0.8310546875
1772702905767884800,2.443884765625,-0.3928070068359375,0.3941650390625,0.8305816650390625
1772702905777934800,2.453934814453125,-0.391693115234375,0.39666748046875,0.8302459716796875
1772702905787985000,2.46398486328125,-0.3913421630859375,0.395721435546875,0.827423095703125
1772702905798036000,2.474035888671875,-0.3931121826171875,0.398468017578125,0.82708740234375
1772702905808085800,2.484085693359375,-0.3957977294921875,0.3984527587890625,0.826751708984375
1772702905818135800,2.4941357421875,-0.3982696533203125,0.3968048095703125,0.8271942138671875
1772702905828185900,2.504185791015625,-0.3953399658203125,0.39495849609375,0.828857421875
1772702905838236000,2.51423583984375,-0.3919830322265625,0.39727783203125,0.8309326171875
1772702905848285700,2.52428564453125,-0.390625,0.3980560302734375,0.83209228515625
1772702905858336800,2.534336669921875,-0.3914947509765625,0.39642333984375,0.831634521484375
1772702905868386800,2.54438671875,-0.3909454345703125,0.3961944580078125,0.830047607421875
1772702905878436900,2.554436767578125,-0.39141845703125,0.3987579345703125,0.8300628662109375
1772702905888487000,2.56448681640625,-0.394195556640625,0.3974456787109375,0.827117919921875
1772702905898536700,2.57453662109375,-0.3961181640625,0.39453125,0.82843017578125
1772702905908587800,2.584587890625,-0.395111083984375,0.3948516845703125,0.831512451171875
1772702905918637800,2.594637939453125,-0.3929290771484375,0.3943634033203125,0.830810546875
1772702905928687900,2.60468798828125,-0.39215087890625,0.3944549560546875,0.8319244384765625
1772702905938738000,2.614738037109375,-0.392242431640625,0.3955841064453125,0.8293304443359375
1772702905948787700,2.62478759765625,-0.3919830322265625,0.3987884521484375,0.8278045654296875
1772702905958837800,2.634837646484375,-0.3944244384765625,0.3971710205078125,0.827301025390625
1772702905968888800,2.644888916015625,-0.394805908203125,0.3956451416015625,0.828033447265625
1772702905978939000,2.65493896484375,-0.3932037353515625,0.395355224609375,0.828460693359375
1772702905988989000,2.664989013671875,-0.3919525146484375,0.397216796875,0.8307342529296875
1772702905999038700,2.675038818359375,-0.391021728515625,0.3961334228515625,0.831512451171875
1772702906009088800,2.6850888671875,-0.3923797607421875,0.397003173828125,0.8332672119140625
1772702906019139800,2.695139892578125,-0.391510009765625,0.3993072509765625,0.8331298828125
1772702906029190000,2.70518994140625,-0.39288330078125,0.39776611328125,0.83197021484375
1772702906039240000,2.715239990234375,-0.3929595947265625,0.39703369140625,0.830291748046875
1772702906049289700,2.725289794921875,-0.3932037353515625,0.39666748046875,0.8299102783203125
1772702906059339800,2.73533984375,-0.3919677734375,0.3971099853515625,0.8303985595703125
1772702906069389800,2.745389892578125,-0.392547607421875,0.39935302734375,0.830902099609375
1772702906079441000,2.75544091796875,-0.39190673828125,0.3984375,0.8292694091796875
1772702906089490700,2.76549072265625,-0.393157958984375,0.3964385986328125,0.82806396484375
1772702906099540700,2.775540771484375,-0.391693115234375,0.3972625732421875,0.827850341796875
1772702906109590500,2.785590576171875,-0.3907012939453125,0.39794921875,0.8309173583984375
1772702906119640600,2.795640625,-0.393157958984375,0.397064208984375,0.831207275390625
1772702906129690600,2.805690673828125,-0.3903045654296875,0.3956146240234375,0.831146240234375
1772702906139741700,2.81574169921875,-0.389892578125,0.396514892578125,0.8333892822265625
1772702906149791700,2.825791748046875,-0.39111328125,0.3963165283203125,0.835357666015625
1772702906159841500,2.835841552734375,-0.39154052734375,0.397125244140625,0.831573486328125
1772702906169891600,2.8458916015625,-0.3923797607421875,0.39801025390625,0.8282928466796875
1772702906179941600,2.855941650390625,-0.3923797607421875,0.3975372314453125,0.8292083740234375
1772702906189992700,2.86599267578125,-0.3941497802734375,0.396697998046875,0.8291473388671875
1772702906200042800,2.876042724609375,-0.391876220703125,0.3974761962890625,0.8293914794921875
1772702906210092500,2.886092529296875,-0.3890838623046875,0.396392822265625,0.8305816650390625
1772702906220142600,2.896142578125,-0.3892364501953125,0.3946533203125,0.830352783203125
1772702906230192600,2.906192626953125,-0.3906707763671875,0.3931121826171875,0.833160400390625
1772702906240242700,2.91624267578125,-0.39056396484375,0.393707275390625,0.831878662109375
1772702906250293800,2.926293701171875,-0.3910369873046875,0.3952789306640625,0.8311309814453125
1772702906260343600,2.936343505859375,-0.3902130126953125,0.3982391357421875,0.8297119140625
1772702906270393600,2.9463935546875,-0.392242431640625,0.398834228515625,0.828277587890625
1772702906280443600,2.956443603515625,-0.392486572265625,0.3990325927734375,0.8299407958984375
1772702906290493700,2.96649365234375,-0.3904571533203125,0.3995513916015625,0.830963134765625
1772702906300544800,2.976544677734375,-0.389801025390625,0.3984832763671875,0.8318328857421875
1772702906310594600,2.986594482421875,-0.3885040283203125,0.3974761962890625,0.82958984375
1772702906320644600,2.99664453125,-0.3925933837890625,0.3964996337890625,0.8321380615234375
1772702906330694700,3.006694580078125,-0.3929290771484375,0.396026611328125,0.83221435546875
1772702906340744700,3.01674462890625,-0.3919525146484375,0.397796630859375,0.829833984375
1772702906350794500,3.02679443359375,-0.3907012939453125,0.398773193359375,0.8287200927734375
1772702906360845600,3.036845458984375,-0.390899658203125,0.399566650390625,0.8293914794921875
1772702906370895600,3.0468955078125,-0.3914337158203125,0.3983917236328125,0.83123779296875
1772702906380945700,3.056945556640625,-0.3918609619140625,0.3972930908203125,0.8309783935546875
1772702906390995700,3.06699560546875,-0.3918609619140625,0.397735595703125,0.8324127197265625
1772702906401045500,3.07704541015625,-0.3923492431640625,0.395477294921875,0.83319091796875
1772702906411095600,3.087095458984375,-0.39178466796875,0.3949432373046875,0.832977294921875
1772702906421146600,3.097146728515625,-0.3921661376953125,0.3965301513671875,0.832305908203125
1772702906431196700,3.10719677734375,-0.392730712890625,0.3969268798828125,0.831939697265625
1772702906441246700,3.117246826171875,-0.3898162841796875,0.3957061767578125,0.8316497802734375
1772702906451296500,3.127296630859375,-0.39111328125,0.3964080810546875,0.828216552734375
1772702906461346600,3.1373466796875,-0.390625,0.396148681640625,0.827728271484375
1772702906471397600,3.147397705078125,-0.3910980224609375,0.3955841064453125,0.8303070068359375
1772702906481447700,3.15744775390625,-0.391845703125,0.3953094482421875,0.831634521484375
1772702906491497700,3.167497802734375,-0.3898468017578125,0.39508056640625,0.8332672119140625
1772702906501547500,3.177547607421875,-0.3906707763671875,0.395721435546875,0.8345184326171875
1772702906511597600,3.18759765625,-0.3900604248046875,0.3953857421875,0.830718994140625
1772702906521647600,3.197647705078125,-0.390167236328125,0.394561767578125,0.8307647705078125
1772702906531698700,3.20769873046875,-0.39263916015625,0.395416259765625,0.8306732177734375
1772702906541748500,3.21774853515625,-0.392852783203125,0.39617919921875,0.831298828125
1772702906551798500,3.227798583984375,-0.390289306640625,0.3950653076171875,0.83221435546875
1772702906561848600,3.2378486328125,-0.3902435302734375,0.393829345703125,0.8316192626953125
1772702906571898600,3.247898681640625,-0.391204833984375,0.3956756591796875,0.832611083984375
1772702906581948700,3.25794873046875,-0.3892822265625,0.3956756591796875,0.8316192626953125
1772702906591999500,3.26799951171875,-0.38909912109375,0.3963775634765625,0.8288116455078125
1772702906602049500,3.278049560546875,-0.39117431640625,0.3962249755859375,0.829315185546875
1772702906612099600,3.288099609375,-0.3932647705078125,0.3973236083984375,0.8308563232421875
1772702906622149600,3.298149658203125,-0.39190673828125,0.3944091796875,0.832489013671875
1772702906632199400,3.308199462890625,-0.3883514404296875,0.393707275390625,0.8328704833984375
1772702906642250500,3.31825048828125,-0.388946533203125,0.3958740234375,0.8321533203125
1772702906652300500,3.328300537109375,-0.391845703125,0.393890380859375,0.829620361328125
1772702906662350600,3.3383505859375,-0.3939056396484375,0.3968353271484375,0.829833984375
1772702906672400600,3.348400634765625,-0.3927154541015625,0.39556884765625,0.830474853515625
1772702906682450400,3.358450439453125,-0.392852783203125,0.3938140869140625,0.829681396484375
1772702906692500500,3.36850048828125,-0.39404296875,0.3932037353515625,0.832916259765625
1772702906702551600,3.378551513671875,-0.39422607421875,0.3924560546875,0.8322296142578125
1772702906712601600,3.3886015625,-0.393310546875,0.3924560546875,0.8338165283203125
1772702906722651600,3.398651611328125,-0.389801025390625,0.3928985595703125,0.8354339599609375
1772702906732701400,3.408701416015625,-0.390472412109375,0.3931427001953125,0.8344268798828125
1772702906742751500,3.41875146484375,-0.3929595947265625,0.396484375,0.834869384765625
1772702906752802600,3.428802490234375,-0.3916168212890625,0.3961181640625,0.834991455078125
1772702906762852600,3.4388525390625,-0.3925933837890625,0.395751953125,0.8332061767578125
1772702906772902700,3.448902587890625,-0.392791748046875,0.3948974609375,0.83038330078125
1772702906782952400,3.458952392578125,-0.3929901123046875,0.3948822021484375,0.83026123046875
1772702906793002500,3.46900244140625,-0.3928680419921875,0.3941192626953125,0.833740234375
1772702906803052500,3.479052490234375,-0.390716552734375,0.393646240234375,0.8325042724609375
1772702906813103600,3.489103515625,-0.390106201171875,0.39495849609375,0.829010009765625
1772702906823153700,3.499153564453125,-0.3910675048828125,0.396881103515625,0.8285064697265625
1772702906833203500,3.509203369140625,-0.39178466796875,0.396881103515625,0.8290863037109375
1772702906843253500,3.51925341796875,-0.39337158203125,0.3974456787109375,0.832183837890625
1772702906853303600,3.529303466796875,-0.3900909423828125,0.3953399658203125,0.8334808349609375
1772702906863353900,3.539353759765625,-0.3905029296875,0.3942108154296875,0.8330841064453125
1772702906873404700,3.54940478515625,-0.388824462890625,0.39447021484375,0.83056640625
1772702906883454500,3.559454345703125,-0.391448974609375,0.3946075439453125,0.8299560546875
1772702906893504500,3.56950439453125,-0.3936309814453125,0.396209716796875,0.83026123046875
1772702906903554600,3.579554443359375,-0.3919219970703125,0.3940887451171875,0.83233642578125
1772702906913604900,3.58960498046875,-0.3922119140625,0.393829345703125,0.8305206298828125
1772702906923655700,3.59965576171875,-0.3913421630859375,0.3932647705078125,0.8308258056640625
1772702906933705500,3.60970556640625,-0.392608642578125,0.39349365234375,0.8306427001953125
1772702906943755500,3.619755615234375,-0.3919677734375,0.3950958251953125,0.82916259765625
1772702906953805600,3.6298056640625,-0.393280029296875,0.3947906494140625,0.830413818359375
1772702906963855600,3.639855712890625,-0.394500732421875,0.3936767578125,0.8317718505859375
1772702906973905700,3.64990576171875,-0.392364501953125,0.3932037353515625,0.8325347900390625
1772702906983956500,3.65995654296875,-0.39300537109375,0.393585205078125,0.831573486328125
1772702906994006500,3.670006591796875,-0.3927001953125,0.39459228515625,0.830474853515625
1772702907004056600,3.680056640625,-0.3921051025390625,0.39556884765625,0.83111572265625
1772702907014106600,3.690106689453125,-0.3930206298828125,0.3938751220703125,0.83270263671875
1772702907024156700,3.70015673828125,-0.392547607421875,0.3950042724609375,0.83135986328125
1772702907034206700,3.710206787109375,-0.3916473388671875,0.39324951171875,0.8289947509765625
1772702907044257500,3.720257568359375,-0.3926849365234375,0.3955841064453125,0.831024169921875
1772702907054307600,3.7303076171875,-0.3946075439453125,0.394256591796875,0.831024169921875
1772702907064357600,3.740357666015625,-0.393157958984375,0.393798828125,0.8315277099609375
1772702907074407700,3.75040771484375,-0.392303466796875,0.393341064453125,0.8298797607421875
1772702907084457700,3.760457763671875,-0.3936614990234375,0.392333984375,0.8314056396484375
1772702907094508500,3.770508544921875,-0.3941192626953125,0.3934783935546875,0.8313140869140625
1772702907104558600,3.78055859375,-0.3932952880859375,0.39410400390625,0.8331298828125
1772702907114608600,3.790608642578125,-0.3940582275390625,0.392547607421875,0.8325653076171875
1772702907124658700,3.80065869140625,-0.3937530517578125,0.3938140869140625,0.8296356201171875
1772702907134708700,3.810708740234375,-0.39532470703125,0.3925628662109375,0.83209228515625
1772702907144758800,3.8207587890625,-0.39593505859375,0.393829345703125,0.8336334228515625
1772702907154809600,3.8308095703125,-0.3934173583984375,0.3929290771484375,0.8301849365234375
1772702907164859600,3.840859619140625,-0.39019775390625,0.39324951171875,0.830078125
1772702907174909700,3.85090966796875,-0.3895721435546875,0.39251708984375,0.830047607421875
1772702907184959700,3.860959716796875,-0.3939666748046875,0.3932037353515625,0.8297119140625
1772702907195009800,3.871009765625,-0.397003173828125,0.3928070068359375,0.8297882080078125
1772702907205060600,3.881060546875,-0.39678955078125,0.39483642578125,0.8303680419921875
1772702907215110700,3.891110595703125,-0.396575927734375,0.3940582275390625,0.831329345703125
1772702907225160700,3.90116064453125,-0.3957977294921875,0.39349365234375,0.833984375
1772702907235210800,3.911210693359375,-0.3947906494140625,0.3931121826171875,0.8333282470703125
1772702907245260800,3.9212607421875,-0.3929595947265625,0.3932342529296875,0.8300628662109375
1772702907255310600,3.931310546875,-0.3925018310546875,0.390899658203125,0.8279266357421875
1772702907265361700,3.941361572265625,-0.3956146240234375,0.3921966552734375,0.8274993896484375
1772702907275411700,3.95141162109375,-0.397674560546875,0.392181396484375,0.8302459716796875
1772702907285461800,3.961461669921875,-0.3946533203125,0.3919677734375,0.8335723876953125
1772702907295511800,3.97151171875,-0.394500732421875,0.3945770263671875,0.8328704833984375
1772702907305561600,3.9815615234375,-0.395782470703125,0.3935546875,0.8327789306640625
1772702907315611600,3.991611572265625,-0.3972015380859375,0.3935089111328125,0.8336181640625
1772702907325662700,4.001662841796875,-0.39556884765625,0.393646240234375,0.8320159912109375
1772702907335712800,4.011712646484375,-0.3929901123046875,0.3935546875,0.8314208984375
1772702907345762800,4.0217626953125,-0.3937530517578125,0.3941497802734375,0.83056640625
1772702907355812600,4.0318125,-0.3965301513671875,0.3929290771484375,0.8289337158203125
1772702907365862700,4.041862548828125,-0.394927978515625,0.3880615234375,0.830718994140625
1772702907375913700,4.051913818359375,-0.3941497802734375,0.39093017578125,0.8260650634765625
1772702907385963800,4.0619638671875,-0.391937255859375,0.3928985595703125,0.8267822265625
1772702907396013800,4.072013916015625,-0.3935089111328125,0.39013671875,0.82818603515625
1772702907406063600,4.082063720703125,-0.3988800048828125,0.3897857666015625,0.82965087890625
1772702907416113700,4.09211376953125,-0.3989105224609375,0.3911590576171875,0.8286590576171875
1772702907426163700,4.102163818359375,-0.3985595703125,0.3906097412109375,0.82781982421875
1772702907436214800,4.11221484375,-0.39776611328125,0.390289306640625,0.82989501953125
1772702907446264800,4.122264892578125,-0.3940887451171875,0.3903656005859375,0.83154296875
1772702907456314600,4.132314697265625,-0.3953399658203125,0.3896331787109375,0.8321380615234375
1772702907466364700,4.14236474609375,-0.3975372314453125,0.39141845703125,0.8302154541015625
1772702907476414700,4.152414794921875,-0.396026611328125,0.392578125,0.83087158203125
1772702907486464800,4.16246484375,-0.3966522216796875,0.39373779296875,0.833465576171875
1772702907496515800,4.172515869140625,-0.3993072509765625,0.395263671875,0.83209228515625
1772702907506565600,4.182565673828125,-0.3993988037109375,0.39398193359375,0.8299560546875
1772702907516615700,4.19261572265625,-0.396453857421875,0.395477294921875,0.828460693359375
1772702907526665700,4.202665771484375,-0.3952484130859375,0.393646240234375,0.82843017578125
1772702907536715800,4.2127158203125,-0.3944549560546875,0.3949127197265625,0.831939697265625
1772702907546766800,4.222766845703125,-0.3952484130859375,0.39263916015625,0.829803466796875
1772702907556816600,4.232816650390625,-0.394256591796875,0.3931732177734375,0.829803466796875
1772702907566866700,4.24286669921875,-0.3954620361328125,0.3952178955078125,0.8298187255859375
1772702907576916700,4.252916748046875,-0.397491455078125,0.3936920166015625,0.8300323486328125
1772702907586966800,4.262966796875,-0.3977813720703125,0.3939971923828125,0.8276824951171875
1772702907597016600,4.2730166015625,-0.397918701171875,0.39569091796875,0.827239990234375
1772702907607067600,4.283067626953125,-0.3975372314453125,0.3936920166015625,0.8302764892578125
1772702907617117700,4.29311767578125,-0.3976287841796875,0.392303466796875,0.831329345703125
1772702907627167700,4.303167724609375,-0.39617919921875,0.3924560546875,0.829986572265625
1772702907637217800,4.3132177734375,-0.3966217041015625,0.39288330078125,0.82891845703125
1772702907647267600,4.323267578125,-0.396209716796875,0.3929901123046875,0.82763671875
1772702907657318700,4.333318603515625,-0.3971405029296875,0.39208984375,0.8276519775390625
1772702907667368700,4.34336865234375,-0.396636962890625,0.3946380615234375,0.82904052734375
1772702907677418800,4.353418701171875,-0.3957977294921875,0.393035888671875,0.831085205078125
1772702907687468500,4.363468505859375,-0.3961334228515625,0.3920745849609375,0.8310699462890625
1772702907697518600,4.3735185546875,-0.3971710205078125,0.394287109375,0.8287506103515625
1772702907707568600,4.383568603515625,-0.398284912109375,0.3950042724609375,0.8266143798828125
1772702907717619700,4.39361962890625,-0.397003173828125,0.3970489501953125,0.82958984375
1772702907727669800,4.403669677734375,-0.3961639404296875,0.39703369140625,0.829498291015625
1772702907737719600,4.413719482421875,-0.3964080810546875,0.3981475830078125,0.827728271484375
1772702907747769600,4.42376953125,-0.3972320556640625,0.3959503173828125,0.829010009765625
1772702907757819600,4.433819580078125,-0.399200439453125,0.3954620361328125,0.8285369873046875
1772702907767869700,4.44386962890625,-0.3977508544921875,0.395172119140625,0.8284759521484375
1772702907777920800,4.453920654296875,-0.396209716796875,0.3948516845703125,0.8304901123046875
1772702907787970600,4.463970458984375,-0.396759033203125,0.3958282470703125,0.8307342529296875
1772702907798020600,4.4740205078125,-0.395904541015625,0.3948211669921875,0.8283233642578125
1772702907808070700,4.484070556640625,-0.397735595703125,0.39178466796875,0.8277740478515625
1772702907818120700,4.49412060546875,-0.3972320556640625,0.39154052734375,0.828887939453125
1772702907828171800,4.504171875,-0.396942138671875,0.3933258056640625,0.827911376953125
1772702907838221600,4.5142216796875,-0.395782470703125,0.393585205078125,0.8318939208984375
1772702907848271600,4.524271728515625,-0.3978424072265625,0.39410400390625,0.8337249755859375
1772702907858321700,4.53432177734375,-0.3991546630859375,0.3918609619140625,0.8312835693359375
1772702907868371700,4.544371826171875,-0.398193359375,0.3948822021484375,0.829376220703125
1772702907878421500,4.55442138671875,-0.396453857421875,0.3944854736328125,0.8296051025390625
1772702907888472600,4.56447265625,-0.39697265625,0.3945770263671875,0.830047607421875
1772702907898522600,4.574522705078125,-0.3962554931640625,0.39459228515625,0.8313751220703125
1772702907908572700,4.58457275390625,-0.397308349609375,0.393890380859375,0.8271484375
1772702907918622700,4.594622802734375,-0.3975677490234375,0.3936614990234375,0.8285980224609375
1772702907928672500,4.604672607421875,-0.398223876953125,0.3962860107421875,0.8280181884765625
1772702907938722600,4.61472265625,-0.397552490234375,0.395294189453125,0.8279876708984375
1772702907948773600,4.624773681640625,-0.3963470458984375,0.394317626953125,0.829254150390625
1772702907958823700,4.63482373046875,-0.3962249755859375,0.3935394287109375,0.8291015625
1772702907968873700,4.644873779296875,-0.395294189453125,0.3948211669921875,0.829559326171875
1772702907978923500,4.654923583984375,-0.396209716796875,0.394989013671875,0.8304595947265625
1772702907988973600,4.6649736328125,-0.39703369140625,0.3952178955078125,0.82965087890625
1772702907999024600,4.675024658203125,-0.399322509765625,0.3928375244140625,0.828155517578125
1772702908009074700,4.68507470703125,-0.3994598388671875,0.3932952880859375,0.8280181884765625
1772702908019124700,4.695124755859375,-0.398590087890625,0.3951873779296875,0.826019287109375
1772702908029174500,4.705174560546875,-0.3992767333984375,0.3929290771484375,0.827545166015625
1772702908039224600,4.715224609375,-0.398651123046875,0.39239501953125,0.8308563232421875
1772702908049274600,4.725274658203125,-0.3955841064453125,0.3921661376953125,0.83612060546875
1772702908059325700,4.73532568359375,-0.39263916015625,0.3954315185546875,0.8330535888671875
1772702908069375700,4.745375732421875,-0.3932952880859375,0.396240234375,0.8275909423828125
1772702908079425500,4.755425537109375,-0.3945770263671875,0.39501953125,0.8271636962890625
1772702908089475600,4.7654755859375,-0.40032958984375,0.393951416015625,0.826446533203125
1772702908099525600,4.775525634765625,-0.4000091552734375,0.39453125,0.82666015625
1772702908109575400,4.785575439453125,-0.399810791015625,0.3925018310546875,0.828704833984375
1772702908119626500,4.79562646484375,-0.3963775634765625,0.39215087890625,0.8288421630859375
1772702908129676500,4.805676513671875,-0.3938140869140625,0.392333984375,0.831390380859375
1772702908139726300,4.815726318359375,-0.3943939208984375,0.3925323486328125,0.829193115234375
1772702908149776400,4.8257763671875,-0.3942413330078125,0.394317626953125,0.8285064697265625
1772702908159826400,4.835826416015625,-0.395355224609375,0.3954925537109375,0.8262786865234375
1772702908169877500,4.84587744140625,-0.396820068359375,0.3964080810546875,0.825836181640625
1772702908179927600,4.855927490234375,-0.395477294921875,0.396453857421875,0.8270416259765625
1772702908189977300,4.865977294921875,-0.3974761962890625,0.3946533203125,0.830169677734375
1772702908200027400,4.87602734375,-0.3970489501953125,0.39263916015625,0.8323211669921875
1772702908210077400,4.886077392578125,-0.39630126953125,0.3963775634765625,0.832550048828125
1772702908220127500,4.89612744140625,-0.393829345703125,0.3962860107421875,0.8346710205078125
1772702908230178300,4.90617822265625,-0.3962249755859375,0.392974853515625,0.8338165283203125
1772702908240228400,4.916228271484375,-0.39508056640625,0.392425537109375,0.832275390625
1772702908250278400,4.9262783203125,-0.396026611328125,0.394805908203125,0.8303680419921875
1772702908260328400,4.936328369140625,-0.3953704833984375,0.3974151611328125,0.8271484375
1772702908270378500,4.94637841796875,-0.394073486328125,0.397216796875,0.8292236328125
1772702908280429300,4.95642919921875,-0.394805908203125,0.39501953125,0.8294525146484375
1772702908290479400,4.966479248046875,-0.396240234375,0.394195556640625,0.827667236328125
1772702908300529400,4.976529296875,-0.39544677734375,0.3974151611328125,0.8255767822265625
1772702908310579500,4.986579345703125,-0.3954010009765625,0.396392822265625,0.82720947265625
1772702908320629200,4.996629150390625,-0.396240234375,0.395538330078125,0.8303070068359375
1772702908330679300,5.00667919921875,-0.395538330078125,0.3950042724609375,0.8321685791015625
1772702908340730400,5.01673046875,-0.391876220703125,0.3952484130859375,0.8318328857421875
1772702908350780400,5.026780517578125,-0.3922271728515625,0.3966217041015625,0.833404541015625
1772702908360830500,5.03683056640625,-0.394378662109375,0.3973541259765625,0.829376220703125
1772702908370880300,5.04688037109375,-0.3947296142578125,0.396820068359375,0.824676513671875
1772702908380930300,5.056930419921875,-0.395477294921875,0.39422607421875,0.8285675048828125
1772702908390980600,5.066980712890625,-0.395355224609375,0.3973846435546875,0.8290863037109375
1772702908401031400,5.077031494140625,-0.3948974609375,0.3971405029296875,0.8292083740234375
1772702908411081500,5.08708154296875,-0.395538330078125,0.3961639404296875,0.8290252685546875
1772702908421131300,5.09713134765625,-0.394683837890625,0.39556884765625,0.828521728515625
1772702908431181300,5.107181396484375,-0.392486572265625,0.3968505859375,0.83123779296875
1772702908441231600,5.117231689453125,-0.3911895751953125,0.39984130859375,0.8323974609375
1772702908451281700,5.12728173828125,-0.3940582275390625,0.398651123046875,0.830108642578125
1772702908461332500,5.13733251953125,-0.395751953125,0.39971923828125,0.827545166015625
1772702908471382300,5.14738232421875,-0.393585205078125,0.3969573974609375,0.830841064453125
1772702908481432300,5.157432373046875,-0.3939666748046875,0.39593505859375,0.8311920166015625
1772702908491482600,5.167482666015625,-0.3945465087890625,0.3972320556640625,0.8300628662109375
1772702908501532700,5.17753271484375,-0.3934478759765625,0.3976287841796875,0.82928466796875
1772702908511583500,5.18758349609375,-0.3923797607421875,0.396697998046875,0.8296356201171875
1772702908521633300,5.19763330078125,-0.3936004638671875,0.3955535888671875,0.8291015625
1772702908531683300,5.207683349609375,-0.393707275390625,0.39398193359375,0.8295135498046875
1772702908541733400,5.2177333984375,-0.3933868408203125,0.3963775634765625,0.8304443359375
1772702908551783700,5.22778369140625,-0.3937530517578125,0.397735595703125,0.829833984375
1772702908561833500,5.23783349609375,-0.3955230712890625,0.3948516845703125,0.8299102783203125
1772702908571884300,5.24788427734375,-0.3949127197265625,0.396026611328125,0.8297271728515625
1772702908581934300,5.257934326171875,-0.395111083984375,0.3988037109375,0.8292999267578125
1772702908591984400,5.267984375,-0.394073486328125,0.396392822265625,0.8278656005859375
1772702908602034700,5.27803466796875,-0.392242431640625,0.39654541015625,0.8285980224609375
1772702908612084500,5.28808447265625,-0.3893890380859375,0.3956451416015625,0.82940673828125
1772702908622135300,5.29813525390625,-0.3905792236328125,0.39556884765625,0.8321533203125
1772702908632184600,5.3081845703125,-0.3923492431640625,0.395111083984375,0.8345184326171875
1772702908642234600,5.318234619140625,-0.392791748046875,0.3971405029296875,0.8318023681640625
1772702908652284400,5.328284423828125,-0.39447021484375,0.3983612060546875,0.8300628662109375
1772702908662334500,5.33833447265625,-0.3959808349609375,0.395172119140625,0.8300933837890625
1772702908672385500,5.348385498046875,-0.392608642578125,0.395965576171875,0.8295745849609375
1772702908682435600,5.358435546875,-0.3934173583984375,0.399078369140625,0.8299407958984375
1772702908692485600,5.368485595703125,-0.3928680419921875,0.3935089111328125,0.831787109375
1772702908702535400,5.378535400390625,-0.3894500732421875,0.3952789306640625,0.8315582275390625
1772702908712585500,5.38858544921875,-0.3917694091796875,0.3970489501953125,0.8282928466796875
1772702908722635500,5.398635498046875,-0.3955841064453125,0.3948516845703125,0.829132080078125
1772702908732686600,5.4086865234375,-0.3935546875,0.3932647705078125,0.8324127197265625
1772702908742736600,5.418736572265625,-0.3934783935546875,0.39459228515625,0.833648681640625
1772702908752786400,5.428786376953125,-0.39263916015625,0.3952484130859375,0.8348388671875
1772702908762836500,5.43883642578125,-0.3905181884765625,0.3972930908203125,0.832550048828125
1772702908772886500,5.448886474609375,-0.3915863037109375,0.397003173828125,0.8308563232421875
1772702908782937600,5.4589375,-0.390350341796875,0.39599609375,0.828857421875
1772702908792987600,5.468987548828125,-0.39019775390625,0.39874267578125,0.8300323486328125
1772702908803037400,5.479037353515625,-0.3938751220703125,0.39495849609375,0.8271026611328125
1772702908813087500,5.48908740234375,-0.4005889892578125,0.3897705078125,0.828338623046875
1772702908823137500,5.499137451171875,-0.393890380859375,0.39324951171875,0.8316497802734375
1772702908833187600,5.5091875,-0.3908538818359375,0.3946990966796875,0.8348541259765625
1772702908843238700,5.51923876953125,-0.393280029296875,0.396026611328125,0.8316650390625
1772702908853288400,5.529288330078125,-0.3928070068359375,0.3972625732421875,0.8282470703125
1772702908863338500,5.53933837890625,-0.390960693359375,0.3955535888671875,0.827667236328125
1772702908873388500,5.549388427734375,-0.38653564453125,0.3978271484375,0.8276214599609375
1772702908883438600,5.5594384765625,-0.3884429931640625,0.3944091796875,0.828704833984375
1772702908893488400,5.56948828125,-0.39434814453125,0.3930816650390625,0.8321990966796875
1772702908903539500,5.57953955078125,-0.3963470458984375,0.3947601318359375,0.8349609375
1772702908913589500,5.589589599609375,-0.3949432373046875,0.394622802734375,0.8362884521484375
1772702908923639600,5.5996396484375,-0.3928070068359375,0.3963623046875,0.8347625732421875
1772702908933689300,5.609689453125,-0.3920440673828125,0.3963470458984375,0.82958984375
1772702908943739400,5.619739501953125,-0.3755950927734375,0.4011383056640625,0.8324432373046875
1772702908953790500,5.62979052734375,-0.38751220703125,0.397857666015625,0.83929443359375
1772702908963840500,5.639840576171875,-0.4156951904296875,0.3885955810546875,0.838409423828125
1772702908973890600,5.649890625,-0.4176025390625,0.39349365234375,0.8331756591796875
1772702908983940400,5.6599404296875,-0.395751953125,0.3937225341796875,0.8326416015625
1772702908993991400,5.669991455078125,-0.3779296875,0.39324951171875,0.826904296875
1772702909004041500,5.68004150390625,-0.380523681640625,0.3949432373046875,0.820465087890625
1772702909014091500,5.690091552734375,-0.3885498046875,0.39959716796875,0.8238677978515625
1772702909024142600,5.700142578125,-0.3927459716796875,0.4003448486328125,0.8278045654296875
1772702909034192600,5.710192626953125,-0.3935089111328125,0.394622802734375,0.8314971923828125
1772702909044242400,5.720242431640625,-0.393280029296875,0.3932037353515625,0.8342437744140625
