time,seconds_elapsed,z,y,x
1772702903388504000,0.064504150390625,0.06277092895060778,-0.01467500656247139,-0.008196165937185288
1772702903398555100,0.07455517578125,0.03981295495033264,0.0034852117672562596,0.011961655950546263
1772702903408605200,0.084605224609375,0.00635170711427927,0.004748948092758655,0.020675708281993863
1772702903418655200,0.0946552734375,0.0196525027140975,-0.0132236387103796,0.02759352484643459
1772702903428705300,0.104705322265625,0.03351911550313234,0.004870820906758308,0.02521685884296894
1772702903438755000,0.114755126953125,0.03441840243041515,-0.0041650107249617575,-0.0007183774024248123
1772702903448805000,0.12480517578125,0.0350917716473341,0.0018579028263688087,-0.0019669161587953566
1772702903458856200,0.134856201171875,0.04803367080688476,0.019085808742046354,0.010273556733131408
1772702903468906200,0.14490625,0.036438510081171986,0.005266249965131283,-0.007833762365579604
1772702903478956300,0.154956298828125,-0.018418577004969117,0.006985913364589214,-0.001402268013358116
1772702903489006000,0.165006103515625,-0.008336451190710067,-0.0054673254951834675,0.003940262058377266
1772702903499056000,0.17505615234375,0.01830517975836992,0.017919103050231932,0.0062432783037424085
1772702903509106200,0.185106201171875,0.014508417823910713,0.027094927674531935,0.00218026664853096
1772702903519157200,0.1951572265625,-0.01388064131438732,0.03136719816625118,-0.021228081467747687
1772702903529207300,0.205207275390625,-0.03547083409279585,0.014470716162025927,-0.012452069815993309
1772702903539257000,0.215257080078125,-0.020879121899604797,0.006251753871142864,-0.016976853764057158
1772702903549307100,0.22530712890625,-0.032601708397269245,0.0030868600994348526,0.002424012276530266
1772702903559357200,0.235357177734375,-0.047915012863278386,0.0028700024783611298,-0.002450315761566162
1772702903569408300,0.245408203125,-0.046052141600847245,0.004829612113535404,-0.008894669595360755
1772702903579458300,0.255458251953125,-0.033623452660441394,0.037515783923864364,-0.01258884793817997
1772702903589508000,0.265508056640625,-0.012656067955493927,0.02279693821966648,-0.02273322533369064
1772702903599558100,0.27555810546875,-0.010101707297563552,0.02047463275194168,-0.0032417584002017974
1772702903609608200,0.285608154296875,-0.03335398806929588,0.011708850233256816,0.0004313771545886993
1772702903619659300,0.2956591796875,-0.04975976394712925,-0.0041822541207075115,0.013065233278274536
1772702903629709300,0.305709228515625,-0.021691022804379463,-0.013463292685151099,0.022402970466017722
1772702903639759000,0.315759033203125,-0.011248539245128631,-0.011373334668576717,0.02504091775417328
1772702903649809200,0.32580908203125,0.007064531558752059,-0.009731120419502257,-0.005023381119966507
1772702903659859200,0.335859130859375,-0.025198738664388654,-0.004373392778635025,-0.009382745373249053
1772702903669909200,0.3459091796875,-0.05546177498102188,-0.012339257091283798,-0.011888006192445755
1772702903679960300,0.355960205078125,-0.061713821113109586,-0.0009618307694792747,0.003822773158550262
1772702903690010000,0.366010009765625,-0.03829524386376142,-0.019856500853598115,0.0312269129127264
1772702903700060200,0.37606005859375,-0.011460136169195174,-0.014508125562965869,0.020915362256765366
1772702903710110200,0.386110107421875,-0.02685468917787075,-0.005356266336143016,0.005296352842450142
1772702903720160300,0.39616015625,-0.009756839382648468,-0.008804945485293864,0.010001754054427147
1772702903730210000,0.4062099609375,-0.007075052952766418,0.010461772781610488,-0.005379354950785636
1772702903740261000,0.41626123046875,-0.014971943682432173,0.0063648588567972175,-0.03229600344896316
1772702903750311200,0.426311279296875,-0.019262334352731704,-0.013246727325022219,-0.01257657297849655
1772702903760361200,0.436361328125,-0.022533026586472986,-0.016975976981222628,-0.018324176719784736
1772702903770411300,0.446411376953125,-0.01611965241283178,-0.0313815189525485,-0.0023170447707176207
1772702903780461000,0.4564609375,-0.01730886219739914,-0.029361995823681354,-0.0014525368958711623
1772702903790512000,0.46651220703125,-0.011456044515967368,-0.009818798702955246,-0.011097148075699805
1772702903800562200,0.476562255859375,-0.009006897798180579,-0.02809942854195833,-0.006485854887962341
1772702903810612200,0.4866123046875,-0.02226180842965841,-0.021200316677987573,0.008629296657443046
1772702903820662300,0.496662353515625,-0.01828384470939636,-0.04517652781009674,0.03499181840419769
1772702903830712000,0.506712158203125,-0.006933014133572578,-0.0283861365288496,0.01587327643632889
1772702903840762000,0.51676220703125,0.0070285834625363345,-0.031201486210525035,0.03239537217020988
1772702903850813200,0.526813232421875,-0.01754588582366705,-0.046807636143267155,0.015944003584980965
1772702903860863200,0.53686328125,-0.006484393583238124,-0.025075112284719942,0.04247603667974472
1772702903870913000,0.5469130859375,0.0038368016839027404,-0.006733399908244609,0.03739361884891987
1772702903880963000,0.556963134765625,-0.00106616792678833,-0.007240180386602878,0.03143558722734451
1772702903891013000,0.56701318359375,-0.013597732719779014,-0.022052257332205772,0.02111117708981037
1772702903901064200,0.577064208984375,0.014853285738825796,-0.008192074283957481,0.011505144354701041
1772702903911114200,0.5871142578125,0.030892566391825676,-0.012322305956482886,0.025697335836291312
1772702903921164000,0.5971640625,0.029817630636692044,-0.011352876402437687,0.037193712362647055
1772702903931214000,0.607214111328125,0.021025252372026442,-0.02280219891667366,0.03165302937030792
1772702903941264100,0.61726416015625,0.009715922850370406,-0.017586217834055423,0.02649988439083099
1772702903951314200,0.627314208984375,0.005251929178833961,-0.02180383552908897,0.022507015362381935
1772702903961365200,0.637365234375,0.00831716196835041,-0.00196457807123661,0.002834346643090248
1772702903971415000,0.6474150390625,0.02119184111058712,-0.0071615621924400324,-0.003908113354444504
1772702903981465000,0.657465087890625,0.019580314260721206,-0.017882862693071364,-0.004200958821177482
1772702903991515100,0.66751513671875,0.03539923016130924,-0.005517302116751671,0.011025836405158041
1772702904001565200,0.677565185546875,0.043644788198173044,-0.020209844335913656,0.009894202026724815
1772702904011616300,0.6876162109375,0.027009879739582538,-0.010699380929768085,-0.008446341305971146
1772702904021666000,0.697666015625,0.022677695754170415,-0.018428221616148946,0.008912789773941039
1772702904031716000,0.707716064453125,0.009009235885739326,-0.023050328458845613,0.02512099725306034
1772702904041766100,0.71776611328125,0.02006985134333372,-0.011370412059128284,0.004524199426174163
1772702904051816200,0.727816162109375,0.0069219082176685326,0.010457973389327526,-0.018272738793492317
1772702904061866000,0.737865966796875,0.019320202019810676,0.003446341061592102,-0.018057634738087653
1772702904071917000,0.7479169921875,0.029125556719303128,0.0046498716324567795,-0.02293839251697063
1772702904081967000,0.757967041015625,0.043208150346577164,0.009076455903053284,-0.015602058279514311
1772702904092017200,0.76801708984375,0.03876958337724209,0.00867225901633501,0.010239654463529587
1772702904102066700,0.778066650390625,0.0028290859460830685,0.007221183425188064,0.004927519530057906
1772702904112116700,0.78811669921875,-0.010070727637410163,0.02759323258548975,0.008075754427909851
1772702904122167800,0.798167724609375,-0.0042120647370815275,0.026767303155362604,0.0029021511822938917
1772702904132217900,0.8082177734375,-0.016291209587454794,0.009157119923830032,0.01754851617217064
1772702904142268000,0.818267822265625,0.0019090484917163848,0.01182458556741476,0.015873860958218574
1772702904152317700,0.828317626953125,0.0041582887232303615,0.019141630582511424,0.019537644162774086
1772702904162367700,0.83836767578125,0.017410569006204604,0.02184621336609125,0.01844458822906017
1772702904172417800,0.848417724609375,-0.015336100819706915,0.02348404370099306,0.009559855505824088
1772702904182468900,0.85846875,-0.020277064353227615,0.02138561011701822,-0.02276069786250591
1772702904192519000,0.868518798828125,0.0027706337571144104,0.018357786728441714,-0.0007534487158060073
1772702904202568700,0.878568603515625,0.002228489704430103,0.029331308424472808,0.007542670464515686
1772702904212618800,0.88861865234375,-0.010693827971816063,0.03358575099855661,-0.008531681501865387
1772702904222668800,0.898668701171875,-0.030137948632240293,0.03431640336066484,-0.012488894695043563
1772702904232720000,0.908719970703125,-0.023148235875368118,0.02330284191519022,-0.005149637848138809
1772702904242770000,0.91877001953125,-0.013669044390320777,0.027056933751702306,0.002413490882515907
1772702904252819700,0.92881982421875,-0.03142185096293688,0.021666180624067784,-0.02878478045761585
1772702904262869800,0.938869873046875,-0.030445114885270595,0.02238163541704416,-0.037811552000045774
1772702904272919800,0.948919921875,-0.01369505561441183,0.021431202824413777,-0.04416998111605644
1772702904282969900,0.958969970703125,-0.02176467256247997,0.022101357170939445,-0.027076222974061964
1772702904293021000,0.96902099609375,-0.039895957058668136,0.014335399344563484,-0.0014589666366577147
1772702904303070700,0.97907080078125,-0.009826105226576327,0.01814180589020252,-0.0010749357551336288
1772702904313120800,0.989120849609375,-0.014018588480353355,0.0163344642072916,-0.025562895801663398
1772702904323170800,0.9991708984375,-0.028463877940177917,0.011028466753661632,-0.016463059023022652
1772702904333220900,1.009220947265625,-0.04793430208563804,-0.0009565700724720954,-0.0040104046851396555
1772702904343271700,1.019271728515625,-0.025813071170449255,-0.006074059216678142,-0.0030757541835308073
1772702904353321700,1.02932177734375,-0.0017781155884265898,-0.002274666933715343,-0.0034738135904073715
1772702904363371800,1.039371826171875,0.0051566521108150475,0.0010953940212726592,0.01608662692606449
1772702904373421800,1.049421875,0.0017369067952036858,0.004524491687119007,0.0023936171382665634
1772702904383471900,1.059471923828125,0.00492430465966463,0.019307927060127256,-0.030946926927566527
1772702904393521700,1.069521728515625,-0.024198913972079752,0.017232874351739882,-0.023697686451673507
1772702904403572700,1.07957275390625,-0.045456221534311766,0.017458499801158905,0.008320084577798844
1772702904413622800,1.089622802734375,-0.03861819220781326,0.016585224097967147,0.005330255112051963
1772702904423672800,1.0996728515625,-0.0371481196552515,0.0237415255934,0.03814414495527744
1772702904433722600,1.10972265625,-0.00614215601682663,0.004208557605743408,0.04281505937576294
1772702904443772700,1.119772705078125,0.04284370094835758,0.008157879753410816,0.042564299485087394
1772702904453823000,1.129822998046875,0.04293108697086572,-0.003434358362853527,0.021377134549617767
1772702904463873800,1.139873779296875,0.004253858052194118,0.010382570065557956,-0.030917700833082196
1772702904473923800,1.149923828125,-0.023027239844202994,0.013426467806100845,-0.04422375712990761
1772702904483973600,1.1599736328125,-0.012678279787302016,0.0019169395372271537,-0.02426525720655918
1772702904494023700,1.170023681640625,-0.01772328821718693,-0.03832943839430809,0.0035503859579563138
1772702904504074000,1.180073974609375,-0.016443185278773306,-0.05211129550933838,-0.0009264671951532363
1772702904514124800,1.190124755859375,-0.03172346425801515,-0.04729863453060388,-0.03210486479103565
1772702904524174800,1.2001748046875,-0.017689385947585106,-0.04476707022637129,-0.011569441762566565
1772702904534224600,1.210224609375,-0.007970540487766265,-0.03317717019766569,-0.008639233529567717
1772702904544274700,1.220274658203125,0.006367196944355964,-0.023903438156843183,-0.022138766571879385
1772702904554325000,1.230324951171875,0.011209960800409317,-0.039944180114567275,-0.030485154634714125
1772702904564375000,1.240375,0.010418810422718524,-0.021404314817488192,0.0025648820519447325
1772702904574425900,1.25042578125,-0.007337795542180538,-0.018232406783103942,0.003616436931490898
1772702904584475600,1.2604755859375,0.005250175613164902,-0.013324468736350535,0.01709434266388416
1772702904594525700,1.270525634765625,-0.00011222820281982422,-0.010659341180324553,0.03558452360033989
1772702904604576000,1.280575927734375,0.011275427252054214,-0.016532032606005668,0.041809097203612325
1772702904614626000,1.2906259765625,0.008550970724225044,-0.005880874732136726,0.030995442244410514
1772702904624676900,1.3006767578125,0.01036883380115032,-0.0014952069938182829,0.027666590082645416
1772702904634726700,1.3107265625,-0.006714987468719482,-0.001778407849371433,0.03098550537228584
1772702904644776700,1.320776611328125,-0.005083586874604225,-0.0118991121083498,0.06084931323826313
1772702904654826800,1.33082666015625,0.0055050271570682525,-0.0062765960514545435,0.028583704927563666
1772702904664877000,1.340876953125,0.007663666495680808,-0.012330781523883342,0.01343932728767395
1772702904674926800,1.3509267578125,0.025225626671314238,0.004053074783086776,0.010505611923336981
1772702904684977700,1.360977783203125,0.04405599934756756,0.02002455089688301,-0.009086392775177955
1772702904695027700,1.37102783203125,0.02367839722931385,-0.000886135184764862,-0.018244097220897672
1772702904705077800,1.381077880859375,0.005952770924568176,-0.009395020332932472,0.007979308316111565
1772702904715128000,1.391128173828125,0.004748363570868969,-0.024920798505842685,0.032573066824674604
1772702904725177900,1.401177734375,0.02496200729906559,-0.00858516525477171,0.020963293051719664
1772702904735228700,1.411228759765625,0.012552899841964244,-0.016885083827376364,0.008492518535256385
1772702904745278700,1.42127880859375,-0.00407119496166706,-0.022796645958721638,-0.0017424597531557082
1772702904755328800,1.431328857421875,-0.011877192537486552,-0.020295184531807897,-0.014919921234250068
1772702904765379000,1.441379150390625,0.0010983166307210921,-0.006153261932730674,-0.017909750699996948
1772702904775428900,1.451428955078125,0.020807225707173346,-0.005154021762311459,-0.01970832455456257
1772702904785479000,1.46147900390625,0.024157997439801692,-0.01411415780931711,-0.012961188381910323
1772702904795529700,1.47152978515625,0.013306640818715096,-0.009232523247599602,0.006710895815491676
1772702904805579800,1.481579833984375,0.005945756661891937,-0.015200491741299628,-0.017018354818224907
1772702904815630000,1.491630126953125,0.010016659362614155,-0.012837854263186455,-0.02371054593324661
1772702904825680000,1.501679931640625,-0.0034428339302539825,-0.017616612972319125,0.004577975440025329
1772702904835730000,1.51172998046875,-0.0057423430442810055,-0.010113689996302128,0.032220600125193594
1772702904845780700,1.52178076171875,-0.027318215036392212,0.018325930285453797,-0.010222118806838989
1772702904855830800,1.531830810546875,-0.008918634992837906,0.02246142265498638,-0.014019173002243042
1772702904865881000,1.541881103515625,0.01588935078829527,0.0235018716186285,-0.0005699088424444198
1772702904875931000,1.551930908203125,-0.010100830514729023,0.03310059783011675,0.015375848308205604
1772702904885981000,1.56198095703125,-0.00910538973659277,0.020006430718302725,-0.0039209728360176084
1772702904896031000,1.572031005859375,-0.003926818054914474,0.024055998370051384,0.006736614778637886
1772702904906081800,1.582081787109375,-0.0014338321954011917,0.025967384949326513,-0.0011287117689847946
1772702904916131800,1.5921318359375,-0.0045274142965674394,0.025792028382420538,-0.0006423895567655563
1772702904926182000,1.602181884765625,-0.011054477977752684,0.023240298072993753,0.012025368836522101
1772702904936232000,1.61223193359375,-0.01584668069034815,0.022463468481600284,0.018987024542689322
1772702904946282000,1.622281982421875,-0.003691547994315624,0.027039982616901395,0.007661912930011749
1772702904956332800,1.632332763671875,-0.015566986966133118,0.019007482808828354,-0.0001017068088054657
1772702904966382800,1.6423828125,-0.022393618115782738,0.0074915247991681096,-0.0023269816428422925
1772702904976433000,1.652432861328125,-0.02201046401709318,0.013194704876840114,0.011837152788043022
1772702904986483000,1.66248291015625,-0.028698271217942235,0.01654109269529581,0.004112696015834808
1772702904996533000,1.672532958984375,-0.026342063480615616,0.007911796037852763,-0.021165537625551224
1772702905006582800,1.682582763671875,-0.03745119425505399,0.00012450316250324248,-0.018952537751197814
1772702905016633900,1.6926337890625,-0.02352759058177471,0.006042202773690223,-0.021621464699506758
1772702905026684000,1.702683837890625,0.000982289035618305,0.009678805710375308,-0.02556757197678089
1772702905036734000,1.71273388671875,-0.017251579052209854,-0.017463175976276397,-0.025092940202355384
1772702905046784000,1.722783935546875,-0.02034486889243126,0.0013905775755643844,-0.030838790377974507
1772702905056833800,1.732833740234375,-0.017518121033906934,-0.006183364810049534,-0.03978197529017925
1772702905066883800,1.7428837890625,-0.003575520399212837,-0.019995909324288366,-0.0072761284828186034
1772702905076935000,1.752934814453125,0.004726444000005722,-0.012795476426184177,-0.008980009791254996
1772702905086985000,1.76298486328125,0.010102291819453239,-0.002493278120458126,0.002391279050707817
1772702905097035000,1.773034912109375,0.022198387804627417,0.004912029699981212,-0.019510171633958816
1772702905107084800,1.783084716796875,0.011873977667093276,0.010189677841961384,-0.02245265482664108
1772702905117134800,1.793134765625,-0.02290799737870693,0.010021920059621334,-0.0031073183655738828
1772702905127186000,1.80318603515625,-0.042455578413605685,-0.002143441769480705,0.0035889644026756286
1772702905137236000,1.813236083984375,-0.025197861881554127,0.00971621511131525,0.004483867415785789
1772702905147285800,1.82328564453125,-0.015042670831084251,0.02389788519889116,0.02087152311503887
1772702905157335800,1.833335693359375,0.005327624763548374,0.03431757240444422,0.04769172550141811
1772702905167385900,1.8433857421875,0.02633008078187704,0.027253040845692158,0.04227788375914097
1772702905177436000,1.853435791015625,0.013869535398483275,-0.0014314941078424452,0.009475099831819534
1772702905187486700,1.86348681640625,0.007502630715072155,0.007449439223110675,0.002602291452884674
1772702905197536800,1.873536865234375,-0.02176174995303154,0.028688334345817565,-0.0006570026040077209
1772702905207586800,1.8835869140625,-0.03277764948606491,0.004420446790754795,0.008729834422469138
1772702905217636900,1.893636962890625,-0.017220307131111622,-0.021110592567920684,-0.010838789400458335
1772702905227687000,1.90368701171875,-0.02185498119443655,-0.03065963441878557,-0.012881108883023261
1772702905237737700,1.91373779296875,-0.0032446810096502304,-0.023941139818727968,-0.008366261807084083
1772702905247787800,1.923787841796875,0.014436521631479262,-0.016584931837022303,-0.026841245174407957
1772702905257837800,1.933837890625,0.0002887538135051727,-0.023910744680464266,-0.006146247670054435
1772702905267887900,1.943887939453125,0.008223638466000556,-0.009377484676241873,-0.008680734583735465
1772702905277937700,1.953937744140625,0.01407850197404623,-0.0034323125362396237,0.009020926323533058
1772702905287987700,1.96398779296875,-0.0066308163166046135,-0.008234159860014915,-0.004224339696764946
1772702905298038800,1.974038818359375,-0.01846037032008171,-0.023090952730178832,0.011749474504590034
1772702905308088800,1.9840888671875,-0.022723872983455656,-0.027017770785093306,0.04443535405397415
1772702905318139000,1.994138916015625,-0.015952186891436577,0.0016790391281247138,0.056446109843254086
1772702905328188700,2.004188720703125,-0.00027530981004238127,-0.006516542287170886,0.047882864159345624
1772702905338238700,2.01423876953125,0.0036509237229824065,-0.014144552947580814,0.01834580402970314
1772702905348289800,2.024289794921875,0.00609247165620327,-0.011263152292370796,-0.00005669862329959869
1772702905358339800,2.03433984375,0.008267185346782207,-0.017699322819709776,0.011281856992840766
1772702905368390000,2.044389892578125,0.04031096760034561,-0.0149316116720438,0.012530980271100996
1772702905378439700,2.054439697265625,0.01706394752562046,-0.01333732821792364,0.004975450325012207
1772702905388489700,2.06448974609375,-0.004697217905521392,-0.00950403366535902,-0.004664484679698944
1772702905398539800,2.074539794921875,-0.0069207391738891596,-0.0031821371674537655,-0.014154197558760642
1772702905408590800,2.0845908203125,-0.0075169515013694755,-0.011145663392543793,-0.008799392527341842
1772702905418641000,2.094640869140625,-0.009365209716558456,-0.002499123339354992,-0.004743395134806633
1772702905428690700,2.104690673828125,-0.00267652573287487,-0.018137714236974717,0.02970540243387222
1772702905438740700,2.11474072265625,-0.000633037206530571,-0.03357143021225929,0.026111177334189415
1772702905448790800,2.124790771484375,-0.0041661797687411305,-0.03190729639232159,0.022772388300299644
1772702905458840800,2.1348408203125,-0.015399813705682754,-0.018015256901085377,-0.0006371288597583771
1772702905468892000,2.144891845703125,0.007897767512500285,0.006212883165478706,-0.004615384840965271
1772702905478941700,2.154941650390625,0.0035199908196926113,0.021405776122212408,-0.02000701524019241
1772702905488991700,2.16499169921875,-0.008172785061597824,0.012235796716809272,-0.021858196064829825
1772702905499041800,2.175041748046875,-0.008709376156330108,-0.017489479461312293,-0.024534721797704696
1772702905509091800,2.185091796875,-0.01576689345240593,0.0022328736186027526,-0.016133973199129105
1772702905519143000,2.195142822265625,0.0063797641649842255,0.013133330078423022,0.0020095862567424774
1772702905529192700,2.205192626953125,0.00814940418601036,0.017949498188495634,0.005745265653729438
1772702905539242800,2.21524267578125,-0.002355330954492092,0.011503975310921668,0.01532499490380287
1772702905549292800,2.225292724609375,-0.009469839134812355,0.014153613036870955,-0.008622282394766806
1772702905559342800,2.2353427734375,-0.030597382837533948,0.024820553001761433,-0.021069676035642623
1772702905569392600,2.245392578125,-0.024534137275815007,0.013451309986412524,0.01173661502301693
1772702905579443700,2.255443603515625,-0.00043020811080932614,0.005460018971562385,0.004373977300524711
1772702905589493800,2.26549365234375,-0.00803396111279726,0.006361059464514255,-0.004207973083853721
1772702905599543800,2.275543701171875,0.014447627547383308,0.02816518725454807,-0.01822246991097927
1772702905609593900,2.28559375,0.005398644173145294,0.023699440017342567,-0.002620411631464958
1772702905619643600,2.2956435546875,-0.007095511218905448,0.018205811037123203,0.008110825741291046
1772702905629694700,2.30569482421875,-0.01189385141134262,0.013060557103157042,0.011056231543421745
1772702905639744800,2.315744873046875,-0.01164250699877739,0.0001505143865942955,-0.001751227581501007
1772702905649794800,2.325794921875,-0.023604747471213338,0.005700257468223571,-0.002949497455358505
1772702905659844900,2.335844970703125,-0.021555705986917018,-0.01127338142544031,0.006043371817469597
1772702905669894700,2.345894775390625,0.00561316370666027,-0.00416968690007925,0.03882803556621074
1772702905679944700,2.35594482421875,0.0164870244204998,-0.010465572173893451,0.005447744011878967
1772702905689995800,2.365995849609375,0.024079379245638848,0.0033411271214485168,0.004369885647296905
1772702905700045800,2.3760458984375,0.003760521577298641,-0.011574702459573745,0.0032499417066574094
1772702905710096000,2.386095947265625,-0.010811024610698222,0.0032370822250843046,0.02111585326492786
1772702905720145700,2.396145751953125,-0.011430910074710846,0.012740823629498481,0.005136193844676017
1772702905730195700,2.40619580078125,-0.008299626311659812,0.009809154091775418,-0.0051508068919181825
1772702905740245800,2.416245849609375,-0.010600304469466209,-0.004910860656201839,0.01542611719071865
1772702905750296800,2.426296875,-0.003586626315116882,-0.031656244240701195,0.01817629268169403
1772702905760346600,2.4363466796875,0.008687748846411705,-0.01810147387981415,0.03041384296417236
1772702905770396700,2.446396728515625,0.031713235124945637,-0.02813303855061531,0.024885434931516646
1772702905780446700,2.45644677734375,0.02748334247022867,-0.007251578563451767,0.016162614771723746
1772702905790496800,2.466496826171875,0.044399405957758424,-0.00014992986470460892,-0.0012818565040826797
1772702905800547800,2.4765478515625,0.021416882038116453,0.009067103552818298,-0.023954876083135603
1772702905810597600,2.48659765625,0.007798106530308723,0.024394436544179915,-0.01626841323375702
1772702905820647700,2.496647705078125,-0.033542496378719804,0.014543489137291907,-0.028484336206316945
1772702905830697700,2.50669775390625,-0.018365677773952482,-0.011382102496922016,-0.008818681749701499
1772702905840747800,2.516747802734375,0.01172784719467163,-0.004865267948806286,0.008514730367064476
1772702905850797600,2.526797607421875,0.03628478082418442,0.011415712505578993,0.027924948757886883
1772702905860848600,2.5368486328125,0.034029987634718414,0.01293780750632286,0.03256137638688087
1772702905870898700,2.546898681640625,0.034433599999547,-0.00431260250210762,0.02031856540739536
1772702905880948700,2.55694873046875,0.03375730817317962,0.012943068203330039,0.006820201408863067
1772702905890998800,2.566998779296875,0.004203881430625916,0.012568681932985782,-0.003475567156076431
1772702905901048600,2.577048583984375,-0.014985972207784653,-0.01009177042543888,-0.019528876334428787
1772702905911099600,2.587099609375,-0.019300328275561333,-0.025962416513264176,0.016343816557526588
1772702905921149700,2.597149658203125,0.005516133072972297,-0.0074137833878397934,0.019565116691589356
1772702905931199700,2.60719970703125,0.022093466125428677,-0.02636924374848604,0.015651158118247986
1772702905941249800,2.617249755859375,0.011980068390071392,-0.009316986660659313,0.012258008548617362
1772702905951299600,2.627299560546875,0.018389935432374476,0.01395779820382595,-0.023546879804134366
1772702905961349600,2.637349609375,0.010462649564445018,0.023192367278039454,-0.023280922344326972
1772702905971400700,2.647400634765625,-0.01491845992952585,-0.007090542782843112,-0.017516951990127563
1772702905981450800,2.65745068359375,0.0017097265273332595,-0.017303309239447114,-0.011859364619851112
1772702905991500800,2.667500732421875,0.011121697995066642,0.003762275142967701,0.008071078252792357
1772702906001550600,2.677550537109375,0.01978489692211151,-0.0036374797195196148,0.016506898164749144
1772702906011600600,2.6876005859375,0.012338088047504425,-0.0019204466685652732,0.028047113832831382
1772702906021651700,2.697651611328125,0.005408288784325123,0.029248306316137312,0.030791444104909894
1772702906031701800,2.70770166015625,0.011236264285445212,0.01997135940492153,0.027354455393552777
1772702906041751800,2.717751708984375,-0.0046247371912002564,0.00613689531981945,0.013997545692324637
1772702906051801600,2.727801513671875,-0.0011935936987400055,0.009538520456850528,0.0053308396339416505
1772702906061851600,2.7378515625,0.008591887256503105,0.007243979778885841,0.005904255607724189
1772702906071901700,2.747901611328125,0.009950900650024413,0.02165098305493593,0.017781740406155586
1772702906081952800,2.757952880859375,0.00812894591987133,0.03044014644920826,0.010012859970331191
1772702906092002800,2.7680029296875,-0.003062310180068016,0.007804828532040118,-0.014998831689357757
1772702906102052600,2.778052490234375,0.008165770798921584,0.013976795165240764,-0.02300268992483616
1772702906112102700,2.7881025390625,0.02496668347418308,0.017165362073481082,-0.00315232655107975
1772702906122152400,2.79815234375,0.009485036703944206,0.013995207604765891,0.01645955189168453
1772702906132202800,2.80820263671875,0.011085457637906073,-0.0004205634996294975,0.017011925077438355
1772702906142253600,2.818253662109375,0.03321107246726751,0.005544482384622097,0.02713818229436874
1772702906152303600,2.8283037109375,0.013824527212977408,0.003406593573093414,0.04539046282172203
1772702906162353700,2.838353759765625,0.02358078207373619,0.009184592452645302,0.030633623194694516
1772702906172403500,2.848403564453125,0.01006868181079626,0.016282441759109496,-0.012813888865709304
1772702906182453800,2.858453857421875,0.008432020519673823,0.024253274507820603,-0.010890811848640441
1772702906192504600,2.868504638671875,-0.013608254113793372,0.010587444987893104,-0.01006955859363079
1772702906202554600,2.8785546875,-0.00045300446450710294,0.013863982440531252,-0.004752747485041618
1772702906212604400,2.8886044921875,0.02759703197777271,0.01226677637696266,-0.0033808746099472046
1772702906222654500,2.898654541015625,0.035410336077213285,-0.00108925654143095,-0.004893617260456085
1772702906232704500,2.90870458984375,0.021092764650285242,-0.019189561377465723,0.018949615141749383
1772702906242754800,2.9187548828125,0.016327449944615362,-0.01517214242964983,0.022893384331464765
1772702906252805600,2.9288056640625,0.01103109710216522,-0.019659516976773737,0.009043138155341147
1772702906262855400,2.93885546875,0.02278700134754181,0.016042495523393152,0.003435819667577743
1772702906272905500,2.948905517578125,0.013187398353219032,0.03336450946331024,-0.01601122360229492
1772702906282955500,2.95895556640625,-0.0050122752040624614,0.028449557153880596,-0.008292612048983574
1772702906293005800,2.969005859375,0.006882745251059532,0.0428013231113553,0.006720832687616348
1772702906303056600,2.979056640625,0.020944003829360007,0.027062778970599173,0.007565466818213462
1772702906313106400,2.9891064453125,0.04230974020212888,0.020939327654242515,-0.006205868902802467
1772702906323156500,2.999156494140625,0.008670797711610794,0.007391571556031704,0.0032891046732664107
1772702906333206500,3.00920654296875,-0.0054775546282529826,0.0048483168140053745,0.027128245422244072
1772702906343256800,3.0192568359375,0.005654664760828018,0.011941197684407233,0.007831424278020858
1772702906353306600,3.029306640625,0.019900047734379766,0.03598872048705816,-0.01868248863816261
1772702906363357400,3.039357421875,0.010133856001496314,0.03199672824144363,-0.01490413914322853
1772702906373407500,3.049407470703125,0.0011392331629991531,0.03999064960479736,0.00040039749443531033
1772702906383457500,3.05945751953125,0.0005529577076435089,0.019453473010659215,0.0027618659287691116
1772702906393507800,3.0695078125,0.004973696759343147,0.01514730024933815,0.022773557344079015
1772702906403557600,3.0795576171875,-0.00005786766707897186,0.006729600515961646,0.022825579792261123
1772702906413607700,3.089607666015625,-0.007853636109828949,-0.0012684125006198882,0.02659925311207771
1772702906423658500,3.099658447265625,0.011288871255517006,0.002286649632453918,0.02435761166512966
1772702906433708500,3.10970849609375,-0.014569792622327804,0.013201134617626667,0.0164303257972002
1772702906443758800,3.1197587890625,0.014649287599325178,0.0018184475988149641,0.022052841854095458
1772702906453808600,3.12980859375,0.011344985356926917,0.0034808278530836104,-0.0027449147939682004
1772702906463858700,3.139858642578125,0.015048808310925959,0.001722293747961521,-0.026281857725977895
1772702906473909500,3.149909423828125,0.014064473448693752,0.011091887378692626,-0.015144377639889716
1772702906483959600,3.15995947265625,0.003806406545639038,-0.010890811848640441,0.01706044039428234
1772702906494009900,3.170009765625,0.010954232473671435,0.00011339724659919739,0.024564532414078712
1772702906504059600,3.1800595703125,0.020399813950061796,-0.00476443792283535,0.03210369574725628
1772702906514109700,3.190109619140625,0.020745558647811413,0.007791676789522171,0.014701894569396972
1772702906524159700,3.20015966796875,0.0264472774207592,-0.0033799978271126744,-0.008123685222864151
1772702906534210600,3.21021044921875,0.00777034174054861,-0.010670154835283756,0.009604863691329955
1772702906544260900,3.2202607421875,-0.012550854015350341,0.007683832500874996,-0.000682137045264244
1772702906554310700,3.230310546875,0.011191840621829032,-0.002553483875095844,0.021240356427431106
1772702906564360700,3.240360595703125,0.025380817233026026,-0.008714344592392445,0.0024620061993598937
1772702906574410800,3.25041064453125,0.014935411064326762,0.0013800561815500258,0.018232406783103942
1772702906584460800,3.260460693359375,0.02135696854442358,-0.001977437552809715,0.019547581034898755
1772702906594512000,3.270511962890625,0.029694296517968177,0.011460720691084862,0.0028758476972579957
1772702906604561700,3.280561767578125,0.030420272704958912,0.010035364063084124,-0.019748072043061254
1772702906614611700,3.29061181640625,-0.005225625693798065,0.024841011267900465,-0.0058282677620649335
1772702906624661800,3.300661865234375,-0.0010094693034887314,0.0029249475359916684,0.018773089531064033
1772702906634711800,3.3107119140625,0.027240473625063894,-0.01947510032057762,0.02053951468169689
1772702906644763000,3.320762939453125,0.0446510426312685,0.002057517051696777,0.015484569379687308
1772702906654812700,3.330812744140625,0.013746201279759406,-0.00457622187435627,0.0037198973059654234
1772702906664862700,3.34086279296875,-0.012375497448444366,0.011497837831079959,-0.006823708540201187
1772702906674912800,3.350912841796875,-0.0032651392757892606,0.01111088434010744,-0.008509469670057297
1772702906684962800,3.360962890625,-0.0041352001085877416,-0.005725684170424938,-0.008231821772456169
1772702906695012600,3.3710126953125,-0.005680968245863914,-0.017844576509296894,0.012471943560242652
1772702906705063700,3.381063720703125,-0.012732055801153183,-0.02388005728125572,0.021637831312417984
1772702906715113700,3.39111376953125,-0.009963175609707832,-0.021016484543681144,0.019150106149911878
1772702906725163800,3.401163818359375,0.003619359540939331,-0.02447568508684635,0.03801905727088451
1772702906735213800,3.4112138671875,0.03153144881725311,-0.017645839066803455,0.03944295259416103
1772702906745263600,3.421263671875,0.00006108253747224807,0.0045101709008216855,0.04435352098941803
1772702906755314700,3.431314697265625,0.00004091653227806091,0.01643383292853832,0.044506081202626224
1772702906765364700,3.44136474609375,0.004862637600302696,0.01506751301139593,0.038379122754931445
1772702906775414800,3.451414794921875,-0.007254793433845043,0.010060790765285491,-0.004392682000994682
1772702906785464600,3.461464599609375,-0.0007779986351728439,0.0019476269364356994,-0.003916881182789802
1772702906795514600,3.4715146484375,0.001404021579027176,-0.0036740123376250264,0.015528993043303489
1772702906805564700,3.481564697265625,0.016374796217679975,-0.005716331820189952,0.030233225700259207
1772702906815615700,3.49161572265625,0.03351356254518032,0.001254091714322567,-0.0020136779099702833
1772702906825665800,3.501665771484375,0.01814180589020252,0.02940437366068363,-0.021148586490750312
1772702906835715600,3.511715576171875,0.02120703867971897,0.026173428915441034,-0.021286533656716344
1772702906845765600,3.521765625,-0.0059808279752731315,0.029914076748490333,-0.0020247838258743286
1772702906855815700,3.531815673828125,0.026169045001268387,0.02520809101462364,0.028379706788063046
1772702906865865700,3.54186572265625,0.02830897963941097,0.003198211519420147,0.025862755531072614
1772702906875916800,3.551916748046875,0.03982406086623668,0.008439327043294906,0.0033329438149929044
1772702906885966600,3.561966552734375,0.035164252361655234,0.005088555310666561,-0.0030126258194446563
1772702906896016600,3.5720166015625,0.0010690905362367629,0.00986000749617815,-0.008239420557022094
1772702906906066700,3.582066650390625,0.01073883615732193,0.018202303905785082,0.00969312649667263
1772702906916116700,3.59211669921875,0.017099603360891343,0.0020838205367326736,0.0025175357788801193
1772702906926167800,3.602167724609375,0.014441782328486441,0.010702303539216518,-0.001177227085828781
1772702906936217600,3.612217529296875,0.011722878758609294,-0.009485913486778736,0.004647533544898033
1772702906946267600,3.622267578125,0.01822802286893129,0.010412672942876814,-0.014833411994576454
1772702906956317700,3.632317626953125,0.0135591542750597,0.0141734867811203,-0.006469488275051116
1772702906966367700,3.64236767578125,-0.012669511958956717,0.003737140701711178,0.0033773674786090847
1772702906976417500,3.65241748046875,0.004051321217417717,-0.004533259515464305,0.023649755656719205
1772702906986468600,3.662468505859375,0.01854658729881048,-0.0021375965505838392,0.010841127488017082
1772702906996518700,3.6725185546875,0.005311842672526836,0.011386194150149822,-0.0023065233767032623
1772702907006568700,3.682568603515625,0.014363748656213282,0.01801817951053381,-0.0004196867167949676
1772702907016618800,3.69261865234375,0.009250643426179886,0.006768471221625804,0.010284662649035454
1772702907026668500,3.70266845703125,0.007925532302260398,0.014754209278523922,0.022224106767773626
1772702907036718600,3.712718505859375,0.01289864453971386,0.007635024923086166,-0.01281973408460617
1772702907046769700,3.722769775390625,0.01238835693001747,0.010714578498899936,0.0019797756403684614
1772702907056819700,3.73281982421875,0.0010743512332439423,0.013997545692324637,0.008289104917645455
1772702907066869800,3.742869873046875,0.005029518599808215,0.0017585341051220894,0.007477788534760475
1772702907076919600,3.75291943359375,0.023521453101933,0.004441781839728355,-0.008566168293356895
1772702907086969600,3.762969482421875,0.01552373234629631,-0.014466039986908435,0.004368132081627845
1772702907097020700,3.773020751953125,-0.005294014754891396,-0.005777706618607044,0.004133154281973838
1772702907107070700,3.78307080078125,0.008419453299045563,0.0013236498191952705,0.02338029106557369
1772702907117120800,3.793120849609375,-0.002426350364089012,-0.009098083212971687,0.02547814012765884
1772702907127170600,3.803170654296875,0.00025075989067554474,-0.001592237627506256,0.001124035593867302
1772702907137220600,3.813220703125,-0.0005400982260704041,-0.0034258827954530714,0.005887304472923278
1772702907147270700,3.823270751953125,-0.01741115352809429,0.01097147586941719,0.028241759622097014
1772702907157321700,3.83332177734375,0.007353869894146919,0.0018821604847908018,0.009176993668079376
1772702907167371800,3.843371826171875,0.026846505871415138,-0.002508183428645134,-0.0056575873702764505
1772702907177421600,3.853421630859375,0.054769116541743275,-0.002805120548605919,-0.000820084211230278
1772702907187471600,3.8634716796875,0.02020049198567867,-0.010156944616138934,-0.006710895815491676
1772702907197521700,3.873521728515625,-0.012948913422226906,-0.008860182803869247,-0.004102174621820449
1772702907207572700,3.88357275390625,-0.03392740404307842,0.01206774667352438,-0.0073345806717872615
1772702907217622800,3.893622802734375,-0.01406710379719734,0.00867138223350048,0.002776478976011276
1772702907227672600,3.903672607421875,-0.013337620478868484,-0.004865267948806286,0.019766776743531226
1772702907237722600,3.91372265625,-0.0038610593423247337,0.0055509121254086495,0.034089316606521605
1772702907247772700,3.923772705078125,0.002135550723969936,-0.009353227017819881,0.011983867782354354
1772702907257822700,3.93382275390625,0.027775603415071962,-0.010772153905034065,-0.010922960552573203
1772702907267873500,3.94387353515625,0.005915361523628235,-0.021338556104898453,-0.0348912806391716
1772702907277923600,3.953923583984375,-0.02723053675293922,-0.003669628423452377,-0.01495206993818283
1772702907287973600,3.9639736328125,-0.005180032986402511,-0.010299860218167305,0.021079028385877607
1772702907298023700,3.974023681640625,0.0027495909690856933,-0.0006423895567655563,0.025521979269385337
1772702907308073700,3.98407373046875,-0.008555354638397693,0.01029226143360138,0.0235889653801918
1772702907318123500,3.99412353515625,-0.016263737058639524,0.005752864438295364,0.03298983093202114
1772702907328174600,4.004174560546875,-0.015643267072737214,0.008847031061351299,0.02755786901116371
1772702907338224600,4.014224609375,0.0031540801167488095,0.005971475625038147,0.014371055179834365
1772702907348274700,4.024274658203125,0.02321837850213051,0.013215163142979144,0.003779518538713455
1772702907358324500,4.034324462890625,-0.001266074413061142,0.009779051214456557,-0.01222936697602272
1772702907368374500,4.04437451171875,-0.007995674929022789,-0.04185001373589039,0.0028659108251333234
1772702907378425600,4.054425537109375,0.0021516250759363175,-0.03645166182368993,-0.015203414350748061
1772702907388475600,4.0644755859375,0.024024141927063463,-0.005317980152368545,-0.048501872840523715
1772702907398525700,4.074525634765625,0.0259112708479166,-0.023597148686647414,-0.010518471404910088
1772702907408575500,4.084575439453125,-0.016532032606005668,-0.03982815251946449,-0.010395721808075905
1772702907418625500,4.09462548828125,-0.037514030358195304,-0.022656360705196856,-0.001581131711602211
1772702907428675600,4.104675537109375,-0.029144845941662785,-0.024890403367578983,-0.020225041905045506
1772702907438726700,4.1147265625,-0.03889057940840721,-0.02140080768615007,-0.014713000485301017
1772702907448776700,4.124776611328125,0.004162380376458168,-0.0399038481041789,0.013829787909984587
1772702907458826500,4.134826416015625,0.005226794737577438,-0.031469781757891176,0.017561375653743744
1772702907468876500,4.14487646484375,-0.01704904221743345,-0.024419278724491594,0.013002104914188383
1772702907478926600,4.154926513671875,-0.01770925969183445,-0.015438099889457225,-0.004905892220139503
1772702907488976600,4.1649765625,-0.014358780220150946,-0.0036553076371550557,0.027595862933993336
1772702907499027700,4.17502783203125,-0.02788987744450569,0.008278291262686251,0.03428746952712536
1772702907509077500,4.185077392578125,-0.04181961859762669,0.008361293371021747,0.000986088427901268
1772702907519127600,4.19512744140625,-0.019498481196165082,0.020808687011897562,-0.004957914668321609
1772702907529177600,4.205177490234375,-0.001691314087808132,0.0022831425011157988,-0.016744214051961897
1772702907539227600,4.2152275390625,0.008200257590413092,0.010762217032909393,0.009752747729420662
1772702907549278700,4.22527880859375,0.004033785560727119,-0.00528378562182188,0.007970540487766265
1772702907559328500,4.23532861328125,0.010507950010895729,-0.015005553691089153,-0.0036199440628290175
1772702907569378600,4.245378662109375,0.0025841712743043897,0.0121104167714715,-0.003189151430130005
1772702907579428600,4.2554287109375,-0.011838321831822395,0.007783785744011402,0.0016378303349018097
1772702907589478700,4.265478759765625,-0.022395371681451795,0.0056105333581566805,-0.01535772812962532
1772702907599528400,4.275528564453125,-0.02223696624934673,0.02185761154294014,-0.01997662010192871
1772702907609579500,4.28557958984375,-0.01244154842197895,0.0032309447452425954,-0.012071546065807341
1772702907619629600,4.295629638671875,-0.016749474748969078,-0.008478490009903908,0.015694997259974478
1772702907629679600,4.3056796875,-0.006501052457094192,-0.014994447775185108,0.015147884771227835
1772702907639729700,4.315729736328125,0.0009387421548366546,-0.01409545310884714,0.00493044213950634
1772702907649779500,4.325779541015625,-0.0023319500789046287,-0.010015782579779624,-0.012608137160539627
1772702907659830500,4.33583056640625,-0.00797813927233219,-0.010599719947576523,-0.012238134804368018
1772702907669880600,4.345880615234375,-0.007709843724966049,-0.005309212324023246,-0.01289864453971386
1772702907679930600,4.3559306640625,0.0014884849920868872,-0.004470423412322998,0.006901449951529502
1772702907689980700,4.365980712890625,0.010955109256505965,-0.018282675665616987,0.025112813946604726
1772702907700030500,4.376030517578125,-0.0031485271587967873,-0.005764262615144252,0.007320552146434784
1772702907710080500,4.38608056640625,-0.013020809614658355,0.008752923037111759,-0.018180968856811523
1772702907720131600,4.396131591796875,-0.005771861399710178,0.02573445297628641,-0.009426584514975547
1772702907730181600,4.406181640625,-0.0033078093737363813,0.03543284016996622,0.006553659427165985
1772702907740231700,4.416231689453125,-0.0029874913781881333,0.03515606905519962,-0.016419804403185842
1772702907750281500,4.426281494140625,0.005477846889197826,0.026094518460333345,-0.003542202651500702
1772702907760331500,4.43633154296875,-0.024510171878337858,0.01761865879893303,-0.003082768446207046
1772702907770381600,4.446381591796875,-0.020064006124436855,0.011464520083367824,-0.0069219082176685326
1772702907780432600,4.4564326171875,-0.0015276479586958883,0.006487900714576244,-0.0017611644536256789
1772702907790482700,4.466482666015625,-0.0008937339693307876,0.015685644909739494,0.01563654507100582
1772702907800532500,4.476532470703125,0.0032712767556309697,0.012881401143968104,0.005865092641115188
1772702907810582500,4.48658251953125,-0.005627776753902435,-0.010283785866200924,-0.014177578434348106
1772702907820632600,4.496632568359375,-0.00774549956023693,-0.02863748094141483,-0.008014379629492759
1772702907830683600,4.50668359375,-0.011090133813023567,-0.01933306150138378,-0.010596212816238402
1772702907840733400,4.5167333984375,0.0037777649730443954,-0.006897942820191383,0.008047112855315208
1772702907850783500,4.526783447265625,-0.007838438540697098,-0.0011862871751189231,0.04239245004951954
1772702907860833500,4.53683349609375,-0.028402503141760824,-0.024585282941162585,0.030410335832834243
1772702907870883600,4.546883544921875,-0.030154899767041204,-0.0035056700333952902,0.0005833528459072112
1772702907880933600,4.55693359375,-0.011245616635680198,-0.00064005146920681,0.0027647885382175445
1772702907890984400,4.566984375,-0.002942483192682266,-0.0004594342052936554,0.005393383476138115
1772702907901034500,4.577034423828125,0.003218377524614334,-0.003966857804358005,0.017624504017829893
1772702907911084500,4.58708447265625,-0.010172726707160473,0.007426350608468055,0.000813069948554039
1772702907921134600,4.597134521484375,-0.006103869833052158,-0.01260229194164276,-0.01212473755776882
1772702907931184600,4.6071845703125,-0.019757716654241083,0.016940905667841434,-0.00610942279100418
1772702907941234700,4.617234619140625,-0.009490881922841072,0.009522153843939304,-0.015222703573107718
1772702907951285500,4.627285400390625,-0.0011842413485050201,0.009193652541935443,0.006297638839483261
1772702907961335600,4.63733544921875,-0.00027326398342847823,-0.003169569946825504,0.004102759143710136
1772702907971385600,4.647385498046875,0.011799158865213393,0.003181552645564079,0.006962240228056907
1772702907981435600,4.657435546875,0.00753945559412241,0.011654197436571121,0.005302782583236694
1772702907991485700,4.667485595703125,-0.0014566285490989685,0.0011477087303996085,0.010540098714828491
1772702908001536500,4.67753662109375,-0.00583235941529274,-0.0077037062451243395,-0.0015939911931753157
1772702908011586600,4.687586669921875,-0.031463644278049464,-0.007921732909977436,-0.002266191366314888
1772702908021636600,4.69763671875,-0.02002893481105566,-0.002846621602773666,-0.02184066040813923
1772702908031686700,4.707686767578125,-0.022955635912716387,-0.004058627741038799,-0.028457448199391364
1772702908041736700,4.71773681640625,-0.02265314583480358,-0.017704583516716957,0.003443418452143669
1772702908051786800,4.727786865234375,-0.014008943869173526,-0.017883739475905894,0.056868719169497484
1772702908061837600,4.737837646484375,0.03109977940171957,-0.003206687086820602,0.05778583401441574
1772702908071887600,4.7478876953125,0.03826601776927709,0.018007073594629764,0.0000339022696018219
1772702908081937700,4.757937744140625,0.02305529689490795,0.01115618478655815,-0.014985387685894965
1772702908091987700,4.76798779296875,-0.025571663630008696,-0.005897825866937637,-0.017451485538482664
1772702908102037800,4.778037841796875,-0.03423369351327419,-0.004341536335647106,-0.025631284862756728
1772702908112087600,4.788087646484375,-0.03851064018011093,-0.013815174862742424,-0.009197451934218406
1772702908122138600,4.798138671875,-0.01054360584616661,-0.021859365108609197,-0.008103811478614806
1772702908132188700,4.808188720703125,0.014916414102911947,-0.018467969104647635,0.017219430348277092
1772702908142238500,4.818238525390625,0.028958091197907924,-0.02125935338884592,0.011424480333924293
1772702908152288500,4.82828857421875,0.008541326113045216,-0.015004676908254622,-0.003101473146677017
1772702908162338600,4.838338623046875,0.01776245118379593,0.005719254429638386,-0.015128595548868178
1772702908172389600,4.8483896484375,-0.007820026101171969,0.019910276867449284,-0.041814357900619506
1772702908182439700,4.858439697265625,0.0030219781696796417,0.015760755972564218,-0.023538696497678754
1772702908192489500,4.868489501953125,-0.005102291575074196,0.009571838204562663,-0.009981880310177802
1772702908202539500,4.87853955078125,-0.01648351728916168,-0.01884673928916454,0.026533786660432813
1772702908212589600,4.888589599609375,-0.010617547865211963,-0.005436930356919765,0.026817279776930807
1772702908222639600,4.8986396484375,0.022594693645834923,0.0230617266356945,0.04519406346678734
1772702908232690700,4.908690673828125,0.003567629353702068,-0.003930617447197437,0.056959904584288595
1772702908242740500,4.918740478515625,0.0015536591827869414,-0.019889526340365407,0.0342290173381567
1772702908252790500,4.92879052734375,0.004315525111556053,-0.01194090542346239,0.013075754672288893
1772702908262840600,4.938840576171875,-0.002332534600794315,0.016550445045530795,-0.010633037695288658
1772702908272890600,4.948890625,0.008070201469957829,0.02481412326097488,-0.00029459903240203856
1772702908282941700,4.958941650390625,0.01012450365126133,0.005502104547619819,0.012096680507063865
1772702908292991500,4.968991455078125,-0.004717091649770736,-0.007905950818955898,-0.008900514814257621
1772702908303041500,4.97904150390625,0.0007598784565925597,0.012151917825639248,-0.027110125243663786
1772702908313091600,4.989091552734375,0.0020095862567424774,0.011620295166969299,-0.028897593182325362
1772702908323141600,4.9991416015625,-0.0010217442631721496,0.012810673995316027,-0.0074298577398061744
1772702908333191400,5.00919140625,-0.010783552081882954,0.0008054711639881133,0.025431962898373604
1772702908343242500,5.019242431640625,0.02292290268689394,0.008914251078665256,0.017668927681446074
1772702908353292500,5.02929248046875,0.03294628405123949,0.00540010547786951,0.04322597826421261
1772702908363342600,5.039342529296875,0.007353285372257232,0.02699497443139553,0.028920974057912826
1772702908373392600,5.049392578125,0.008231529511511326,0.028356033651530742,-0.04171031300425529
1772702908383442400,5.0594423828125,0.003685702775418758,-0.0024810031607747076,-0.019885434687137604
1772702908393492500,5.069492431640625,0.0021793898656964302,0.013540449574589728,-0.004339490509033203
1772702908403543600,5.07954345703125,0.008325929796695709,0.024810908390581605,-0.004805354455113411
1772702908413593600,5.089593505859375,0.007088496956229209,0.014688158304989337,-0.007757774519920348
1772702908423643600,5.0996435546875,-0.0012263269245624542,0.010854571491479873,-0.007055763730406761
1772702908433693400,5.109693359375,0.020355390286445618,0.014278992982208728,0.008701777371764183
1772702908443743500,5.119743408203125,0.04065817360281944,0.04023351844996214,0.022428104907274246
1772702908453793500,5.12979345703125,0.02218289797455072,0.04573123908340931,0.017716273954510687
1772702908463844600,5.1398447265625,0.0069505497902631755,0.043000645075738426,-0.013881225836277006
1772702908473894400,5.149894287109375,-0.0032329905718564986,0.03465951770991087,-0.005517302116751671
1772702908483944400,5.1599443359375,0.017071254049241542,0.005610825619101524,0.02169628350138664
1772702908493994500,5.169994384765625,-0.001412204885482788,0.018098259009420872,0.00994797804057598
1772702908504044500,5.18004443359375,0.004772036707401275,0.0338300811484456,0.0036070845812559127
1772702908514095600,5.190095703125,0.02512450438439846,0.0240311561897397,0.0011053308933973312
1772702908524145400,5.2001455078125,0.028423545929789542,0.009660101009905338,0.007111293309926986
1772702908534195500,5.210195556640625,0.005769523312151432,-0.005038286428153515,-0.008448679393529892
1772702908544245500,5.22024560546875,0.018660569067299366,0.0018315993413329124,0.0116986211001873
1772702908554295600,5.230295654296875,0.015211305396258831,0.02524988432973623,0.0046270752787590025
1772702908564345300,5.240345458984375,-0.0032698154509067535,0.01172434006333351,-0.0040378772139549254
1772702908574396400,5.250396484375,-0.008650339445471764,0.00331657720208168,0.010571662896871566
1772702908584446500,5.260446533203125,-0.011895020455121993,0.027917057712376115,0.0022580080598592757
1772702908594496500,5.27049658203125,0.005185585944354534,0.02105009455233812,-0.007009586501121521
1772702908604546600,5.280546630859375,0.013950783941149712,0.016261106710135937,-0.012709843969345092
1772702908614596400,5.290596435546875,0.03618599662482738,0.0023135376393795012,-0.012780571117997169
1772702908624647400,5.3006474609375,0.035847850711643696,0.0019964345142245293,0.009827566531300545
1772702908634696400,5.310696533203125,0.014845102432370185,-0.0019534721553325653,0.0366384165674448
1772702908644747500,5.32074755859375,0.010014029014110564,0.015637714114785192,0.03299626067280769
1772702908654797600,5.330797607421875,-0.0006163783326745033,0.0221098327383399,0.007165653845667839
1772702908664847400,5.340847412109375,-0.026152093866467475,0.012986322823166847,0.0010614917516708372
1772702908674897400,5.3508974609375,-0.004044306954741478,-0.019315818105638025,-0.0027057518273591995
1772702908684947500,5.360947509765625,0.010644143611192702,0.0327519305229187,-0.0021709142982959746
1772702908694997500,5.37099755859375,0.0012257424026727675,0.006691314332187176,0.018054127606749532
1772702908705048600,5.381048583984375,0.030222412045300004,-0.018948738358914852,0.017329904985427854
1772702908715098400,5.391098388671875,0.033738018950819966,0.011251754115521907,-0.00893500160574913
1772702908725148400,5.4011484375,-0.019862638333439826,0.00341068522632122,-0.023711714977025983
1772702908735198500,5.411198486328125,-0.009306757527589797,-0.02195551895946264,0.015962708285450933
1772702908745248500,5.42124853515625,-0.002808043158054352,-0.009504618187248706,0.028925650233030318
1772702908755298300,5.43129833984375,-0.0018190321207046509,-0.005526946727931499,0.046884500771760936
1772702908765349400,5.441349365234375,0.02826104884445667,0.016149463029205797,0.038594811332225795
1772702908775399400,5.4513994140625,0.012504092264175414,0.01944061352908611,0.0037169746965169904
1772702908785449500,5.461449462890625,0.01686959399729967,-0.004860007251799106,-0.004811784195899963
1772702908795499500,5.47149951171875,0.032600831614434715,0.023025778539478778,-0.0071270754009485245
1772702908805549300,5.48154931640625,0.01480827755331993,0.020088263782858846,-0.01895136870741844
1772702908815600400,5.491600341796875,-0.06737082396149635,-0.046538171552121636,-0.02413549334704876
1772702908825650400,5.501650390625,-0.04414776928424835,-0.04339548961222171,-0.0023375030368566513
1772702908835700500,5.511700439453125,0.018412731786072254,-0.011561550717055797,0.04062602489888668
1772702908845750500,5.52175048828125,-0.005261281529068946,-0.00414747506827116,0.03345394131243229
1772702908855800300,5.53180029296875,-0.00492518144249916,0.015236732098460196,-0.009061258333921431
1772702908865850400,5.541850341796875,0.007519874110817909,0.0024766192466020584,-0.027709844702482223
1772702908875901400,5.5519013671875,0.033356033895909784,0.005774199487268925,-0.02148994727432728
1772702908885951500,5.561951416015625,0.05983546002060174,0.004074117571115494,-0.030033903735876083
1772702908896001500,5.57200146484375,-0.005277940402925015,-0.024628829821944236,0.015087679016590118
1772702908906051300,5.58205126953125,-0.038670214655995364,-0.009329846142232418,0.03237082225084305
1772702908916101400,5.592101318359375,-0.040402737537026404,0.0005780921489000321,0.05576105018854141
1772702908926152400,5.60215234375,-0.010233224722743033,-0.003731587743759155,0.04717091649770736
1772702908936202500,5.612202392578125,-0.03290741334557533,0.008854922106862067,0.010935820034146308
1772702908946252500,5.62225244140625,0.10954174021482467,0.02778437124341726,-0.014368132570385932
1772702908956302300,5.63230224609375,0.12892448607683182,0.06824789905697107,0.07536708341240883
1772702908966352400,5.642352294921875,-0.14125322177410124,-0.0452741429656744,0.08587327985763549
1772702908976402400,5.65240234375,-0.27322482046186924,-0.04612199196666479,0.04595569548904895
1772702908986453500,5.66245361328125,-0.11960633037239313,-0.013097089721262454,0.027883447703719137
1772702908996503600,5.672503662109375,0.10991583422422409,-0.013509469914436339,-0.004353519034385681
1772702909006553300,5.68255322265625,0.15541092646420002,-0.015661679512262345,-0.07447861014008522
1772702909016603400,5.692603271484375,0.07418781049996614,0.025745558892190455,-0.07927285867929458
1772702909026654500,5.702654541015625,0.015814824247360228,0.06052694941610098,-0.031253216397762296
1772702909036704500,5.71270458984375,-0.006250292566418647,0.010807809740304946,-0.009933949515223502
1772702909046754300,5.72275439453125,0.00601794511526823,-0.022126199351251125,0.031520342901349065
