time,seconds_elapsed,z,y,x
1772702903388504000,0.064504150390625,0.009617993608117104,-0.006099228747189045,-0.004101315513253212
1772702903398555100,0.07455517578125,0.006930535659193993,-0.005569553002715111,-0.0007613612106069922
1772702903408605200,0.084605224609375,0.00932152196764946,-0.010812251828610897,-0.0013621703255921602
1772702903418655200,0.0946552734375,0.005515283904969692,-0.011468460783362389,-0.0034360201098024845
1772702903428705300,0.104705322265625,0.0012851188657805324,-0.008844448253512383,-0.006045651156455278
1772702903438755000,0.114755126953125,0.005633187014609575,-0.005440441891551018,-0.0032464545220136642
1772702903448805000,0.12480517578125,0.003696003695949912,-0.005694241262972355,-0.00022696261294186115
1772702903458856200,0.134856201171875,0.0037350591737776995,-0.007449202239513397,-0.00460558757185936
1772702903468906200,0.14490625,0.008214762434363365,-0.005222267005592585,-0.0068010976538062096
1772702903478956300,0.154956298828125,0.005304737947881222,-0.001322849653661251,-0.002731119282543659
1772702903489006000,0.165006103515625,0.0027893823571503162,-0.0036099725402891636,-0.003746050177142024
1772702903499056000,0.17505615234375,0.004735212307423353,-0.001689779106527567,-0.002270027995109558
1772702903509106200,0.185106201171875,0.004364500287920237,0.005380380433052778,-0.0010641487315297127
1772702903519157200,0.1951572265625,0.0035915884654968977,0.008624349720776081,-0.0007327673956751823
1772702903529207300,0.205207275390625,0.0053551336750388145,0.0034743286669254303,0.004132295027375221
1772702903539257000,0.215257080078125,0.0037067995872348547,0.003076295368373394,0.002523185918107629
1772702903549307100,0.22530712890625,0.000789306708611548,-0.002450029831379652,0.0009114410495385528
1772702903559357200,0.235357177734375,0.0011677900329232216,-0.001223105937242508,0.0025394775439053774
1772702903569408300,0.245408203125,0.0019286550814285874,-0.0003296150825917721,0.004990917164832354
1772702903579458300,0.255458251953125,0.0005182386375963688,0.000020981300622224808,0.004691377282142639
1772702903589508000,0.265508056640625,0.0015286419074982405,0.0001858309842646122,0.003463926026597619
1772702903599558100,0.27555810546875,0.0014651287347078323,-0.001053000334650278,0.005738499108701944
1772702903609608200,0.285608154296875,0.0025290613994002342,-0.003297512885183096,0.004469502717256546
1772702903619659300,0.2956591796875,0.0036886699963361025,-0.0013513723388314247,0.0022362929303199053
1772702903629709300,0.305709228515625,0.00613158755004406,-0.0003340449184179306,0.0063340989872813225
1772702903639759000,0.315759033203125,0.001962353941053152,-0.0028426251374185085,0.00546566117554903
1772702903649809200,0.32580908203125,0.00038922461681067944,-0.0015347464941442013,0.0010181821417063475
1772702903659859200,0.335859130859375,0.00033168739173561335,0.0008860467933118343,0.0030569625087082386
1772702903669909200,0.3459091796875,-0.00011678889859467745,-0.0026642130687832832,0.0038804118521511555
1772702903679960300,0.355960205078125,-0.00017245521303266287,-0.008154461160302162,0.0028077559545636177
1772702903690010000,0.366010009765625,0.00003527139779180288,-0.013174519874155521,-0.000366465887054801
1772702903700060200,0.37606005859375,0.002054808661341667,-0.006574912928044796,0.0014521225821226835
1772702903710110200,0.386110107421875,0.00031523185316473246,0.006434096023440361,0.0028204547706991434
1772702903720160300,0.39616015625,0.005828377325087786,0.001777096651494503,0.00815526582300663
1772702903730210000,0.4062099609375,-0.003001599572598934,0.0016684392467141151,0.00848336797207594
1772702903740261000,0.41626123046875,-0.003054713597521186,-0.0035861539654433727,0.003862886456772685
1772702903750311200,0.426311279296875,-0.00029008614365011454,-0.006555845029652119,0.0033057532273232937
1772702903760361200,0.436361328125,-0.0028565872926265,-0.0077074142172932625,0.0012211611028760672
1772702903770411300,0.446411376953125,-0.0008309870027005672,-0.0062485346570611,0.004416155628859997
1772702903780461000,0.4564609375,-0.00255511119030416,-0.0067602526396512985,0.0036016954109072685
1772702903790512000,0.46651220703125,-0.0017042311374098063,-0.005734136328101158,0.004261360503733158
1772702903800562200,0.476562255859375,0.00010852748528122902,-0.004207761492580175,0.004392141010612249
1772702903810612200,0.4866123046875,0.0022315995302051306,-0.0021400833502411842,0.008125093765556812
1772702903820662300,0.496662353515625,0.005197486840188503,-0.0020354664884507656,0.006033395417034626
1772702903830712000,0.506712158203125,0.0014594743261113763,-0.004882385954260826,0.00491433497518301
1772702903840762000,0.51676220703125,0.0008107838802970946,-0.006793586071580648,0.0063236611895263195
1772702903850813200,0.526813232421875,0.00443055247887969,-0.005914210341870785,0.005858140531927347
1772702903860863200,0.53686328125,0.002590239979326725,-0.0128330048173666,0.0011399674694985151
1772702903870913000,0.5469130859375,0.004669103771448135,-0.01578778214752674,-0.0005205135094001889
1772702903880963000,0.556963134765625,0.004027015529572964,-0.015131046995520592,-0.0003894859692081809
1772702903891013000,0.56701318359375,0.0023085519205778837,-0.013039888814091682,-0.002893072087317705
1772702903901064200,0.577064208984375,0.0041711051017045975,-0.01621813140809536,-0.001312668202444911
1772702903911114200,0.5871142578125,0.003952459432184696,-0.018776362761855125,-0.005398223642259836
1772702903921164000,0.5971640625,0.004873838275671005,-0.018835263326764107,-0.0024107410572469234
1772702903931214000,0.607214111328125,0.005255735944956541,-0.0164546649903059,-0.0006077809957787395
1772702903941264100,0.61726416015625,0.0057301754131913185,-0.014238452538847923,-0.005334326531738043
1772702903951314200,0.627314208984375,0.005814863368868828,-0.01625899225473404,-0.002896202728152275
1772702903961365200,0.637365234375,0.006342231761664152,-0.012488728389143944,-0.00041528596193529665
1772702903971415000,0.6474150390625,0.007694851141422987,-0.010671653784811497,-0.0003223415988031775
1772702903981465000,0.657465087890625,0.010379651561379433,-0.014895259402692318,-0.004997137933969498
1772702903991515100,0.66751513671875,0.011053698137402534,-0.014726148918271065,-0.006591572426259518
1772702904001565200,0.677565185546875,0.005407685413956642,-0.010389490984380245,-0.010493065230548382
1772702904011616300,0.6876162109375,0.008288959041237831,-0.007692241109907627,-0.011343678459525108
1772702904021666000,0.697666015625,0.0028691671323031187,-0.009616498835384846,-0.012908883392810822
1772702904031716000,0.707716064453125,0.005205292254686356,-0.014543878845870495,-0.010522691532969475
1772702904041766100,0.71776611328125,0.006996979005634785,-0.010526565834879875,-0.012219578959047794
1772702904051816200,0.727816162109375,0.003182533197104931,-0.004454825073480606,-0.01255061011761427
1772702904061866000,0.737865966796875,0.008710184134542942,-0.0071626026183366776,-0.0070785474963486195
1772702904071917000,0.7479169921875,0.007067546248435974,-0.0016740942373871803,-0.007263104431331158
1772702904081967000,0.757967041015625,0.0081280916929245,-0.0023749936372041702,-0.010073486715555191
1772702904092017200,0.76801708984375,0.004147730767726898,0.0014109560288488865,-0.008183974772691727
1772702904102066700,0.778066650390625,0.006226621568202972,-0.0009810547344386578,-0.00921327993273735
1772702904112116700,0.78811669921875,0.007367786020040512,-0.004663674160838127,-0.007821512408554554
1772702904122167800,0.798167724609375,0.0049062552861869335,-0.005590076092630625,-0.010777912102639675
1772702904132217900,0.8082177734375,0.001869985368102789,-0.005540807731449604,-0.008627941831946373
1772702904142268000,0.818267822265625,0.0036280243657529354,-0.00996984913945198,-0.01073085330426693
1772702904152317700,0.828317626953125,0.002254898427054286,-0.007827868685126305,-0.011924215592443943
1772702904162367700,0.83836767578125,0.004186879377812147,-0.008705327287316322,-0.011753142811357975
1772702904172417800,0.848417724609375,0.002639316488057375,-0.005336961708962917,-0.012078048661351204
1772702904182468900,0.85846875,0.0017548188334330916,-0.001425336580723524,-0.006875745486468077
1772702904192519000,0.868518798828125,-0.00014960765838623047,-0.0023968578316271305,-0.003077012486755848
1772702904202568700,0.878568603515625,-0.00111860828474164,-0.003835710696876049,-0.003828725079074502
1772702904212618800,0.88861865234375,-0.0010509639978408813,-0.0015829429030418396,0.00032048008870333433
1772702904222668800,0.898668701171875,-0.0005619453731924295,-0.003372826613485813,-0.00015124978381209075
1772702904232720000,0.908719970703125,-0.0021212261635810137,-0.006573147140443325,0.0008769966661930084
1772702904242770000,0.91877001953125,-0.003573695896193385,-0.003957230132073164,0.0013045044615864754
1772702904252819700,0.92881982421875,-0.004977447912096977,-0.0030749249272048473,0.0020954632200300694
1772702904262869800,0.938869873046875,-0.004575254861265421,-0.0019330773502588272,0.004590027034282684
1772702904272919800,0.948919921875,-0.006635476369410753,-0.0015719528310000896,0.0037593874149024487
1772702904282969900,0.958969970703125,-0.006702860351651907,0.0012963954359292984,0.004845489747822285
1772702904293021000,0.96902099609375,-0.007366519887000322,-0.0032118032686412334,0.0027423915453255177
1772702904303070700,0.97907080078125,-0.00556462537497282,-0.0029287091456353664,0.007037004921585321
1772702904313120800,0.989120849609375,-0.002934487536549568,-0.005011833738535643,0.009046093560755253
1772702904323170800,0.9991708984375,-0.0036888124886900187,-0.0017291316762566566,0.00898707378655672
1772702904333220900,1.009220947265625,-0.007862784899771214,-0.0008007539436221123,0.010076839476823807
1772702904343271700,1.019271728515625,-0.007013509050011635,-0.00018171221017837524,0.009883826598525047
1772702904353321700,1.02932177734375,-0.006555179134011269,0.0009746323339641094,0.012745393440127373
1772702904363371800,1.039371826171875,-0.006239588372409344,0.002727136015892029,0.012582075782120228
1772702904373421800,1.049421875,-0.005841445177793503,0.0032435227185487747,0.011320536024868488
1772702904383471900,1.059471923828125,-0.0037554039154201746,-0.00010275794193148613,0.0063642580062150955
1772702904393521700,1.069521728515625,-0.009634065441787243,-0.0016372711397707462,0.00663270428776741
1772702904403572700,1.07957275390625,-0.006972032133489847,-0.006980398204177618,0.011363628320395947
1772702904413622800,1.089622802734375,-0.005965090822428465,-0.009813468903303146,0.00919022224843502
1772702904423672800,1.0996728515625,-0.005641783121973276,-0.00744618522003293,0.014535453170537949
1772702904433722600,1.10972265625,-0.006968569476157427,-0.008907461538910866,0.011538597755134106
1772702904443772700,1.119772705078125,-0.008397689089179039,-0.004037507344037294,0.01440217811614275
1772702904453823000,1.129822998046875,-0.0055268025025725365,0.0004110368900001049,0.015290608629584312
1772702904463873800,1.139873779296875,-0.005929081700742245,0.0014145700260996819,0.01612134650349617
1772702904473923800,1.149923828125,-0.007525380235165358,0.001115497201681137,0.016631076112389565
1772702904483973600,1.1599736328125,-0.010692417621612549,-0.005282356403768063,0.013134676031768322
1772702904494023700,1.170023681640625,-0.010569912381470203,-0.00935299787670374,0.012049704790115356
1772702904504074000,1.180073974609375,-0.010903985239565372,-0.009772482328116894,0.011256653815507889
1772702904514124800,1.190124755859375,-0.009789451956748962,-0.006881354376673698,0.009466210380196571
1772702904524174800,1.2001748046875,-0.008653223514556885,-0.007366529665887356,0.00919413287192583
1772702904534224600,1.210224609375,-0.009359227493405342,-0.0057928673923015594,0.0065863654017448425
1772702904544274700,1.220274658203125,-0.004817076027393341,-0.0004389197565615177,0.006869758479297161
1772702904554325000,1.230324951171875,-0.00386313209310174,0.0021581947803497314,0.007468703668564558
1772702904564375000,1.240375,-0.006010159850120544,-0.0005480912514030933,0.006511166226118803
1772702904574425900,1.25042578125,-0.0031459301244467497,-0.0028940699994564056,0.009706160053610802
1772702904584475600,1.2604755859375,-0.004226497374475002,-0.005105610936880112,0.00399384880438447
1772702904594525700,1.270525634765625,-0.0036046497989445925,-0.004602805711328983,0.0041046361438930035
1772702904604576000,1.280575927734375,-0.002218474168330431,-0.0018176720477640629,0.007156086154282093
1772702904614626000,1.2906259765625,-0.0009833001531660557,-0.008842292241752148,0.006620258558541536
1772702904624676900,1.3006767578125,-0.003827965585514903,-0.013319812715053558,0.0010514198802411556
1772702904634726700,1.3107265625,0.0011271118419244885,-0.01689137890934944,0.002575546968728304
1772702904644776700,1.320776611328125,0.0006982808699831367,-0.021015308797359467,0.0012632255675271153
1772702904654826800,1.33082666015625,0.00019680766854435205,-0.019880270585417747,0.008091569878160954
1772702904664877000,1.340876953125,0.0049996208399534225,-0.01399611309170723,0.0070261568762362
1772702904674926800,1.3509267578125,0.004150072578340769,-0.008835972286760807,0.005811488721519709
1772702904684977700,1.360977783203125,0.005640699062496424,-0.0057465555146336555,0.002778662135824561
1772702904695027700,1.37102783203125,0.005381573457270861,-0.004357716999948025,0.006235178560018539
1772702904705077800,1.381077880859375,0.006243651732802391,-0.0060767680406570435,0.00250688917003572
1772702904715128000,1.391128173828125,0.003119497559964657,-0.01003262773156166,-0.003752604592591524
1772702904725177900,1.401177734375,0.006083985324949026,-0.016591675579547882,-0.005674776621162891
1772702904735228700,1.411228759765625,0.0009464813047088683,-0.01324221771210432,-0.006589838769286871
1772702904745278700,1.42127880859375,0.003068407764658332,-0.015472001396119595,-0.006408996414393187
1772702904755328800,1.431328857421875,0.0015006049070507288,-0.014192884787917137,-0.005287539213895798
1772702904765379000,1.441379150390625,0.0021456964313983917,-0.008923244662582874,-0.007254498079419136
1772702904775428900,1.451428955078125,0.002544371411204338,-0.009987177327275276,-0.007518417667597532
1772702904785479000,1.46147900390625,0.005086959805339575,-0.005683074705302715,-0.00462664058431983
1772702904795529700,1.47152978515625,0.005914936773478985,-0.0036513488739728928,-0.004576040431857109
1772702904805579800,1.481579833984375,0.007213437929749489,-0.0033191367983818054,-0.006176314782351255
1772702904815630000,1.491630126953125,0.0051963599398732185,-0.0018163151107728481,-0.006825327407568693
1772702904825680000,1.501679931640625,0.004149328917264938,-0.00462882686406374,-0.0038006773684173822
1772702904835730000,1.51172998046875,0.0014781781937927008,-0.006481055170297623,-0.005474740639328957
1772702904845780700,1.52178076171875,0.002645441796630621,-0.003937203902751207,-0.002400919795036316
1772702904855830800,1.531830810546875,0.00009360082913190126,-0.003763565793633461,-0.006166896317154169
1772702904865881000,1.541881103515625,0.0009816971141844988,-0.007181369233876467,-0.006553171202540398
1772702904875931000,1.551930908203125,0.0005782281514257193,-0.005505175329744816,-0.0017711991677060723
1772702904885981000,1.56198095703125,0.004228010307997465,-0.007359187584370375,-0.002429518848657608
1772702904896031000,1.572031005859375,0.00004817906301468611,-0.0057237399742007256,-0.00025717815151438117
1772702904906081800,1.582081787109375,-0.0016963714733719826,-0.0058203511871397495,-0.003225084161385894
1772702904916131800,1.5921318359375,0.0008818346541374922,-0.004942040890455246,-0.0020224004983901978
1772702904926182000,1.602181884765625,0.0020821087528020144,-0.004474141635000706,0.003096591681241989
1772702904936232000,1.61223193359375,0.0008876810898073018,-0.003075182903558016,0.0019341220613569021
1772702904946282000,1.622281982421875,0.001152808079496026,-0.005058758892118931,0.0060201119631528854
1772702904956332800,1.632332763671875,0.003030336694791913,-0.002893342636525631,0.006223044823855162
1772702904966382800,1.6423828125,0.0028710858896374702,-0.004634640645235777,0.003839184297248721
1772702904976433000,1.652432861328125,0.0012356387451291084,-0.0055318595841526985,0.004497517831623554
1772702904986483000,1.66248291015625,-0.002053179545328021,-0.004794350825250149,0.005059458781033754
1772702904996533000,1.672532958984375,-0.00029203109443187714,-0.00712008960545063,0.00546772126108408
1772702905006582800,1.682582763671875,-0.00030833203345537186,-0.004687975160777569,0.005222728941589594
1772702905016633900,1.6926337890625,-0.0021427173633128405,-0.0028591821901500225,0.004076504614204168
1772702905026684000,1.702683837890625,-0.005160091444849968,-0.0010804752819240093,0.0004102613020222634
1772702905036734000,1.71273388671875,-0.00374408857896924,-0.00046182330697774887,0.003198058344423771
1772702905046784000,1.722783935546875,-0.003983679227530956,0.0011426722630858421,0.005601683631539345
1772702905056833800,1.732833740234375,-0.00457623228430748,0.0050926730036735535,0.0043244315311312675
1772702905066883800,1.7428837890625,-0.004597445018589497,0.0030661486089229584,0.0010454393923282623
1772702905076935000,1.752934814453125,-0.005000114440917969,-0.0003363057039678097,0.0058308737352490425
1772702905086985000,1.76298486328125,-0.0055296639911830425,0.007187352050095797,0.004023157060146332
1772702905097035000,1.773034912109375,-0.005690252408385277,0.007441417779773474,0.003331800689920783
1772702905107084800,1.783084716796875,-0.0028134442400187254,0.0018975422717630863,0.0023439498618245125
1772702905117134800,1.793134765625,-0.00633574090898037,0.0009135049767792225,-0.0007269411580637097
1772702905127186000,1.80318603515625,-0.007646071724593639,0.0045256661251187325,0.0009191777207888663
1772702905137236000,1.813236083984375,-0.004584235139191151,0.003257468342781067,-0.0010100161889567971
1772702905147285800,1.82328564453125,-0.00622042641043663,0.001259715761989355,-0.0021719723008573055
1772702905157335800,1.833335693359375,-0.0022267496678978205,-0.00008890917524695396,0.00011115564848296344
1772702905167385900,1.8433857421875,-0.0014503700658679008,0.011030223220586777,0.0005656077992171049
1772702905177436000,1.853435791015625,-0.0049774604849517345,0.013228395953774452,0.001991464290767908
1772702905187486700,1.86348681640625,-0.004958873614668846,0.00872004684060812,0.0029398349579423666
1772702905197536800,1.873536865234375,-0.006046508438885212,0.0055817775428295135,-0.00329755456186831
1772702905207586800,1.8835869140625,-0.007671990431845188,0.004243308212608099,-0.0017050220631062984
1772702905217636900,1.893636962890625,-0.009209167212247849,0.0039596823044121265,-0.002611562144011259
1772702905227687000,1.90368701171875,-0.007386803161352873,0.0002216789871454239,-0.003035980509594083
1772702905237737700,1.91373779296875,-0.005723924841731787,0.006080633960664272,-0.0037449137307703495
1772702905247787800,1.923787841796875,-0.00417765136808157,0.00921717006713152,-0.004258260130882263
1772702905257837800,1.933837890625,-0.0013893216382712126,0.014125109650194645,0.0007894954178482294
1772702905267887900,1.943887939453125,-0.0006916909478604794,0.011518229730427265,-0.0005952452193014324
1772702905277937700,1.953937744140625,-0.000011253170669078827,0.013828788883984089,-0.0015910009387880564
1772702905287987700,1.96398779296875,0.0010452296119183302,0.01506303995847702,-0.0018605781951919198
1772702905298038800,1.974038818359375,0.000170114915817976,0.008756941184401512,-0.0022041259799152613
1772702905308088800,1.9840888671875,-0.0012269793078303337,0.005197360645979643,-0.003987112082540989
1772702905318139000,1.994138916015625,-0.0010096654295921326,0.0023267394863069057,-0.0013615017523989081
1772702905328188700,2.004188720703125,-0.003860536962747574,0.004335693083703518,-0.004302052780985832
1772702905338238700,2.01423876953125,-0.002977432683110237,0.004894157871603966,-0.002390702022239566
1772702905348289800,2.024289794921875,-0.0008311851415783167,0.0023022457025945187,-0.00582118472084403
1772702905358339800,2.03433984375,-0.0003861709265038371,0.0024577737785875797,-0.009979179129004478
1772702905368390000,2.044389892578125,0.0001258188858628273,0.001308548729866743,-0.009600977413356304
1772702905378439700,2.054439697265625,0.00063634681282565,0.0031274878419935703,-0.00945743266493082
1772702905388489700,2.06448974609375,0.0021983529441058636,0.008639993146061897,-0.00962982326745987
1772702905398539800,2.074539794921875,0.002650025300681591,0.011883722618222237,-0.009827695786952972
1772702905408590800,2.0845908203125,0.004038486164063215,0.011908454820513725,-0.011671365238726139
1772702905418641000,2.094640869140625,0.0006778431707061827,0.010001365095376968,-0.011884684674441814
1772702905428690700,2.104690673828125,0.0025038854219019413,0.007573298178613186,-0.010710150003433228
1772702905438740700,2.11474072265625,-0.0019121679943054914,0.00485873781144619,-0.012463308870792389
1772702905448790800,2.124790771484375,0.0012382154818624258,0.0015081441961228848,-0.012004413641989231
1772702905458840800,2.1348408203125,0.0005604410544037819,-0.0002913535572588444,-0.011493885889649391
1772702905468892000,2.144891845703125,-0.00010307691991329193,0.0039257085882127285,-0.0127525944262743
1772702905478941700,2.154941650390625,0.0015821714187040925,0.0026915990747511387,-0.011029529385268688
1772702905488991700,2.16499169921875,0.0015655180905014277,0.0068914578296244144,-0.01224543061107397
1772702905499041800,2.175041748046875,-0.00007232604548335075,0.007356978487223387,-0.011537295766174793
1772702905509091800,2.185091796875,0.0002592493547126651,0.008362870663404465,-0.004693369381129742
1772702905519143000,2.195142822265625,-0.00008882570546120405,0.010698463767766953,-0.007514988072216511
1772702905529192700,2.205192626953125,-0.0016602145042270422,0.010331960394978523,-0.006573125720024109
1772702905539242800,2.21524267578125,0.0007688546320423484,0.00751433614641428,-0.0066937669180333614
1772702905549292800,2.225292724609375,-0.0012334524653851986,0.010068092495203018,-0.004615871235728264
1772702905559342800,2.2353427734375,-0.0028049838729202747,0.0035305661149322987,-0.004854756873100996
1772702905569392600,2.245392578125,-0.0034368836786597967,0.0045089139603078365,-0.0023781664203852415
1772702905579443700,2.255443603515625,-0.002050974639132619,0.009329767897725105,-0.002515585394576192
1772702905589493800,2.26549365234375,-0.003292403882369399,0.010068599134683609,-0.0024799315724521875
1772702905599543800,2.275543701171875,-0.0054447706788778305,0.012263044714927673,-0.0031734188087284565
1772702905609593900,2.28559375,-0.0043671997264027596,0.013244302943348885,-0.0009281266247853637
1772702905619643600,2.2956435546875,-0.0038161922711879015,0.011421369388699532,0.0027640797197818756
1772702905629694700,2.30569482421875,-0.000886647030711174,0.007727202493697405,0.002235026564449072
1772702905639744800,2.315744873046875,-0.00180250802077353,0.00477828411385417,0.0032401036005467176
1772702905649794800,2.325794921875,-0.002518563997000456,0.005697509739547968,0.005713231861591339
1772702905659844900,2.335844970703125,-0.003557995893061161,0.009917819872498512,0.008413410745561123
1772702905669894700,2.345894775390625,-0.003282891120761633,0.008958550170063972,0.008192635141313076
1772702905679944700,2.35594482421875,-0.0040187225677073,0.011494677513837814,0.0045939055271446705
1772702905689995800,2.365995849609375,-0.003233628813177347,0.011255383491516113,0.008159411139786243
1772702905700045800,2.3760458984375,-0.0017379974015057087,0.008581038564443588,0.005515424069017172
1772702905710096000,2.386095947265625,0.0013201847905293107,0.005940557923167944,0.0031822803430259228
1772702905720145700,2.396145751953125,-0.001204225467517972,0.00372081296518445,0.00043709389865398407
1772702905730195700,2.40619580078125,-0.0008826458360999823,0.0038841362111270428,0.0016962038353085518
1772702905740245800,2.416245849609375,0.0017387035768479109,0.003513157833367586,0.0023643909953534603
1772702905750296800,2.426296875,0.0005442138062790036,0.0029115239158272743,-0.0010409088572487235
1772702905760346600,2.4363466796875,0.001408143201842904,0.0036167288199067116,-0.0031613176688551903
1772702905770396700,2.446396728515625,-0.0033705090172588825,0.009451234713196754,-0.0017239118460565805
1772702905780446700,2.45644677734375,0.00011610123328864574,0.009710093960165977,0.0001355073181912303
1772702905790496800,2.466496826171875,-0.0006973580457270145,0.0065567162819206715,-0.001503168372437358
1772702905800547800,2.4765478515625,0.0022843170445412397,0.0085732601583004,-0.004101082216948271
1772702905810597600,2.48659765625,-0.004355346318334341,0.005805100779980421,-0.003447509603574872
1772702905820647700,2.496647705078125,-0.0026298840530216694,0.008975593373179436,-0.003156692488119006
1772702905830697700,2.50669775390625,-0.0003448855131864548,0.004981260281056166,-0.002535708714276552
1772702905840747800,2.516747802734375,-0.0002519411500543356,0.002304517198354006,-0.0015111904358491302
1772702905850797600,2.526797607421875,0.0007815456483513117,0.0036426950246095657,-0.0013017868623137474
1772702905860848600,2.5368486328125,0.0009176331805065274,0.008657161146402359,-0.0018488002242520452
1772702905870898700,2.546898681640625,0.004823511466383934,0.012796306982636452,0.002394867828115821
1772702905880948700,2.55694873046875,0.0049462830647826195,0.012139037251472473,-0.004073684103786945
1772702905890998800,2.566998779296875,0.0017190519720315933,0.01280241459608078,-0.003022137563675642
1772702905901048600,2.577048583984375,0.002336638979613781,0.009167999029159546,-0.0031808619387447834
1772702905911099600,2.587099609375,-0.002310496522113681,0.005634170491248369,-0.004498341586440802
1772702905921149700,2.597149658203125,0.0007609271560795605,0.0061723957769572735,-0.0063447109423577785
1772702905931199700,2.60719970703125,0.0015071387169882655,0.007010349538177252,-0.003236736636608839
1772702905941249800,2.617249755859375,-0.0013661456760019064,0.004978358279913664,-0.008199537172913551
1772702905951299600,2.627299560546875,0.003735263366252184,0.0037280581891536713,-0.008141116239130497
1772702905961349600,2.637349609375,-0.0000797149259597063,0.00931696780025959,-0.007787714712321758
1772702905971400700,2.647400634765625,0.00018582073971629143,0.0089011425152421,-0.004812360741198063
1772702905981450800,2.65745068359375,0.004398675169795752,0.0059980303049087524,-0.003479981329292059
1772702905991500800,2.667500732421875,0.004927183035761118,0.004737094510346651,-0.006460091099143028
1772702906001550600,2.677550537109375,0.0053426362574100494,0.012331897392868996,-0.005362868774682283
1772702906011600600,2.6876005859375,0.00447256863117218,0.01080482266843319,-0.0037693690974265337
1772702906021651700,2.697651611328125,0.003179870080202818,0.0006137038581073284,-0.0017839825013652444
1772702906031701800,2.70770166015625,0.0075426604598760605,-0.0015951222740113735,-0.0031720218248665333
1772702906041751800,2.717751708984375,0.004456057213246822,-0.000391639769077301,-0.005311871878802776
1772702906051801600,2.727801513671875,0.001989346696063876,-0.004651032388210297,-0.005053932778537273
1772702906061851600,2.7378515625,0.003363537834957242,-0.005661169998347759,-0.006533851381391287
1772702906071901700,2.747901611328125,0.004781885538250208,-0.005433215759694576,-0.005052382126450539
1772702906081952800,2.757952880859375,0.004849529825150967,-0.0029490189626812935,-0.0038161426782608032
1772702906092002800,2.7680029296875,0.006106480024755001,0.0019298647530376911,-0.0015190819976851344
1772702906102052600,2.778052490234375,0.007327805273234844,0.0031943335197865963,-0.0004160007229074836
1772702906112102700,2.7881025390625,0.007326820865273476,0.0077780866995453835,0.0030911024659872055
1772702906122152400,2.79815234375,0.007732686586678028,0.007632678374648094,0.0005629635415971279
1772702906132202800,2.80820263671875,0.00801058392971754,0.005193683784455061,0.0003017400740645826
1772702906142253600,2.818253662109375,0.0034597746562212706,0.0055580041371285915,-0.0005227745859883726
1772702906152303600,2.8283037109375,0.004124909173697233,0.0032692323438823223,0.0009565135696902871
1772702906162353700,2.838353759765625,0.007862389087677002,0.0005528074689209461,-0.005187665112316608
1772702906172403500,2.848403564453125,0.001366721699014306,-0.0012408243492245674,-0.006533314008265734
1772702906182453800,2.858453857421875,0.0034375956747680902,-0.006396703887730837,-0.005982039961963892
1772702906192504600,2.868504638671875,0.004856813699007034,-0.004343511536717415,-0.0045744888484478
1772702906202554600,2.8785546875,0.004152674227952957,-0.0022830236703157425,0.000396567746065557
1772702906212604400,2.8886044921875,0.006886185146868229,0.0024705836549401283,-0.0028150929138064384
1772702906222654500,2.898654541015625,0.008086205460131168,0.0039869872853159904,-0.0034009884111583233
1772702906232704500,2.90870458984375,0.00544728571549058,0.0035972422920167446,-0.004392282571643591
1772702906242754800,2.9187548828125,0.002129785716533661,0.012531615793704987,-0.0033688293769955635
1772702906252805600,2.9288056640625,0.003754859557375312,0.003152513410896063,-0.0052819084376096725
1772702906262855400,2.93885546875,0.003575628623366356,-0.0012164022773504257,-0.007970370352268219
1772702906272905500,2.948905517578125,0.0016002013580873609,0.0011411886662244797,-0.005857123527675867
1772702906282955500,2.95895556640625,0.00031868822406977415,-0.0021451525390148163,-0.0029137982055544853
1772702906293005800,2.969005859375,0.0015680630458518863,0.004238239023834467,-0.00517064006999135
1772702906303056600,2.979056640625,0.0034543799702078104,0.002450990956276655,-0.003626539371907711
1772702906313106400,2.9891064453125,0.00020586233586072922,0.004417079500854015,-0.0019285730086266994
1772702906323156500,2.999156494140625,0.0026136264204978943,0.00327112153172493,0.0001026199315674603
1772702906333206500,3.00920654296875,0.0017545400187373161,0.0006005121394991875,0.003647599834948778
1772702906343256800,3.0192568359375,0.0016695851227268577,0.0023163864389061928,0.0024417205713689327
1772702906353306600,3.029306640625,0.0031463648192584515,0.002765015698969364,0.0008683063788339496
1772702906363357400,3.039357421875,0.0013591173337772489,0.0012331651523709297,0.0002632362302392721
1772702906373407500,3.049407470703125,0.0035333335399627686,0.00441699055954814,0.0028735357336699963
1772702906383457500,3.05945751953125,0.001850748318247497,0.006018083076924086,0.0009099871967919171
1772702906393507800,3.0695078125,-0.000585505273193121,0.0032336232252418995,0.003829012857750058
1772702906403557600,3.0795576171875,-0.0009711310267448425,0.0027294871397316456,0.0021456286776810884
1772702906413607700,3.089607666015625,0.0012985573848709464,0.00009556859731674194,0.0050457133911550045
1772702906423658500,3.099658447265625,-0.0017262608744204044,-0.003383318893611431,0.0016688249306753278
1772702906433708500,3.10970849609375,0.0001847370294854045,-0.0040020328015089035,0.0036265936214476824
1772702906443758800,3.1197587890625,0.001459325896576047,-0.004804177209734917,0.005259643774479628
1772702906453808600,3.12980859375,-0.0003273888723924756,-0.003624929580837488,0.0025887596420943737
1772702906463858700,3.139858642578125,0.0015996865695342422,-0.003717857412993908,0.004570287186652422
1772702906473909500,3.149909423828125,0.0020575285889208317,-0.0007482967339456081,0.0022928640246391296
1772702906483959600,3.15995947265625,0.004030398093163967,-0.0005869092419743538,-0.002231580438092351
1772702906494009900,3.170009765625,0.0065724775195121765,-0.002004307694733143,0.001338242320343852
1772702906504059600,3.1800595703125,0.0054155997931957245,-0.003584893885999918,0.001840780838392675
1772702906514109700,3.190109619140625,0.0020135417580604553,-0.0005044871941208839,0.0012586464872583747
1772702906524159700,3.20015966796875,0.0008958130492828786,0.001087017823010683,-0.0002508331963326782
1772702906534210600,3.21021044921875,0.0017253195401281118,-0.0023097461089491844,0.001314189750701189
1772702906544260900,3.2202607421875,0.0021524906624108553,-0.004390207584947348,0.0018806441221386194
1772702906554310700,3.230310546875,0.005476382095366716,-0.003755043726414442,-0.0004645354929380119
1772702906564360700,3.240360595703125,0.007909712381660938,-0.008175358176231384,-0.002850195160135627
1772702906574410800,3.25041064453125,0.008100810460746288,-0.005594131536781788,-0.0006662998348474503
1772702906584460800,3.260460693359375,0.0053460365161299706,-0.0017868764698505402,-0.0021664584055542946
1772702906594512000,3.270511962890625,0.007604972459375858,0.0006431220099329948,-0.002652906347066164
1772702906604561700,3.280561767578125,0.007034789305180311,-0.0012250849977135658,-0.00007709721103310585
1772702906614611700,3.29061181640625,0.0010265621822327375,0.006507599726319313,0.00418958580121398
1772702906624661800,3.300661865234375,0.003912895917892456,0.003745635040104389,0.00213788659311831
1772702906634711800,3.3107119140625,-0.00032917282078415155,-0.0012835594825446606,-0.002130908193066716
1772702906644763000,3.320762939453125,0.00034567213151603937,-0.0058290427550673485,-0.0010901446221396327
1772702906654812700,3.330812744140625,0.000262649729847908,-0.0009664739482104778,-0.0022652808111160994
1772702906664862700,3.34086279296875,0.002969486638903618,-0.002998998388648033,0.0007265142630785704
1772702906674912800,3.350912841796875,0.004301491193473339,-0.003698907792568207,0.0002732825232669711
1772702906684962800,3.360962890625,0.00451933778822422,-0.002556944265961647,-0.0023853513412177563
1772702906695012600,3.3710126953125,0.007280939724296331,-0.0004423377104103565,-0.0011284616775810719
1772702906705063700,3.381063720703125,0.007440995890647173,0.003916457761079073,0.000290736963506788
1772702906715113700,3.39111376953125,0.01009909063577652,0.0005884305573999882,0.002399759367108345
1772702906725163800,3.401163818359375,0.010538246482610703,-0.005608213134109974,-0.0005811166483908892
1772702906735213800,3.4112138671875,0.010115484707057476,-0.004653380252420902,-0.004973364993929863
1772702906745263600,3.421263671875,0.008054464124143124,-0.008239593356847763,-0.0022382985334843397
1772702906755314700,3.431314697265625,0.004553658422082663,-0.0129019096493721,-0.003533380338922143
1772702906765364700,3.44136474609375,0.00873322319239378,-0.015380780212581158,-0.006229830905795097
1772702906775414800,3.451414794921875,0.008607108145952225,-0.013726778328418732,-0.0056775943376123905
1772702906785464600,3.461464599609375,0.007756228558719158,-0.01383676566183567,-0.005437376908957958
1772702906795514600,3.4715146484375,0.007772497832775116,-0.014636479318141937,-0.005465867929160595
1772702906805564700,3.481564697265625,0.009054809808731079,-0.014061236754059792,-0.003508444409817457
1772702906815615700,3.49161572265625,0.011794403195381165,-0.008902427740395069,-0.004322572611272335
1772702906825665800,3.501665771484375,0.0113741559907794,-0.008886980824172497,-0.004321774002164602
1772702906835715600,3.511715576171875,0.009340895339846611,-0.0060959625989198685,0.0009277650970034301
1772702906845765600,3.521765625,0.010119603946805,-0.0051926178857684135,0.006325992289930582
1772702906855815700,3.531815673828125,0.007418829947710037,-0.007286155130714178,0.005899171810597181
1772702906865865700,3.54186572265625,0.0054640695452690125,-0.008875795640051365,-0.0006775042274966836
1772702906875916800,3.551916748046875,0.007606241852045059,-0.0089887585490942,-0.0026014233008027077
1772702906885966600,3.561966552734375,0.0018684612587094307,-0.00414553377777338,-0.004299720749258995
1772702906896016600,3.5720166015625,0.002873544581234455,-0.00977637991309166,-0.0012113185366615653
1772702906906066700,3.582066650390625,0.004053059034049511,-0.008793140761554241,-0.002994837472215295
1772702906916116700,3.59211669921875,0.007189606316387653,-0.0055055199190974236,-0.0022865342907607555
1772702906926167800,3.602167724609375,0.006604776717722416,-0.002641289960592985,-0.003202129155397415
1772702906936217600,3.612217529296875,0.005154009442776442,-0.002953627612441778,-0.0006379398982971907
1772702906946267600,3.622267578125,0.003953989129513502,-0.005313455127179623,-0.0040169586427509785
1772702906956317700,3.632317626953125,0.004522778559476137,-0.002169618848711252,0.003455955535173416
1772702906966367700,3.64236767578125,0.007516438141465187,-0.004622390028089285,0.002905480097979307
1772702906976417500,3.65241748046875,0.003542407415807247,-0.006689294707030058,0.0017729219980537891
1772702906986468600,3.662468505859375,0.004418853670358658,-0.0065396251156926155,-0.00038157537346705794
1772702906996518700,3.6725185546875,0.0039329566061496735,-0.0010669012553989887,-0.001945351017639041
1772702907006568700,3.682568603515625,0.003096457337960601,-0.005601732060313225,-0.0013847554801031947
1772702907016618800,3.69261865234375,0.006067411974072456,-0.00677422434091568,-0.0007691495702601969
1772702907026668500,3.70266845703125,0.0022601569071412086,-0.01001928560435772,-0.0009414561209268868
1772702907036718600,3.712718505859375,0.0020916538778692484,-0.007672196254134178,-0.004192058928310871
1772702907046769700,3.722769775390625,0.003813121234998107,-0.007482313085347414,-0.0017792348517104983
1772702907056819700,3.73281982421875,0.003138120286166668,-0.010265815071761608,-0.0012431784998625517
1772702907066869800,3.742869873046875,0.0036260115448385477,-0.005624191835522652,-0.002643468789756298
1772702907076919600,3.75291943359375,0.002721149940043688,-0.004840502981096506,-0.0012471869122236967
1772702907086969600,3.762969482421875,0.002128330525010824,-0.0028577796183526516,-0.0009486466296948493
1772702907097020700,3.773020751953125,0.0012821144191548228,0.000051262788474559784,0.00218026852235198
1772702907107070700,3.78307080078125,0.003677095053717494,-0.003902732627466321,0.0008934292709454894
1772702907117120800,3.793120849609375,0.0012374966172501445,-0.005594853311777115,-0.0020255637355148792
1772702907127170600,3.803170654296875,0.0001352143008261919,-0.01158110611140728,0.001360645517706871
1772702907137220600,3.813220703125,0.00012801738921552896,-0.011235835961997509,0.002964199986308813
1772702907147270700,3.823270751953125,-0.0007569510489702225,-0.007638704497367144,0.0010919978376477957
1772702907157321700,3.83332177734375,0.00004321185406297445,-0.000811068806797266,0.004425846040248871
1772702907167371800,3.843371826171875,0.0008405622793361545,0.0019799242727458477,0.0024359319359064102
1772702907177421600,3.853421630859375,0.0038809324614703655,0.0001741945743560791,0.002760599134489894
1772702907187471600,3.8634716796875,-0.0002472334308549762,0.002519640140235424,-0.0006551713449880481
1772702907197521700,3.873521728515625,-0.0009296408388763666,0.00044620921835303307,0.0026804101653397083
1772702907207572700,3.88357275390625,-0.0021637496538460255,-0.00724340183660388,0.00020020842202939093
1772702907217622800,3.893622802734375,-0.0011117521207779646,-0.009178446605801582,0.0005728310206905007
1772702907227672600,3.903672607421875,0.000553256191778928,-0.012242945842444897,0.0013957477640360594
1772702907237722600,3.91372265625,-0.002960109617561102,-0.0069033619947731495,0.0007032279390841722
1772702907247772700,3.923772705078125,0.0016884380020201206,-0.003783734980970621,0.0017863356042653322
1772702907257822700,3.93382275390625,-0.001987250754609704,0.0025358228012919426,0.0021444654557853937
1772702907267873500,3.94387353515625,-0.0007454187143594027,0.0062235016375780106,0.002648069290444255
1772702907277923600,3.953923583984375,-0.0019624275155365467,0.0012968038208782673,0.007521102204918861
1772702907287973600,3.9639736328125,-0.0008108767215162516,-0.0012454492971301079,0.0021202117204666138
1772702907298023700,3.974023681640625,0.00033387402072548866,-0.007189836818724871,0.00017673475667834282
1772702907308073700,3.98407373046875,-0.0020051803439855576,-0.008230067789554596,0.0036769274156540632
1772702907318123500,3.99412353515625,-0.0001454014563933015,-0.0060503315180540085,0.00494631240144372
1772702907328174600,4.004174560546875,-0.0010838995222002268,-0.0014963257126510143,0.003592094872146845
1772702907338224600,4.014224609375,-0.00337363057769835,-0.002765438985079527,0.0031635728664696217
1772702907348274700,4.024274658203125,-0.005412813276052475,-0.003256525844335556,0.003676497843116522
1772702907358324500,4.034324462890625,-0.00459947669878602,-0.008019180968403816,0.006765166763216257
1772702907368374500,4.04437451171875,-0.005976597312837839,-0.007085476536303759,0.002017016988247633
1772702907378425600,4.054425537109375,-0.007595266681164503,-0.001871007028967142,0.000591693096794188
1772702907388475600,4.0644755859375,-0.006522545125335455,0.0029940553940832615,0.00006278930231928825
1772702907398525700,4.074525634765625,-0.006725874729454517,-0.0015646717511117458,-0.0009495107224211097
1772702907408575500,4.084575439453125,-0.006831335835158825,-0.0011132657527923584,0.0008720913901925087
1772702907418625500,4.09462548828125,-0.0026162273716181517,0.0007589883171021938,-0.0003968070959672332
1772702907428675600,4.104675537109375,-0.0007075399626046419,0.0029614227823913097,0.0029899347573518753
1772702907438726700,4.1147265625,-0.00009574380237609148,0.005665498785674572,0.002456087851896882
1772702907448776700,4.124776611328125,0.0029679567087441683,-0.0010147741995751858,-0.0005767198745161295
1772702907458826500,4.134826416015625,0.002801318187266588,0.0003826315514743328,-0.0005851903697475791
1772702907468876500,4.14487646484375,-0.00013827916700392962,0.0004449491389095783,-0.0016429979586973786
1772702907478926600,4.154926513671875,-0.000337843201123178,-0.0011036177165806293,-0.0061995224095880985
1772702907488976600,4.1649765625,-0.0014867307618260384,-0.010157300159335136,-0.0048788608983159065
1772702907499027700,4.17502783203125,-0.0024403769057244062,-0.012636790052056313,-0.003578765317797661
1772702907509077500,4.185077392578125,-0.004354124888777733,-0.012901773676276207,-0.0028740931302309036
1772702907519127600,4.19512744140625,-0.002806575270369649,-0.01188286766409874,-0.006163765676319599
1772702907529177600,4.205177490234375,-0.0003253082977607846,-0.010662607848644257,-0.00493391789495945
1772702907539227600,4.2152275390625,0.00044341012835502625,-0.01094896998256445,-0.001546610496006906
1772702907549278700,4.22527880859375,0.0007041336502879858,-0.006871670484542847,-0.002115728100761771
1772702907559328500,4.23532861328125,0.000028216978535056114,-0.003458704799413681,0.0010548304999247193
1772702907569378600,4.245378662109375,0.00284317834302783,-0.006162079516798258,-0.00018087620264850557
1772702907579428600,4.2554287109375,0.00410765316337347,-0.002959220204502344,0.0028220387175679207
1772702907589478700,4.265478759765625,0.0030525089241564274,-0.008275155909359455,-0.003210553666576743
1772702907599528400,4.275528564453125,0.001505417050793767,-0.008109533227980137,-0.00742918299511075
1772702907609579500,4.28557958984375,-0.002016613492742181,-0.01186219323426485,-0.007277648895978928
1772702907619629600,4.295629638671875,-0.005450856871902943,-0.008866747841238976,-0.011882309801876545
1772702907629679600,4.3056796875,-0.0033613410778343678,-0.009772222489118576,-0.00971183367073536
1772702907639729700,4.315729736328125,-0.00015147181693464518,-0.010051315650343895,-0.011274222284555435
1772702907649779500,4.325779541015625,0.0007361597381532192,-0.011303267441689968,-0.009175917133688927
1772702907659830500,4.33583056640625,-0.0010404475033283234,-0.007310141809284687,-0.008259925991296768
1772702907669880600,4.345880615234375,0.002043493092060089,-0.007040630094707012,-0.003952529281377792
1772702907679930600,4.3559306640625,0.0013020753394812346,-0.006690548732876778,-0.0032031808514147997
1772702907689980700,4.365980712890625,0.0044083865359425545,-0.003915534354746342,-0.004842356778681278
1772702907700030500,4.376030517578125,0.005035554524511099,-0.0021041943691670895,-0.0025594295002520084
1772702907710080500,4.38608056640625,0.00020431389566510916,0.002003731206059456,0.0008837713394314051
1772702907720131600,4.396131591796875,-0.0014076849911361933,0.00010172044858336449,0.004153469577431679
1772702907730181600,4.406181640625,0.001444027991965413,-0.003798212856054306,0.004129767883569002
1772702907740231700,4.416231689453125,-0.00015401141718029976,0.004107700195163488,0.0026411586441099644
1772702907750281500,4.426281494140625,-0.0035119911190122366,0.0019718450494110584,0.0032960299868136644
1772702907760331500,4.43633154296875,-0.007096345070749521,-0.0027479506097733974,0.0015503931790590286
1772702907770381600,4.446381591796875,-0.0073394919745624065,0.002041744999587536,0.00008379045175388455
1772702907780432600,4.4564326171875,-0.007786506786942482,-0.00031176209449768066,0.0012596087763085961
1772702907790482700,4.466482666015625,-0.005271683447062969,0.002223567571491003,0.003002115059643984
1772702907800532500,4.476532470703125,-0.00642091128975153,0.0012416169047355652,-0.0002067789318971336
1772702907810582500,4.48658251953125,-0.006015045568346977,0.0014964817091822624,-0.0010986714623868465
1772702907820632600,4.496632568359375,-0.00589218782261014,0.00384065555408597,0.002257364569231868
1772702907830683600,4.50668359375,-0.0030836183577775955,0.005922181997448206,0.000999287236481905
1772702907840733400,4.5167333984375,-0.0035964753478765488,0.00308661675080657,-0.0019167570862919092
1772702907850783500,4.526783447265625,-0.0030209659598767757,-0.002380319871008396,0.0005381446098908782
1772702907860833500,4.53683349609375,-0.0016487070824950933,0.0015612556599080563,0.0001446788082830608
1772702907870883600,4.546883544921875,-0.003995218314230442,0.0018773735500872135,0.0014387087430804968
1772702907880933600,4.55693359375,-0.002207308541983366,0.0012141750194132328,0.005294200032949448
1772702907890984400,4.566984375,-0.004093625582754612,-0.002246868796646595,0.004830542951822281
1772702907901034500,4.577034423828125,-0.0021441038697957993,-0.0038279234431684017,0.00443445285782218
1772702907911084500,4.58708447265625,-0.0017022853717207909,-0.0006899205036461353,0.00046953835408203304
1772702907921134600,4.597134521484375,-0.0018809346947818995,0.0022624661214649677,0.001930061960592866
1772702907931184600,4.6071845703125,-0.0026399358175694942,0.00342014292255044,0.004959141369909048
1772702907941234700,4.617234619140625,-0.002257363172248006,0.0002599833533167839,0.005684488452970982
1772702907951285500,4.627285400390625,-0.006480603478848934,0.004488816484808922,0.009275494143366814
1772702907961335600,4.63733544921875,-0.00855780765414238,0.008516605943441391,0.009620822966098785
1772702907971385600,4.647385498046875,-0.008325047791004181,0.0011071604676544666,0.004129651002585888
1772702907981435600,4.657435546875,-0.0033540462609380484,0.00013575656339526176,0.006148612592369318
1772702907991485700,4.667485595703125,-0.004005189053714275,0.0017293919809162617,0.0065584732219576836
1772702908001536500,4.67753662109375,-0.005348110571503639,0.0036378465592861176,0.005094495601952076
1772702908011586600,4.687586669921875,-0.0037262453697621822,0.0016822880133986473,0.003164768684655428
1772702908021636600,4.69763671875,-0.007463124580681324,0.0016859187744557858,0.004995276220142841
1772702908031686700,4.707686767578125,-0.0026915392372757196,0.006909708958119154,0.0028066905215382576
1772702908041736700,4.71773681640625,-0.002413281239569187,0.008631579577922821,0.007282021455466747
1772702908051786800,4.727786865234375,-0.0035632343497127295,0.002949458546936512,0.00930708833038807
1772702908061837600,4.737837646484375,-0.0036621191538870335,-0.0010398803278803825,0.004795707296580076
1772702908071887600,4.7478876953125,-0.003248796332627535,0.0061543830670416355,0.001482468913309276
1772702908081937700,4.757937744140625,-0.004306337796151638,0.007667857687920332,-0.0034015022683888674
1772702908091987700,4.76798779296875,-0.0028810137882828712,0.0023705638013780117,0.002790347207337618
1772702908102037800,4.778037841796875,-0.004795410670340061,0.0014990027993917465,0.0038208276964724064
1772702908112087600,4.788087646484375,-0.005496887490153313,0.003032451495528221,0.005196084268391132
1772702908122138600,4.798138671875,-0.00391251128166914,0.005351291503757238,0.0017048618756234646
1772702908132188700,4.808188720703125,-0.0055277179926633835,0.0037384810857474804,0.00393605837598443
1772702908142238500,4.818238525390625,-0.0022050831466913223,0.008116230368614197,0.0011877277866005898
1772702908152288500,4.82828857421875,-0.00273878057487309,0.006709815934300423,0.001105436123907566
1772702908162338600,4.838338623046875,-0.0024132197722792625,0.006069910246878862,-0.0012431079521775246
1772702908172389600,4.8483896484375,0.0008619357831776142,0.006699215155094862,-0.0012207373511046171
1772702908182439700,4.858439697265625,-0.0018281538505107164,0.002690712921321392,-0.0012206770479679108
1772702908192489500,4.868489501953125,0.002148211933672428,0.00589928962290287,0.0012621879577636719
1772702908202539500,4.87853955078125,0.002107578795403242,0.006444539874792099,0.0026714589912444353
1772702908212589600,4.888589599609375,0.0007301918813027442,0.004914553835988045,0.0013622490223497152
1772702908222639600,4.8986396484375,0.00009108718950301409,0.004219350405037403,0.000875404104590416
1772702908232690700,4.908690673828125,-0.0024104199837893248,0.0017652474343776703,0.0033401597756892443
1772702908242740500,4.918740478515625,-0.004307860508561134,0.0032822093926370144,0.0035193059593439102
1772702908252790500,4.92879052734375,-0.0034428657963871956,-0.00022996729239821434,0.001966683194041252
1772702908262840600,4.938840576171875,-0.00003820587880909443,-0.0006773318164050579,-0.0034442758187651634
1772702908272890600,4.948890625,-0.0013657915405929089,-0.005440928041934967,-0.004289829172194004
1772702908282941700,4.958941650390625,-0.0002637954894453287,-0.007647253572940826,-0.0021923943422734737
1772702908292991500,4.968991455078125,0.0005623171455226839,-0.000011970754712820053,-0.005042243283241987
1772702908303041500,4.97904150390625,0.0020604815799742937,0.0011460422538220882,-0.004417231772094965
1772702908313091600,4.989091552734375,0.0059817200526595116,-0.0001485203392803669,-0.001953807892277837
1772702908323141600,4.9991416015625,0.0030833398923277855,0.004786025732755661,-0.003263199934735894
1772702908333191400,5.00919140625,0.0027326014824211597,0.006249965168535709,-0.0015411998610943556
1772702908343242500,5.019242431640625,0.0014328559627756476,0.004935643635690212,-0.00032156999805010855
1772702908353292500,5.02929248046875,0.002886409405618906,0.002406972460448742,-0.0018907043850049376
1772702908363342600,5.039342529296875,0.0019217308145016432,0.00500949053093791,-0.004821766167879105
1772702908373392600,5.049392578125,0.00013794563710689545,0.004162870813161135,-0.004475022666156292
1772702908383442400,5.0594423828125,-0.00016925320960581303,-0.00028095021843910217,-0.006423358805477619
1772702908393492500,5.069492431640625,-0.0010544878896325827,-0.001916930079460144,-0.0057447850704193115
1772702908403543600,5.07954345703125,0.001741756801493466,0.0001794658601284027,-0.004242813680320978
1772702908413593600,5.089593505859375,0.0006317512597888708,0.00880065094679594,-0.0022057616151869297
1772702908423643600,5.0996435546875,0.0007344873156398535,0.01056736521422863,-0.00020431206212379038
1772702908433693400,5.109693359375,0.000539543922059238,0.0076373559422791,-0.0009630466811358929
1772702908443743500,5.119743408203125,0.0011361045762896538,0.008896250277757645,0.0008775998139753938
1772702908453793500,5.12979345703125,-0.00012010859791189432,0.009266963228583336,0.002645406173542142
1772702908463844600,5.1398447265625,-0.0005615779664367437,0.008364073932170868,-0.004213312175124884
1772702908473894400,5.149894287109375,-0.005730240605771542,0.0015469146892428398,-0.0050759101286530495
1772702908483944400,5.1599443359375,-0.005049482919275761,0.0007768771611154079,-0.002431410364806652
1772702908493994500,5.169994384765625,-0.0013972236774861813,0.004583333153277636,0.0003726318827830255
1772702908504044500,5.18004443359375,-0.0043765828013420105,0.005419644061475992,0.0012546844081953168
1772702908514095600,5.190095703125,-0.0033352868631482124,0.007870018482208252,0.001088236807845533
1772702908524145400,5.2001455078125,-0.0018392333295196295,0.010312903672456741,-0.00023504981072619557
1772702908534195500,5.210195556640625,-0.003607572289183736,0.009454300627112389,0.0012768267188221216
1772702908544245500,5.22024560546875,-0.004146356135606766,0.0069351778365671635,-0.0017421380616724491
1772702908554295600,5.230295654296875,-0.0006078141741454601,0.010658010840415955,-0.0014483914710581303
1772702908564345300,5.240345458984375,-0.0007205144502222538,0.008609235286712646,-0.00210943422280252
1772702908574396400,5.250396484375,-0.002951444359496236,0.002882904838770628,-0.0020188866183161736
1772702908584446500,5.260446533203125,-0.0032590588089078665,0.003506988752633333,-0.0019068383844569325
1772702908594496500,5.27049658203125,-0.0026971318293362856,0.00858377106487751,-0.0013467754470184445
1772702908604546600,5.280546630859375,-0.002583000110462308,0.010637424886226654,0.0006890479708090425
1772702908614596400,5.290596435546875,-0.0015462313313037157,0.012606300413608551,0.0029636539984494448
1772702908624647400,5.3006474609375,-0.0003831111826002598,0.01105358824133873,0.0013685835292562842
1772702908634696400,5.310696533203125,-0.0022955271415412426,0.01249142736196518,0.0063444338738918304
1772702908644747500,5.32074755859375,-0.0018064281903207302,0.007230566348880529,0.004717943258583546
1772702908654797600,5.330797607421875,-0.002714300062507391,0.00503612169995904,0.0016230838373303413
1772702908664847400,5.340847412109375,0.00008335697930306196,0.008000629022717476,-0.0010766277555376291
1772702908674897400,5.3508974609375,-0.0035233621019870043,0.0006942469626665115,0.00019662949489429593
1772702908684947500,5.360947509765625,-0.001767155947163701,0.0015301243402063847,-0.002099118661135435
1772702908694997500,5.37099755859375,-0.001369013451039791,0.004803947638720274,-0.0007571516325697303
1772702908705048600,5.381048583984375,0.0008273634593933821,0.0069777886383235455,-0.0007141579408198595
1772702908715098400,5.391098388671875,0.0008065907750278711,0.012426882982254028,0.002069111680611968
1772702908725148400,5.4011484375,-0.0030583122279495,0.010324263945221901,0.0008793796878308058
1772702908735198500,5.411198486328125,0.0006245733238756657,0.005801151040941477,-0.001030106795951724
1772702908745248500,5.42124853515625,0.0009708341676741838,-0.002758239395916462,-0.005831739865243435
1772702908755298300,5.43129833984375,0.004551720805466175,-0.002517756074666977,-0.011137821711599827
1772702908765349400,5.441349365234375,0.0007516560144722462,0.0007965476252138615,-0.010066698305308819
1772702908775399400,5.4513994140625,0.0049021923914551735,0.002948382403701544,-0.002288137562572956
1772702908785449500,5.461449462890625,-0.0027854060754179955,0.02296079322695732,-0.004220424219965935
1772702908795499500,5.47149951171875,0.004185684025287628,-0.011309029534459114,-0.007013547699898481
1772702908805549300,5.48154931640625,-0.0004926228430122137,0.027083002030849457,-0.001553151523694396
1772702908815600400,5.491600341796875,0.000028824200853705406,0.011057697236537933,-0.0019779258873313665
1772702908825650400,5.501650390625,-0.002915826626121998,-0.00043982407078146935,-0.006766886916011572
1772702908835700500,5.511700439453125,-0.002516352105885744,-0.006079067941755056,-0.009916874580085278
1772702908845750500,5.52175048828125,-0.000910881906747818,-0.002029022201895714,-0.011282379738986492
1772702908855800300,5.53180029296875,-0.00003869656939059496,0.00673464173451066,-0.009669302962720394
1772702908865850400,5.541850341796875,-0.000513661652803421,0.012868115678429604,-0.0042448085732758045
1772702908875901400,5.5519013671875,0.003894402412697673,0.014861756935715675,-0.004782234318554401
1772702908885951500,5.561951416015625,0.0022512320429086685,0.01255093328654766,-0.007754322607070208
1772702908896001500,5.57200146484375,0.00017929275054484606,0.011061692610383034,-0.005307942628860474
1772702908906051300,5.58205126953125,0.0054789213463664055,0.007311137393116951,0.002041667466983199
1772702908916101400,5.592101318359375,0.007758321240544319,0.008213149383664131,-0.0000816708488855511
1772702908926152400,5.60215234375,0.010622885078191757,0.024614395573735237,0.05316648632287979
1772702908936202500,5.612202392578125,0.010085992515087128,-0.013377727009356022,0.05681927874684334
1772702908946252500,5.62225244140625,0.001194941927678883,-0.03022654540836811,-0.00023167728795669973
1772702908956302300,5.63230224609375,0.002664474304765463,-0.024406738579273224,-0.03177948296070099
1772702908966352400,5.642352294921875,-0.0018887137994170189,-0.030154746025800705,-0.02035418525338173
1772702908976402400,5.65240234375,-0.0013006879016757011,-0.055732809007167816,-0.014331979677081108
1772702908986453500,5.66245361328125,-0.0009394455701112747,-0.03727346286177635,-0.027438562363386154
1772702908996503600,5.672503662109375,0.006026318296790123,-0.003924296237528324,-0.03096645325422287
1772702909006553300,5.68255322265625,0.007204971741884947,0.00996912270784378,-0.020600812509655952
1772702909016603400,5.692603271484375,0.007056900300085545,0.004928556736558676,-0.004193078260868788
1772702909026654500,5.702654541015625,0.004476296715438366,0.00447075953707099,0.004251006990671158
1772702909036704500,5.71270458984375,0.0046789078041911125,-0.0035220696590840816,-0.0012305584968999028
1772702909046754300,5.72275439453125,0.007086016237735748,-0.006908330135047436,-0.008090426214039326
