time,seconds_elapsed,z,y,x
1772702643117493500,0.063493408203125,0.002161988290026784,0.00888003408908844,0.020128104835748672
1772702643127542300,0.073542236328125,0.0016251745400950313,0.01629650592803955,0.015438728965818882
1772702643137592300,0.08359228515625,0.0022147982381284237,0.01358514092862606,0.002133309142664075
1772702643147642400,0.093642333984375,0.00031548214610666037,0.009088777005672455,-0.005251919385045767
1772702643157692400,0.1036923828125,-0.0005045051220804453,0.007870380766689777,-0.0028183225076645613
1772702643167742200,0.1137421875,0.002343900501728058,0.0032711788080632687,0.000672229565680027
1772702643177792300,0.123792236328125,0.000726296566426754,0.0023491927422583103,0.001969455275684595
1772702643187842300,0.13384228515625,0.003801488084718585,0.0028014476411044598,0.003822175320237875
1772702643197892400,0.143892333984375,0.004721610341221094,0.005800965707749128,-0.0013163939584046602
1772702643207941400,0.15394140625,0.005005535203963518,0.010341745801270008,-0.0004960042424499989
1772702643217991400,0.163991455078125,0.003692330326884985,0.010825376026332378,-0.006691848859190941
1772702643228041500,0.17404150390625,0.002495863474905491,0.007623088546097279,-0.0071611562743783
1772702643238091500,0.184091552734375,0.003021571319550276,0.0027364548295736313,-0.009842959232628345
1772702643248141300,0.194141357421875,0.0016067569376900792,-0.0021637743338942528,-0.009004252962768078
1772702643258191400,0.20419140625,-0.000010314513929188251,-0.0062325517646968365,-0.006293421145528555
1772702643268241400,0.214241455078125,0.0038223639130592346,-0.016024475917220116,-0.0062973396852612495
1772702643278291500,0.22429150390625,0.0015794497448951006,-0.017566978931427002,-0.0032735862769186497
1772702643288340200,0.23434033203125,0.0028528659604489803,-0.007146226242184639,-0.003176972037181258
1772702643298390300,0.244390380859375,0.0022792210802435875,-0.0038686739280819893,-0.0015266111586242914
1772702643308440300,0.2544404296875,0.004609309136867523,-0.008098136633634567,0.0014733844436705112
1772702643318490400,0.264490478515625,0.00412434758618474,-0.002257824409753084,0.0029935166239738464
1772702643328540400,0.27454052734375,0.0057456279173493385,-0.0008427323773503304,-0.0036891342606395483
1772702643338590500,0.284590576171875,0.008202127180993557,0.0020939353853464127,-0.0009380889241583645
1772702643348640500,0.294640625,0.007709022145718336,0.005165547132492065,-0.004344485700130463
1772702643358690300,0.304690185546875,0.007649100851267576,-0.004278820939362049,-0.0021910537034273148
1772702643368740400,0.314740234375,0.006761481054127216,-0.01129032764583826,-0.0024456284008920193
1772702643378789400,0.324789306640625,0.006084505468606949,-0.01173347793519497,-0.008003112860023975
1772702643388839400,0.33483935546875,0.004035469144582748,-0.004985293839126825,-0.008291266858577728
1772702643398889200,0.34488916015625,0.00317207258194685,0.0037855603732168674,-0.006183641031384468
1772702643408939300,0.354939208984375,0.002105157822370529,0.010391950607299805,-0.004531397484242916
1772702643418989300,0.3649892578125,-0.00022564083337783813,0.010145075619220734,-0.003725524991750717
1772702643429039400,0.375039306640625,-0.000589623348787427,0.016501648351550102,-0.007578491233289242
1772702643439089400,0.38508935546875,0.001340902061201632,0.018626585602760315,-0.007150787394493818
1772702643449139500,0.395139404296875,-0.0018731956370174885,0.017358792945742607,-0.006743495352566242
1772702643459188500,0.4051884765625,-0.002083585364744067,0.010859083384275436,-0.004325877875089645
1772702643469238300,0.41523828125,-0.002302143955603242,0.004264494404196739,-0.01282684039324522
1772702643479288300,0.425288330078125,-0.002103738486766815,-0.00026208069175481796,-0.011050512082874775
1772702643489338400,0.43533837890625,-0.0053655728697776794,0.0036194436252117157,-0.009544402360916138
1772702643499388400,0.445388427734375,-0.007642841897904873,0.014125613495707512,-0.010265053249895573
1772702643509438200,0.455438232421875,-0.00862791482359171,0.020635267719626427,-0.0070246485993266106
1772702643519488300,0.46548828125,-0.008318454958498478,0.015068728476762772,-0.0071029458194971085
1772702643529538300,0.475538330078125,-0.00996666494756937,0.01819690316915512,-0.005698814522475004
1772702643539587300,0.48558740234375,-0.014314542524516582,0.019361503422260284,-0.003809035290032625
1772702643549637400,0.495637451171875,-0.015951883047819138,0.032134197652339935,-0.0061098793521523476
1772702643559687400,0.5056875,-0.022558119148015976,0.043982334434986115,0.0007970290025696158
1772702643569737500,0.515737548828125,-0.021362246945500374,0.04606761783361435,-0.000358528399374336
1772702643579787300,0.525787353515625,-0.022210996598005295,0.046035923063755035,0.0014561496209353209
1772702643589837300,0.53583740234375,-0.022432588040828705,0.039455752819776535,0.007060922682285309
1772702643599887400,0.545887451171875,-0.020445868372917175,0.03283140808343887,0.016172928735613823
1772702643609937400,0.5559375,-0.01488108653575182,0.03114449605345726,0.017645716667175293
1772702643619987200,0.5659873046875,-0.00811213068664074,0.026731904596090317,0.02353183552622795
1772702643630036500,0.576036376953125,-0.008672017604112625,0.027518967166543007,0.027834227308630943
1772702643640086500,0.58608642578125,-0.00617343932390213,0.03693057596683502,0.03165426477789879
1772702643650136600,0.596136474609375,-0.0043341307900846004,0.037561964243650436,0.037178099155426025
1772702643660186400,0.606186279296875,0.000847049115691334,0.0422280877828598,0.04182611405849457
1772702643670236400,0.616236328125,0.0028627454303205013,0.059225596487522125,0.04361896589398384
1772702643680286500,0.626286376953125,0.0076210154220461845,0.06648058444261551,0.05173574760556221
1772702643690336500,0.63633642578125,0.005711254198104143,0.06612615287303925,0.05607607960700989
1772702643700386300,0.64638623046875,0.0034568882547318935,0.058542534708976746,0.06476917117834091
1772702643710435300,0.656435302734375,0.001765053253620863,0.050590477883815765,0.06254658848047256
1772702643720485400,0.6664853515625,0.003960030619055033,0.04765673726797104,0.06862126290798187
1772702643730535200,0.67653515625,-0.0003261846723034978,0.059886250644922256,0.06898736953735352
1772702643740585200,0.686585205078125,0.0005997964181005955,0.061276692897081375,0.06867950409650803
1772702643750635300,0.69663525390625,-0.0022426992654800415,0.061172597110271454,0.06886091083288193
1772702643760685600,0.706685546875,-0.006385512184351683,0.06236463040113449,0.06623902916908264
1772702643770735400,0.7167353515625,-0.0052472627721726894,0.06431225687265396,0.05997049808502197
1772702643780785400,0.726785400390625,-0.000738264643587172,0.06781138479709625,0.05303242802619934
1772702643790835500,0.73683544921875,0.0014314304571598768,0.07391085475683212,0.05070973560214043
1772702643800884200,0.74688427734375,0.0012463406892493367,0.06725135445594788,0.043586309999227524
1772702643810934300,0.756934326171875,-0.0020461061503738165,0.05350414291024208,0.03625820577144623
1772702643820984300,0.766984375,0.0006884275353513658,0.03966662287712097,0.026780281215906143
1772702643831034400,0.777034423828125,0.0014686527429148555,0.034477777779102325,0.017297174781560898
1772702643841084400,0.78708447265625,0.00283858273178339,0.032666563987731934,0.012012399733066559
1772702643851134200,0.79713427734375,0.00008094147779047489,0.03434266895055771,0.004721737001091242
1772702643861184000,0.80718408203125,0.004046388436108828,0.03031117655336857,-0.0023838430643081665
1772702643871234300,0.817234375,0.005238243378698826,0.018653355538845062,-0.004855580627918243
1772702643881283300,0.827283447265625,0.00622787419706583,0.015383526682853699,-0.016487736254930496
1772702643891333400,0.83733349609375,0.009483445435762405,0.02841809019446373,-0.027108078822493553
1772702643901383200,0.847383056640625,0.010860832408070564,0.02824178710579872,-0.033081814646720886
1772702643911433200,0.85743310546875,0.014023673720657825,0.012611569836735725,-0.03992817550897598
1772702643921483300,0.867483154296875,0.015396799892187119,-0.004472608678042889,-0.04621323570609093
1772702643931533300,0.877533203125,0.017801668494939804,-0.011173568665981293,-0.05712859705090523
1772702643941583000,0.8875830078125,0.020988406613469124,-0.010220423340797424,-0.06589838862419128
1772702643951633200,0.897633056640625,0.02310587279498577,-0.006315224338322878,-0.06922576576471329
1772702643961683200,0.90768310546875,0.024466481059789658,-0.011282818391919136,-0.07294460386037827
1772702643971732200,0.917732177734375,0.02447432652115822,-0.023930715397000313,-0.07699812203645706
1772702643981782300,0.9277822265625,0.02858065627515316,-0.030569177120923996,-0.08334895968437195
1772702643991832300,0.937832275390625,0.026156770065426826,-0.040810372680425644,-0.086103655397892
1772702644001882400,0.94788232421875,0.026277676224708557,-0.04920225962996483,-0.08707650750875473
1772702644011932200,0.95793212890625,0.028883347287774086,-0.04770148545503616,-0.09205702692270279
1772702644021982200,0.967982177734375,0.030074046924710274,-0.049343593418598175,-0.09355079382658005
1772702644032032300,0.9780322265625,0.03325343504548073,-0.05720611289143562,-0.09005826711654663
1772702644042082300,0.988082275390625,0.03202119097113609,-0.07051899284124374,-0.09406978636980057
1772702644052131000,0.998131103515625,0.03162933886051178,-0.07984055578708649,-0.09348305314779282
1772702644062181000,1.00818115234375,0.036120761185884476,-0.07237358391284943,-0.08819747716188431
1772702644072231200,1.018231201171875,0.03968678042292595,-0.054482851177453995,-0.09406879544258118
1772702644082281500,1.028281494140625,0.03548670932650566,-0.05199439078569412,-0.0924229621887207
1772702644092331300,1.038331298828125,0.04155106842517853,-0.06642276048660278,-0.08959316462278366
1772702644102381300,1.04838134765625,0.04115638881921768,-0.06737802922725677,-0.08461331576108932
1772702644112431400,1.058431396484375,0.04153954237699509,-0.05965694785118103,-0.08394152671098709
1772702644122481400,1.0684814453125,0.04469964653253555,-0.06680859625339508,-0.08471944183111191
1772702644132530200,1.0785302734375,0.04619448632001877,-0.07257267087697983,-0.08275718986988068
1772702644142580200,1.088580322265625,0.043475665152072906,-0.06416214257478714,-0.07499780505895615
1772702644152630300,1.09863037109375,0.04189940541982651,-0.05427045375108719,-0.07187364250421524
1772702644162680000,1.10868017578125,0.03984610736370087,-0.05267202481627464,-0.06793003529310226
1772702644172730000,1.118730224609375,0.036373719573020935,-0.06161791831254959,-0.06499597430229187
1772702644182780200,1.1287802734375,0.036796096712350845,-0.06053667515516281,-0.05758866295218468
1772702644192830200,1.138830322265625,0.032831523567438126,-0.04283903166651726,-0.05208833888173103
1772702644202880300,1.14888037109375,0.030054908245801926,-0.03083110600709915,-0.048427026718854904
1772702644212929300,1.15892919921875,0.02844831719994545,-0.02883969619870186,-0.03953425586223602
1772702644222979300,1.168979248046875,0.028466425836086273,-0.020263252779841423,-0.02923368476331234
1772702644233029000,1.179029052734375,0.028596382588148117,-0.015505481511354446,-0.022516218945384026
1772702644243079200,1.1890791015625,0.027326321229338646,-0.01660802960395813,-0.016753405332565308
1772702644253129200,1.199129150390625,0.019340306520462036,-0.021192429587244987,-0.015380186960101128
1772702644263179300,1.20917919921875,0.019498497247695923,-0.022280331701040268,-0.014945825561881065
1772702644273229000,1.21922900390625,0.014906194061040878,-0.021665289998054504,-0.012216901406645775
1772702644283279000,1.229279052734375,0.01548782829195261,-0.01695975288748741,-0.006074852775782347
1772702644293329200,1.2393291015625,0.009832166135311127,-0.01215391606092453,-0.001218639430589974
1772702644303378400,1.24937841796875,0.011783198453485966,-0.008146124891936779,0.002698604017496109
1772702644313428200,1.25942822265625,0.005042859353125095,-0.003329542465507984,0.006829777266830206
1772702644323478300,1.269478271484375,0.0060628498904407024,-0.003749523311853409,0.014962006360292435
1772702644333528300,1.2795283203125,0.0036337808705866337,0.0024993177503347397,0.016241921111941338
1772702644343578400,1.289578369140625,0.0025930176489055157,0.007866652682423592,0.021642811596393585
1772702644353628200,1.299628173828125,0.0015428410843014717,0.005406527314335108,0.023001084104180336
1772702644363678200,1.30967822265625,0.001469071488827467,-0.0030468786135315895,0.024555571377277374
1772702644373728300,1.319728271484375,-0.002860071137547493,-0.012223435565829277,0.025205587968230247
1772702644383777000,1.329777099609375,0.0016073816223070025,-0.013253546319901943,0.027734261006116867
1772702644393827000,1.3398271484375,-0.0027370015159249306,-0.006017647683620453,0.021997150033712387
1772702644403877400,1.34987744140625,-0.001772671123035252,-0.007523665204644203,0.025840889662504196
1772702644413927400,1.359927490234375,-0.002346315886825323,-0.004507635720074177,0.026206541806459427
1772702644423977200,1.369977294921875,-0.0006605350645259023,0.0001241341233253479,0.026247821748256683
1772702644434027300,1.38002734375,-0.0011801993241533637,0.00889664702117443,0.02291981503367424
1772702644444077300,1.390077392578125,0.0004738899879157543,0.017709046602249146,0.0196092389523983
1772702644454127400,1.40012744140625,-0.00026906910352408886,0.016716398298740387,0.014216343872249126
1772702644464176000,1.410176025390625,-0.0003521597245708108,0.023400135338306427,0.01806594245135784
1772702644474226200,1.42022607421875,-0.0004979694494977593,0.024959096685051918,0.018010182306170464
1772702644484276200,1.430276123046875,-0.004613884724676609,0.014168236404657364,0.01864108443260193
1772702644494326300,1.440326171875,-0.004554946906864643,0.016247838735580444,0.01805211417376995
1772702644504376000,1.4503759765625,-0.0037844942416995764,0.011929788626730442,0.017770884558558464
1772702644514426000,1.460426025390625,-0.004259633831679821,0.00877491757273674,0.01729031279683113
1772702644524476400,1.470476318359375,-0.0025197910144925117,0.01046203076839447,0.017841320484876633
1772702644534526500,1.4805263671875,-0.0047104135155677795,0.0109458202496171,0.013920288532972336
1772702644544575200,1.4905751953125,-0.007097671274095774,0.006563589908182621,0.009075199253857136
1772702644554625300,1.500625244140625,-0.00503200851380825,-0.0005638017319142818,0.0059145474806427956
1772702644564675300,1.51067529296875,-0.005160106346011162,-0.002890871837735176,0.0022753379307687283
1772702644574725000,1.52072509765625,-0.001965573988854885,-0.011808859184384346,-0.0008013166952878237
1772702644584775200,1.530775146484375,-0.0032662618905305862,-0.028715938329696655,-0.001579226111061871
1772702644594825200,1.5408251953125,-0.0006330127362161875,-0.03293059021234512,-0.004748504143208265
1772702644604875300,1.550875244140625,0.00043464842019602656,-0.027898546308279037,-0.009856713004410267
1772702644614925000,1.560925048828125,0.0043070074170827866,-0.020798571407794952,-0.01134401187300682
1772702644624974300,1.570974365234375,0.007396008353680372,-0.018102120608091354,-0.011673977598547935
1772702644635024400,1.5810244140625,0.010415374301373959,-0.030344363301992416,-0.013432101346552372
1772702644645074200,1.59107421875,0.015245815739035606,-0.04254723712801933,-0.013976451940834522
1772702644655124200,1.601124267578125,0.017772801220417023,-0.04825378581881523,-0.017620833590626717
1772702644665174300,1.61117431640625,0.02009561099112034,-0.0409466028213501,-0.019767073914408684
1772702644675224300,1.621224365234375,0.018142785876989365,-0.0384707897901535,-0.020583240315318108
1772702644685274000,1.631274169921875,0.017015734687447548,-0.03500787913799286,-0.022793130949139595
1772702644695324200,1.64132421875,0.017275340855121613,-0.03950927034020424,-0.018416207283735275
1772702644705374200,1.651374267578125,0.015267851762473583,-0.03945786878466606,-0.020442606881260872
1772702644715423200,1.66142333984375,0.014680408872663975,-0.04602804034948349,-0.01539007481187582
1772702644725473300,1.671473388671875,0.016451677307486534,-0.04645174741744995,-0.017191970720887184
1772702644735523300,1.6815234375,0.01476220227777958,-0.04120177775621414,-0.020311197265982628
1772702644745573400,1.691573486328125,0.013544605113565922,-0.03891545161604881,-0.01881743036210537
1772702644755623400,1.70162353515625,0.012797236442565918,-0.03355816751718521,-0.018132580444216728
1772702644765673200,1.711673095703125,0.011780441738665104,-0.03664397448301315,-0.016868112608790398
1772702644775723300,1.72172314453125,0.0063423095270991325,-0.033242009580135345,-0.012092843651771545
1772702644785773300,1.731773193359375,0.005384104326367378,-0.03073224425315857,-0.01615442894399166
1772702644795822000,1.741822021484375,0.011720499955117702,-0.033283356577157974,-0.019844572991132736
1772702644805872000,1.7518720703125,0.011628088541328907,-0.038641370832920074,-0.025069428607821465
1772702644815922200,1.761922119140625,0.014391670934855938,-0.04053618386387825,-0.02591247297823429
1772702644825972200,1.77197216796875,0.01599542610347271,-0.043934378772974014,-0.028995348140597343
1772702644836022000,1.78202197265625,0.017208725214004517,-0.04062012583017349,-0.03162970766425133
1772702644846072300,1.792072265625,0.013911464251577854,-0.03194674476981163,-0.04143999144434929
1772702644856122000,1.8021220703125,0.013115260750055313,-0.0290475282818079,-0.04196232557296753
1772702644866172200,1.812172119140625,0.013719265349209309,-0.039980337023735046,-0.04013859108090401
1772702644876221000,1.822220947265625,0.013308563269674778,-0.047054536640644073,-0.03986344486474991
1772702644886271000,1.83227099609375,0.014557586051523685,-0.04251597821712494,-0.04180674999952316
1772702644896321000,1.842321044921875,0.01030242070555687,-0.03625107184052467,-0.04104575142264366
1772702644906370800,1.852370849609375,0.007203299086540937,-0.03561297804117203,-0.03867926821112633
1772702644916420900,1.8624208984375,0.005389602854847908,-0.037725068628787994,-0.03369660675525665
1772702644926471000,1.872470947265625,0.00422926340252161,-0.03215266764163971,-0.03079882450401783
1772702644936521000,1.88252099609375,0.001055718632414937,-0.026615146547555923,-0.031149107962846756
1772702644946570800,1.89257080078125,-0.0003115482395514846,-0.02461378090083599,-0.026751697063446045
1772702644956620000,1.9026201171875,-0.004921930842101574,-0.026766475290060043,-0.02395179495215416
1772702644966670000,1.912670166015625,-0.003155988408252597,-0.02409932017326355,-0.01908034086227417
1772702644976720100,1.92272021484375,-0.006119482684880495,-0.022173447534441948,-0.016706036403775215
1772702644986770000,1.93277001953125,-0.0036230352707207203,-0.024614768102765083,-0.013174420222640038
1772702644996820000,1.942820068359375,-0.003162273671478033,-0.023137960582971573,-0.007031439803540707
1772702645006870000,1.9528701171875,-0.004472016356885433,-0.013175075873732567,0.004172744695097208
1772702645016920000,1.962920166015625,-0.004010679200291634,0.001168813556432724,0.004840318113565445
1772702645026969900,1.972969970703125,-0.0063918111845850945,0.01161586120724678,0.008676868863403797
1772702645037019100,1.98301904296875,-0.009218141436576843,0.010865588672459126,0.0127830496057868
1772702645047069200,1.993069091796875,-0.015600140206515789,0.0035240529105067253,0.009728670120239258
1772702645057119000,2.003118896484375,-0.023386118933558464,-0.004213978536427021,0.014830445870757103
1772702645067169000,2.0131689453125,-0.026885779574513435,-0.005908281542360783,0.0185527466237545
1772702645077219000,2.023218994140625,-0.027468765154480934,-0.005042778328061104,0.022136982530355453
1772702645087269000,2.03326904296875,-0.02491026557981968,-0.003031026106327772,0.02650616504251957
1772702645097319000,2.04331884765625,-0.02271982468664646,-0.01043149083852768,0.03088011033833027
1772702645107369000,2.053368896484375,-0.024653011932969093,-0.008859959430992603,0.03305378183722496
1772702645117418000,2.06341796875,-0.026592018082737923,-0.004433893598616123,0.03398658707737923
1772702645127467800,2.0734677734375,-0.03138251230120659,-0.004218976013362408,0.03868653252720833
1772702645137517800,2.083517822265625,-0.028866995126008987,-0.004461016971617937,0.036053769290447235
1772702645147567900,2.09356787109375,-0.030830010771751404,0.0023183259181678295,0.04019365459680557
1772702645157618000,2.103617919921875,-0.031333595514297485,0.007020960096269846,0.043380238115787506
1772702645167668200,2.113668212890625,-0.029304267838597298,0.0036137118004262447,0.044028449803590775
1772702645177718000,2.123718017578125,-0.030271494761109352,-0.0056571951135993,0.04831014946103096
1772702645187768000,2.13376806640625,-0.029687464237213135,-0.002028105314821005,0.04686005786061287
1772702645197817000,2.143817138671875,-0.030606605112552643,0.009042449295520782,0.048765163868665695
1772702645207867000,2.153866943359375,-0.030940566211938858,0.01860239915549755,0.05258094146847725
1772702645217917000,2.1639169921875,-0.029826391488313675,0.020693084225058556,0.05694086104631424
1772702645227967000,2.173967041015625,-0.03105064481496811,0.01692551001906395,0.0587475523352623
1772702645238017000,2.18401708984375,-0.03406740352511406,0.013634782284498215,0.06120015308260918
1772702645248066800,2.19406689453125,-0.03540510684251785,0.017142698168754578,0.06734086573123932
1772702645258116900,2.204116943359375,-0.038678012788295746,0.026883995160460472,0.07443134486675262
1772702645268167000,2.2141669921875,-0.04006258770823479,0.03907408565282822,0.08200564235448837
1772702645278216000,2.2242158203125,-0.04327712953090668,0.04075966775417328,0.08644560724496841
1772702645288266000,2.234265869140625,-0.04419378936290741,0.03800090402364731,0.08483226597309113
1772702645298316000,2.24431591796875,-0.04345565289258957,0.03551642969250679,0.09139122068881989
1772702645308366000,2.254365966796875,-0.04555875435471535,0.03237070515751839,0.08861887454986572
1772702645318416000,2.264415771484375,-0.04714451730251312,0.03243603929877281,0.08887261897325516
1772702645328466000,2.2744658203125,-0.04483848437666893,0.03398599848151207,0.09011472016572952
1772702645338516000,2.284515869140625,-0.048250459134578705,0.03379092738032341,0.09474338591098785
1772702645348566000,2.29456591796875,-0.050656355917453766,0.028790578246116638,0.09315720945596695
1772702645358615000,2.304614990234375,-0.05412955582141876,0.036412883549928665,0.09383248537778854
1772702645368665000,2.3146650390625,-0.04880962520837784,0.041835080832242966,0.09649884700775146
1772702645378715100,2.324715087890625,-0.05097620189189911,0.03384232521057129,0.09420809149742126
1772702645388765200,2.33476513671875,-0.053352802991867065,0.025703441351652145,0.09231831133365631
1772702645398815000,2.34481494140625,-0.052034877240657806,0.019921312108635902,0.09174937009811401
1772702645408865000,2.354864990234375,-0.04929501935839653,0.019746076315641403,0.08994294703006744
1772702645418915000,2.3649150390625,-0.04635460302233696,0.01874821074306965,0.08757284283638
1772702645428965000,2.374965087890625,-0.04311220347881317,0.01730664260685444,0.08345746248960495
1772702645439014000,2.385013916015625,-0.044331446290016174,0.019525470212101936,0.0810885950922966
1772702645449064000,2.39506396484375,-0.044766608625650406,0.026199884712696075,0.07802143692970276
1772702645459114000,2.405114013671875,-0.042419031262397766,0.031737394630908966,0.07837643474340439
1772702645469163800,2.415163818359375,-0.04310053214430809,0.031240984797477722,0.07115580886602402
1772702645479214000,2.425214111328125,-0.04742702841758728,0.019091319292783737,0.06904750317335129
1772702645489264000,2.43526416015625,-0.04514043778181076,0.01087227277457714,0.06922779232263565
1772702645499314200,2.445314208984375,-0.04499339684844017,0.005379854701459408,0.06221103295683861
1772702645509364000,2.455364013671875,-0.04180825501680374,-0.0006964132189750671,0.06138359010219574
1772702645519413000,2.4654130859375,-0.04237058386206627,-0.004171090200543404,0.05401265621185303
1772702645529463000,2.475463134765625,-0.03919796273112297,-0.006001747213304043,0.05949930101633072
1772702645539512800,2.485512939453125,-0.03646204248070717,-0.006040247157216072,0.05367788299918175
1772702645549563000,2.49556298828125,-0.03365533798933029,-0.000991426408290863,0.05231833830475807
1772702645559613000,2.505613037109375,-0.03444039449095726,0.008513171225786209,0.05127299949526787
1772702645569663000,2.5156630859375,-0.041094567626714706,0.017463790252804756,0.0507907010614872
1772702645579713000,2.525713134765625,-0.036944709718227386,0.01501944474875927,0.04867779463529587
1772702645589762800,2.5357626953125,-0.03562724590301514,0.013976817950606346,0.04476480931043625
1772702645599812000,2.54581201171875,-0.03510841727256775,0.0051630595698952675,0.044216398149728775
1772702645609862100,2.555862060546875,-0.031188512220978737,-0.004053608048707247,0.04419003427028656
1772702645619912000,2.565911865234375,-0.030974192544817924,-0.011429674923419952,0.042697593569755554
1772702645629962000,2.5759619140625,-0.031042901799082756,0.002051779069006443,0.041917551308870316
1772702645640012000,2.586011962890625,-0.029576586559414864,0.02259538136422634,0.043864212930202484
1772702645650062000,2.59606201171875,-0.030357159674167633,0.02042410522699356,0.04081355780363083
1772702645660112000,2.60611181640625,-0.02864401787519455,0.01326725259423256,0.041698697954416275
1772702645670162000,2.616161865234375,-0.03032846562564373,0.013540759682655334,0.03588661551475525
1772702645680211000,2.6262109375,-0.03262048587203026,0.014677697792649269,0.030047403648495674
1772702645690261000,2.636260986328125,-0.0352114774286747,0.009833408519625664,0.03062770701944828
1772702645700311000,2.64631103515625,-0.03397541865706444,0.005210366100072861,0.02515343390405178
1772702645710361000,2.656361083984375,-0.02491454780101776,0.008856234140694141,0.027829909697175026
1772702645720411100,2.6664111328125,-0.023329276591539383,0.01071188598871231,0.023876450955867767
1772702645730461000,2.6764609375,-0.019003769382834435,0.008941151201725006,0.023031963035464287
1772702645740511000,2.686510986328125,-0.015035940334200859,0.008799254894256592,0.02122359536588192
1772702645750561000,2.69656103515625,-0.012999155558645725,0.012898124754428864,0.01508287899196148
1772702645760610000,2.706610107421875,-0.012223479337990284,0.022813910618424416,0.011368868872523308
1772702645770659800,2.716659912109375,-0.008463362231850624,0.021076198667287827,0.00827933568507433
1772702645780710000,2.7267099609375,-0.007044043391942978,0.013652388006448746,0.008688113652169704
1772702645790760000,2.736760009765625,-0.005779840983450413,0.007597690913826227,0.0052963122725486755
1772702645800810000,2.74681005859375,-0.007131421007215977,0.003880593925714493,0.0038110222667455673
1772702645810860000,2.756860107421875,-0.005557226948440075,0.008348844945430756,0.0002692844718694687
1772702645820910000,2.76691015625,-0.004784010350704193,0.016097012907266617,-0.002514283638447523
1772702645830960000,2.776960205078125,-0.002604479668661952,0.014319352805614471,-0.00040426128543913364
1772702645841009000,2.7870087890625,-0.0009397657122462988,0.005117236636579037,0.0008254462736658752
1772702645851059000,2.797058837890625,-0.001704625552520156,0.007857896387577057,-0.002031060168519616
1772702645861108500,2.8071083984375,-0.00019131740555167198,0.008257072418928146,-0.006917992606759071
1772702645871158500,2.817158447265625,0.00019697146490216255,0.01832808181643486,-0.006480701733380556
1772702645881208600,2.82720849609375,0.0014546711463481188,0.022220900282263756,-0.009449380449950695
1772702645891258600,2.837258544921875,0.0014418879291042686,0.019852817058563232,-0.013475813902914524
1772702645901308400,2.847308349609375,0.005685718730092049,0.007383191958069801,-0.014223983511328697
1772702645911358700,2.857358642578125,0.0037163111846894026,0.0009106453508138657,-0.016718033701181412
1772702645921407700,2.86740771484375,0.005573526956140995,0.004529743455350399,-0.01857088878750801
1772702645931457500,2.87745751953125,0.007265700027346611,0.009174030274152756,-0.022401312366127968
1772702645941507600,2.887507568359375,0.0076501453295350075,0.011196784675121307,-0.01922154799103737
1772702645951557600,2.8975576171875,0.005534796509891748,0.014773143455386162,-0.021302009001374245
1772702645961607700,2.907607666015625,0.005887665320187807,0.020043538883328438,-0.02277287282049656
1772702645971657500,2.917657470703125,0.01113089732825756,0.01788930781185627,-0.0235662292689085
1772702645981707500,2.92770751953125,0.01136113703250885,0.011854596436023712,-0.016993891447782516
1772702645991757600,2.937757568359375,0.011060199700295925,0.008995426818728447,-0.018688993528485298
1772702646001806600,2.947806640625,0.011992811225354671,0.017638355493545532,-0.024912141263484955
1772702646011856600,2.957856689453125,0.008364786393940449,0.015511555597186089,-0.02465168386697769
1772702646021906700,2.96790673828125,0.010779840871691704,0.00686370674520731,-0.02400563284754753
1772702646031956700,2.977956787109375,0.013366569764912128,0.008144952356815338,-0.02544081024825573
1772702646042006800,2.9880068359375,0.008778137154877186,0.020459802821278572,-0.027698200196027756
1772702646052056600,2.998056640625,0.00970758032053709,0.01780516467988491,-0.029454821720719337
1772702646062106600,3.008106689453125,0.006595124024897814,0.005173234734684229,-0.028514038771390915
1772702646072156700,3.01815673828125,0.007644675672054291,0.0035939798690378666,-0.031051764264702797
1772702646082205400,3.028205322265625,0.006019985768944025,0.008478709496557713,-0.029734602198004723
1772702646092255500,3.03825537109375,0.004375483840703964,0.008122111670672894,-0.029797986149787903
1772702646102305500,3.048305419921875,0.00522109679877758,0.004891241900622845,-0.028847165405750275
1772702646112355600,3.05835546875,0.0030972259119153023,0.00777890719473362,-0.03226799517869949
1772702646122405600,3.068405517578125,0.007099158130586147,0.011089215986430645,-0.027110250666737556
1772702646132455700,3.07845556640625,0.006568656302988529,0.016074921935796738,-0.026240995153784752
1772702646142505700,3.088505615234375,0.00701917102560401,0.01880183443427086,-0.025439856573939323
1772702646152555800,3.0985556640625,0.00817791186273098,0.01573706790804863,-0.025286724790930748
1772702646162604500,3.1086044921875,0.008402242325246334,0.016724199056625366,-0.024587705731391907
1772702646172654600,3.118654541015625,0.0065313722006976604,0.014225088991224766,-0.026201048865914345
1772702646182704600,3.12870458984375,0.005959397181868553,0.01564895361661911,-0.02473168820142746
1772702646192754400,3.13875439453125,0.002829384058713913,0.017954984679818153,-0.02329518087208271
1772702646202804500,3.148804443359375,0.006957329344004393,0.010977275669574738,-0.025003645569086075
1772702646212854500,3.1588544921875,0.0029364884831011295,0.00762062706053257,-0.025504054501652718
1772702646222904600,3.168904541015625,0.0028310322668403387,0.0068372017703950405,-0.02694825455546379
1772702646232953600,3.17895361328125,-0.00010084186214953661,0.011096395552158356,-0.02410825900733471
1772702646243003600,3.189003662109375,0.0002881686668843031,0.017291225492954254,-0.021623389795422554
1772702646253053700,3.1990537109375,0.0006937680882401764,0.012241605669260025,-0.0185887161642313
1772702646263103700,3.209103759765625,0.0022547754924744368,0.018054816871881485,-0.01873028837144375
1772702646273153500,3.219153564453125,0.0022158934734761715,0.015330670401453972,-0.014303316362202168
1772702646283203600,3.22920361328125,0.00047394022112712264,0.01104593463242054,-0.016489394009113312
1772702646293253600,3.239253662109375,0.0042404490523040295,0.0070890095084905624,-0.01894722506403923
1772702646303303700,3.2493037109375,-0.00022441719193011522,0.012507261708378792,-0.015965409576892853
1772702646313353500,3.259353515625,-0.0010915424209088087,0.019726024940609932,-0.011714472435414791
1772702646323402800,3.26940283203125,0.004099762067198753,0.027764586731791496,-0.007769499905407429
1772702646333452800,3.279452880859375,0.0012914588442072272,0.03074519895017147,-0.008627570234239101
1772702646343502600,3.289502685546875,-0.0019054771400988102,0.019288331270217896,-0.008337677456438541
1772702646353552600,3.299552734375,-0.0025675389915704727,0.0064979675225913525,-0.00848175399005413
1772702646363602700,3.309602783203125,-0.000551059260033071,0.014551036059856415,-0.008885553106665611
1772702646373652700,3.31965283203125,-0.005472048185765743,0.020874978974461555,-0.009469318203628063
1772702646383702500,3.32970263671875,-0.007774212397634983,0.025387905538082123,-0.007636107038706541
1772702646393751600,3.33975146484375,-0.005363785661756992,0.015764573588967323,-0.007813474163413048
1772702646403801600,3.349801513671875,-0.0003831947688013315,0.009909078478813171,-0.005905094090849161
1772702646413851400,3.359851318359375,-0.004161953926086426,0.01695100963115692,-0.003639809088781476
1772702646423901400,3.3699013671875,-0.004519824869930744,0.026129407808184624,-0.0012663265224546194
1772702646433951700,3.37995166015625,-0.0016409477684646845,0.027578698471188545,-0.004442412406206131
1772702646444001800,3.390001708984375,-0.002900058636441827,0.022576041519641876,-0.00045579049037769437
1772702646454051800,3.4000517578125,-0.0009218624327331781,0.02271079644560814,-0.00047895999159663916
1772702646464101600,3.4101015625,-0.0004728535423055291,0.02381041646003723,0.0012507631909102201
1772702646474150700,3.420150634765625,-0.0012627472169697285,0.020291846245527267,-0.00019373546820133924
1772702646484200700,3.43020068359375,-0.0004913116572424769,0.020131586119532585,0.0003212003502994776
1772702646494250500,3.44025048828125,-0.0013472514692693949,0.015077171847224236,0.00015661699580959976
1772702646504300500,3.450300537109375,0.00020288163796067238,0.013960346579551697,-0.004343797918409109
1772702646514350600,3.4603505859375,0.0017911909380927682,0.00838448666036129,-0.0022513524163514376
1772702646524400600,3.470400634765625,-0.002169974148273468,0.0000730506144464016,-0.0013926379615440965
1772702646534450400,3.480450439453125,0.0016042578499764204,0.00027811434119939804,-0.0030643041245639324
1772702646544500500,3.49050048828125,0.001812733244150877,0.0018455330282449722,-0.0036693583242595196
1772702646554549800,3.5005498046875,0.0004734295071102679,0.008592384867370129,-0.00463608605787158
1772702646564599600,3.510599609375,0.0030867173336446285,0.00673975283280015,-0.002757319714874029
1772702646574649600,3.520649658203125,0.005148270167410374,0.005471022333949804,-0.005022604484111071
1772702646584699600,3.53069970703125,0.006385092623531818,0.0046708593145012856,-0.008389921858906746
1772702646594749700,3.540749755859375,0.006449541077017784,0.0039025377482175827,-0.0074849799275398254
1772702646604799500,3.550799560546875,0.008546564728021622,-0.0008359095081686974,-0.004870304837822914
1772702646614849500,3.560849609375,0.0065673040226101875,-0.004705216269940138,-0.010851232334971428
1772702646624899600,3.570899658203125,0.009153448045253754,-0.0048970794305205345,-0.010301272384822369
1772702646634948600,3.580948486328125,0.005455649457871914,-0.003399051260203123,-0.00949460081756115
1772702646644998700,3.59099853515625,0.007098963484168053,0.0021421993151307106,-0.010110401548445225
1772702646655048700,3.601048583984375,0.008368493057787418,0.0027086539193987846,-0.006535640452057123
1772702646665098800,3.6110986328125,0.008795693516731262,-0.0008215410634875298,-0.00203769002109766
1772702646675148800,3.621148681640625,0.01064632460474968,-0.006367041263729334,-0.0015601851046085358
1772702646685198600,3.631198486328125,0.010512189008295536,0.00048722047358751297,-0.001623927615582943
1772702646695248600,3.64124853515625,0.012186785228550434,0.006433793343603611,-0.0019565564580261707
1772702646705298700,3.651298583984375,0.009748040698468685,0.004720497410744429,-0.0013037226162850857
1772702646715347500,3.661347412109375,0.009292107075452805,0.0017273700796067715,-0.0014456692151725292
1772702646725397500,3.6713974609375,0.0103938989341259,-0.0008984599262475967,0.00031197333009913564
1772702646735447600,3.681447509765625,0.009174969978630543,-0.005042338278144598,-0.0020995191298425198
1772702646745497600,3.69149755859375,0.007369224447757006,-0.00837660487741232,-0.002115309936925769
1772702646755547600,3.701547607421875,0.006958565209060907,-0.004990396089851856,-0.004342245403677225
1772702646765597700,3.71159765625,0.007052890956401825,-0.007031857967376709,-0.0012801584089174867
1772702646775647700,3.721647705078125,0.0047758882865309715,-0.005781503859907389,-0.0027736593037843704
1772702646785697800,3.73169775390625,0.0063766539096832275,-0.003460634034126997,-0.003912497311830521
1772702646795746600,3.74174658203125,0.009162054397165775,-0.0032899254001677036,-0.002768669743090868
1772702646805796600,3.751796630859375,0.008435504510998726,-0.0011880537495017052,-0.005686061456799507
1772702646815846700,3.7618466796875,0.005351298488676548,-0.0026698363944888115,-0.007941758260130882
1772702646825896400,3.771896484375,0.0048860711976885796,-0.0035118302330374718,-0.006151973269879818
1772702646835946500,3.781946533203125,0.006506604608148336,-0.00674943532794714,-0.006293919403105974
1772702646845996500,3.79199658203125,0.001965628005564213,-0.0018918528221547604,-0.006313205696642399
1772702646856046600,3.802046630859375,0.000368530279956758,0.004851536825299263,-0.008919375017285347
1772702646866096600,3.8120966796875,0.0018066372722387314,0.007368224672973156,-0.0058175912126898766
1772702646876146000,3.82214599609375,0.0026788224931806326,0.0028831949457526207,-0.0061241211369633675
1772702646886196000,3.832196044921875,0.002913856413215399,0.0009042113088071346,-0.006625938229262829
1772702646896245800,3.842245849609375,0.002599603496491909,0.0011375048197805882,-0.009417463093996048
1772702646906295800,3.8522958984375,0.0048762294463813305,0.0013642148114740849,-0.00785104651004076
1772702646916345900,3.862345947265625,0.002247156575322151,0.003217508550733328,-0.008888879790902138
1772702646926396000,3.87239599609375,0.0034517645835876465,0.001415688544511795,-0.005865589249879122
1772702646936445700,3.88244580078125,0.002590498421341181,0.007388093508780003,-0.008982285857200623
1772702646946495700,3.892495849609375,0.0034557594917714596,0.0025209011510014534,-0.0062251160852611065
1772702646956544800,3.902544677734375,0.004816368222236633,0.0021616406738758087,-0.005337484646588564
1772702646966594800,3.9125947265625,0.004769864957779646,0.005484964232891798,-0.008673127740621567
1772702646976644900,3.922644775390625,0.006923296954482794,0.0040319436229765415,-0.004526052623987198
1772702646986695000,3.93269482421875,0.008715620264410973,-0.0008876570500433445,-0.0074555110186338425
1772702646996745000,3.942744873046875,0.007865805178880692,0.0017555300146341324,-0.004902338609099388
1772702647006794800,3.952794677734375,0.009746990166604519,0.0009456798434257507,-0.005649122409522533
1772702647016844800,3.9628447265625,0.012006682343780994,-0.005320205353200436,-0.0023976692464202642
1772702647026894800,3.972894775390625,0.012118878774344921,-0.0008506723679602146,-0.0026817021425813437
1772702647036943600,3.982943603515625,0.011547630652785301,0.00990796647965908,-0.0002776667824946344
1772702647046993700,3.99299365234375,0.009923296980559826,0.01118481159210205,-0.0024447753094136715
1772702647057043700,4.003043701171875,0.00832220446318388,0.013067932799458504,0.003358252812176943
1772702647067093800,4.01309375,0.005622358992695808,0.010055159218609333,0.0019513661973178387
1772702647077143600,4.0231435546875,0.0032188561744987965,0.0055573470890522,0.0030456590466201305
1772702647087193600,4.033193603515625,0.0038641756400465965,0.001531082671135664,0.0022215801291167736
1772702647097244000,4.043243896484375,0.0011464196722954512,0.0015798178501427174,0.004161160439252853
1772702647107294000,4.0532939453125,-0.0005445748101919889,0.003986172378063202,0.0012077665887773037
1772702647117342700,4.0633427734375,0.0037588272243738174,0.012314142659306526,0.004635787568986416
1772702647127392800,4.073392822265625,0.004618590231984854,0.00845324993133545,0.004095635376870632
1772702647137442800,4.08344287109375,0.003417238127440214,0.015269078314304352,0.0062011308036744595
1772702647147492900,4.093492919921875,0.003022268880158663,0.01460646279156208,0.006914748344570398
1772702647157542700,4.103542724609375,0.004719501361250877,0.006774373818188906,0.003991130273789167
1772702647167592700,4.1135927734375,0.005460350774228573,0.007082454394549131,0.003387169213965535
1772702647177642800,4.123642822265625,0.006527746096253395,0.014105210080742836,0.0033916966058313847
1772702647187691800,4.13369189453125,0.005308371968567371,0.01526936236768961,0.0026294069830328226
1772702647197741800,4.143741943359375,0.006667649373412132,0.009838112629950047,0.00009540928294882178
1772702647207791900,4.1537919921875,0.004074217285960913,0.003181769046932459,0.00019559319480322301
1772702647217842000,4.163842041015625,0.006767738610506058,0.0016507175751030445,-0.0006614120211452246
1772702647227891700,4.1738916015625,0.005816435441374779,-0.0016609453596174717,-0.003867968451231718
1772702647237941800,4.183941650390625,0.0035586077719926834,-0.0034708296880126,-0.0040461341850459576
1772702647247991800,4.19399169921875,0.001086222822777927,-0.004449114203453064,-0.005435833241790533
1772702647258041900,4.204041748046875,0.003659368958324194,0.000586656853556633,-0.003549782559275627
1772702647268090600,4.214090576171875,0.0042859893292188644,0.0014295261353254318,-0.004613293334841728
1772702647278140700,4.224140625,0.00224227923899889,0.002214626409113407,-0.002337888116016984
1772702647288190700,4.234190673828125,0.004892241209745407,-0.0010220003314316273,-0.0027921770233660936
1772702647298241000,4.244240966796875,-0.00014432868920266628,0.0028089568950235844,-0.0022920353803783655
1772702647308290800,4.254290771484375,0.001394808990880847,0.008195620030164719,-0.0055446201004087925
1772702647318340900,4.2643408203125,0.0019141254015266895,0.011351199820637703,-0.004868177231401205
1772702647328391000,4.274390869140625,0.0005520021659322083,0.014976849779486656,-0.007309340871870518
1772702647338441000,4.28444091796875,-0.000615527736954391,0.009425755590200424,0.001980031607672572
1772702647348489700,4.29448974609375,-0.0028016306459903717,0.004415908362716436,-0.0006874807295389473
1772702647358539800,4.304539794921875,-0.002261808142066002,0.002317869570106268,0.0019421244505792856
1772702647368589800,4.31458984375,-0.0009462294401600957,0.004518953152000904,0.0023683879990130663
1772702647378639600,4.3246396484375,0.0004495331668294966,0.0032771211117506027,0.0036163453478366137
1772702647388689700,4.334689697265625,0.001644322881475091,0.009257139638066292,0.004875157494097948
1772702647398739700,4.34473974609375,-0.00041936058551073074,0.014315014705061913,0.007283453829586506
1772702647408789800,4.354789794921875,-0.0006293236510828137,0.013623544946312904,0.003764330642297864
1772702647418839800,4.36483984375,-0.0010066934628412127,0.014167096465826035,0.0018860031850636005
1772702647428888800,4.374888916015625,-0.004333744756877422,0.021512707695364952,0.004402289167046547
1772702647438939000,4.38493896484375,-0.005203532986342907,0.015613274648785591,0.001113551203161478
1772702647448988700,4.39498876953125,-0.006577208638191223,0.014210797846317291,0.003348724916577339
1772702647459038700,4.405038818359375,-0.007082676514983177,0.016231870278716087,0.005540506448596716
1772702647469088800,4.4150888671875,-0.007939690724015236,0.019537050276994705,0.003099958412349224
1772702647479138800,4.425138916015625,-0.008092289790511131,0.019822008907794952,0.000022143125534057617
1772702647489188600,4.435188720703125,-0.009422926232218742,0.018785515800118446,0.0008692158735357225
1772702647499238700,4.44523876953125,-0.006351236719638109,0.008411439135670662,0.0034500854089856148
1772702647509288000,4.455287841796875,-0.008705371990799904,0.006965311244130135,0.003478816244751215
1772702647519338000,4.465337890625,-0.011454020626842976,0.023516323417425156,0.0009418890113011003
1772702647529387800,4.4753876953125,-0.01446378044784069,0.016274934634566307,-0.0020478535443544388
1772702647539437800,4.485437744140625,-0.009265024214982986,0.011361401528120041,0.0014715136494487524
1772702647549487900,4.49548779296875,-0.010219982825219631,0.009331658482551575,0.002308528870344162
1772702647559538000,4.505537841796875,-0.005291004665195942,0.009545775130391121,0.0019743021111935377
1772702647569587700,4.515587646484375,-0.007342875935137272,0.011762751266360283,0.001394469989463687
1772702647579637800,4.5256376953125,-0.004884512163698673,0.014001671224832535,-0.0013139648362994194
1772702647589686800,4.535686767578125,-0.003391820937395096,0.015360191464424133,0.0009254010510630906
1772702647599736600,4.545736572265625,-0.005484532564878464,0.007861262187361717,0.0031057309824973345
1772702647609786600,4.55578662109375,-0.0026836288161575794,0.0035551912151277065,0.0016998839564621449
1772702647619837000,4.5658369140625,-0.003061264753341675,0.0014792573638260365,0.0030666182283312082
1772702647629887000,4.575886962890625,0.0004194174543954432,0.0018794732168316841,0.0043848236091434956
1772702647639936800,4.585936767578125,-0.003701025154441595,0.007049201056361198,0.0037512576673179865
1772702647649986800,4.59598681640625,-0.0023868316784501076,0.00949536357074976,0.003085340140387416
1772702647660036900,4.606036865234375,-0.0019623239059001207,-0.0015090848319232464,0.0029665632173419
1772702647670085600,4.616085693359375,-0.00006177066825330257,-0.009829606860876083,0.006675360724329948
1772702647680135700,4.6261357421875,-0.000774699030444026,-0.006406645756214857,0.0018883286975324154
1772702647690185700,4.636185791015625,-0.000024462351575493813,-0.004209787584841251,0.0016077386680990458
1772702647700235800,4.64623583984375,-0.0007760063745081425,-0.0017935014329850674,0.0037310768384486437
1772702647710285600,4.65628564453125,-0.0003600678173825145,0.0024928199127316475,0.001362512120977044
1772702647720335600,4.666335693359375,0.001176576130092144,0.005528823472559452,0.004055500496178865
1772702647730385700,4.6763857421875,0.0011682468466460705,-0.0003093141131103039,0.0028558820486068726
1772702647740435700,4.686435791015625,0.0046681733801960945,-0.0049621229991316795,0.0016944777453318238
1772702647750484700,4.696484619140625,0.0011492065386846662,-0.012896872125566006,0.0004170987522229552
1772702647760534800,4.70653466796875,0.0017742504132911563,-0.0034237420186400414,-0.0028732367791235447
1772702647770584800,4.716584716796875,0.004571797326207161,-0.010515168309211731,0.001662162714637816
1772702647780635000,4.726634765625,0.002805322641506791,-0.016216464340686798,0.0006387099274434149
1772702647790684700,4.7366845703125,0.004301804583519697,-0.02015969157218933,0.006012685131281614
1772702647800734700,4.746734619140625,0.008021441288292408,-0.0073778508231043816,0.007065432611852884
1772702647810784800,4.75678466796875,0.00450189970433712,0.0010701264254748821,0.008103206753730774
1772702647820833800,4.766833740234375,0.0012453860836103559,-0.0027453843504190445,0.0055340551771223545
1772702647830883800,4.7768837890625,0.0007641745614819229,-0.0026375041343271732,0.00436929939314723
1772702647840934000,4.786933837890625,0.0007066502585075796,-0.005105455406010151,0.004239603411406279
1772702647850984000,4.79698388671875,-0.0030700506176799536,-0.01287376880645752,0.002330555347725749
1772702647861034200,4.8070341796875,-0.004265809431672096,-0.014598164707422256,0.008382589556276798
1772702647871084300,4.817084228515625,-0.0030536516569554806,-0.021794214844703674,0.0059854257851839066
1772702647881134300,4.82713427734375,-0.003727963659912348,-0.020718296989798546,0.003982462454587221
1772702647891184000,4.83718408203125,-0.0023463675752282143,-0.004934120923280716,0.003874356159940362
1772702647901234200,4.847234130859375,0.0008654044358991086,-0.005104829557240009,0.004975839518010616
1772702647911283200,4.857283203125,0.0019292354118078947,-0.0032291305251419544,0.0036826422438025475
1772702647921333000,4.8673330078125,0.0030000926926732063,-0.005198804195970297,0.005026206839829683
1772702647931383000,4.877383056640625,0.005564035847783089,-0.006739799398928881,0.006124806124716997
1772702647941433000,4.88743310546875,0.007234903052449226,-0.007937422953546047,0.005402024369686842
1772702647951483100,4.897483154296875,0.0031811604276299477,-0.012560412287712097,0.0050809262320399284
1772702647961533200,4.907533203125,0.003149735275655985,-0.01907636784017086,0.001574874622747302
1772702647971583200,4.917583251953125,0.0009210449643433094,-0.03457566350698471,0.0027898040134459734
1772702647981632300,4.92763232421875,0.0011807031696662307,-0.010087896138429642,-0.001640897011384368
1772702647991682000,4.93768212890625,0.002030537463724613,-0.02059696987271309,-0.002923895139247179
1772702648001732000,4.947732177734375,0.004573323763906956,-0.023104868829250336,-0.0009363780845887959
1772702648011782100,4.9577822265625,0.0014395624166354537,-0.023448709398508072,-0.003910176921635866
1772702648021832200,4.967832275390625,0.0006288961740210652,-0.020299255847930908,-0.0043213688768446445
1772702648031882000,4.977882080078125,0.0024714521132409573,-0.015735415741801262,-0.0020146931055933237
1772702648041932000,4.98793212890625,0.0012911391677334905,-0.015526624396443367,0.0011725781951099634
1772702648051982000,4.997982177734375,0.0024054807145148516,-0.009935097768902779,0.0010888173710554838
1772702648062031400,5.00803125,0.002626522909849882,-0.01174791157245636,0.0015189179684966803
1772702648072081200,5.0180810546875,0.0013910105917602777,-0.02045179158449173,0.0034738504327833652
1772702648082131200,5.028131103515625,0.0015180434565991163,-0.019236858934164047,0.00502407643944025
1772702648092181200,5.03818115234375,0.00021763285622000694,-0.013454804196953773,0.0043220920488238335
1772702648102231300,5.048231201171875,-0.003316648304462433,-0.009228367358446121,0.00580334197729826
1772702648112281000,5.058281005859375,-0.0017137628747150302,-0.00597519101575017,0.0036229167599231005
1772702648122331100,5.0683310546875,-0.003334030043333769,-0.007157634478062391,0.006229885388165712
1772702648132381200,5.078381103515625,-0.0019597283098846674,-0.007123887538909912,0.003795277327299118
1772702648142430000,5.088429931640625,-0.0041725486516952515,-0.012650744989514351,0.003542543388903141
1772702648152480000,5.09847998046875,-0.0014091591583564878,-0.011065205559134483,0.0015267350245267153
1772702648162530300,5.1085302734375,-0.005368214566260576,-0.0067021483555436134,0.006670630536973476
1772702648172580400,5.118580322265625,-0.003206835128366947,-0.0042273178696632385,0.0073178233578801155
1772702648182630100,5.128630126953125,-0.0013386275386437774,-0.0052742063999176025,0.005494357086718082
1772702648192680200,5.13868017578125,0.0006749884341843426,-0.007327237632125616,0.0023262605536729097
1772702648202730200,5.148730224609375,-0.0013535412726923823,-0.002209707163274288,0.004577963147312403
1772702648212780300,5.1587802734375,-0.0025587647687643766,-0.0025330279022455215,0.0057096173986792564
1772702648222829000,5.1688291015625,-0.0017259942833334208,-0.0038046876434236765,0.004741558339446783
1772702648232879000,5.178879150390625,-0.007031768560409546,-0.0033945124596357346,0.003792098257690668
1772702648242929200,5.18892919921875,-0.008494110777974129,-0.00929874088615179,0.0063239652663469315
1772702648252979000,5.19897900390625,-0.005256992764770985,-0.009733595885336399,0.0030903068836778402
1772702648263029000,5.209029052734375,-0.007532397285103798,-0.007276562973856926,0.0034801936708390713
1772702648273079000,5.2190791015625,-0.008704017847776413,-0.0016225622966885567,0.004494922235608101
1772702648283129000,5.229129150390625,-0.008448353968560696,0.006456403061747551,0.0005694227293133736
1772702648293179400,5.239179443359375,-0.005839881952852011,0.009675204753875732,0.004341319669038057
1772702648303228200,5.249228271484375,-0.005857991520315409,0.0006604054942727089,0.006958141457289457
1772702648313278200,5.2592783203125,-0.006498025730252266,0.0009864270687103271,0.0028793844394385815
1772702648323328300,5.269328369140625,-0.0038851983845233917,0.003283935599029064,0.0029723288025707006
1772702648333378000,5.2793779296875,-0.005394672974944115,0.0009212554432451725,-0.00009506830247119069
1772702648343428000,5.289427978515625,-0.004491595551371574,-0.002366682980209589,0.001967816147953272
1772702648353478100,5.29947802734375,-0.0061276257038116455,0.0027310242876410484,0.0011915212962776423
1772702648363528200,5.309528076171875,-0.003382439026609063,0.002040466293692589,0.0009475757833570242
1772702648373577200,5.3195771484375,-0.0005648148944601417,0.002222892828285694,0.0014250805834308267
1772702648383627300,5.329627197265625,-0.0012455189134925604,-0.002775327768176794,0.0024208365939557552
1772702648393677300,5.33967724609375,-0.0001852198038250208,-0.00743916304782033,0.0022444722708314657
1772702648403726000,5.34972607421875,-0.0020283935591578484,-0.006276693195104599,0.004992854781448841
1772702648413776100,5.359776123046875,-0.0019317932892590761,-0.004223533906042576,0.002886466681957245
1772702648423826200,5.369826171875,-0.000538959982804954,0.0009619072079658508,0.007583749946206808
1772702648433876000,5.3798759765625,-0.0008939816616475582,0.002794407308101654,0.008328793570399284
1772702648443926000,5.389926025390625,-0.003197083016857505,0.006251723505556583,0.007229706272482872
1772702648453976000,5.39997607421875,0.0007586044957861304,0.005711792036890984,0.006637888960540295
1772702648464026000,5.410026123046875,0.0025623636320233345,0.005245473235845566,0.010232090950012207
1772702648474076200,5.420076171875,-0.00021148542873561382,0.010787746869027615,0.007963046431541443
1772702648484125200,5.430125244140625,-0.000618948950432241,0.011490021832287312,0.008477304130792618
1772702648494175200,5.44017529296875,-0.00272381748072803,0.008756447583436966,0.007235674653202295
1772702648504225300,5.450225341796875,0.0002951420610770583,0.008734075352549553,0.01089405920356512
1772702648514275000,5.460275146484375,-0.00381389819085598,0.010513480752706528,0.008949167095124722
1772702648524325000,5.4703251953125,-0.0026737991720438004,0.010198162868618965,0.008212271146476269
1772702648534375200,5.480375244140625,-0.0013174018822610378,0.006681045517325401,0.009789113886654377
1772702648544425200,5.49042529296875,-0.0017469697631895542,0.01088564470410347,0.007262306287884712
1772702648554474200,5.50047412109375,-0.0000968974782153964,0.01450406014919281,0.008092038333415985
1772702648564524300,5.510524169921875,-0.004198698326945305,0.00764189288020134,0.002517509274184704
1772702648574574300,5.52057421875,0.0002079351106658578,-0.0011020335368812084,0.003772687865421176
1772702648584624000,5.5306240234375,-0.00006104412022978067,-0.002307912800461054,0.003789465641602874
1772702648594674200,5.540674072265625,-0.0017450775485485792,0.004692824091762304,0.0028706276789307594
1772702648604724200,5.55072412109375,-0.0031560200732201338,0.00853629782795906,0.0034703719429671764
1772702648614774300,5.560774169921875,-0.00036367413122206926,0.004650236573070288,0.0053426846861839294
1772702648624824000,5.570823974609375,-0.0015397261595353484,0.0067850262857973576,0.005609000567346811
1772702648634873000,5.580873046875,-0.0019624195992946625,0.008342325687408447,0.003683284390717745
1772702648644923100,5.590923095703125,-0.0031145031098276377,0.0010183658450841904,-0.0005482122651301324
1772702648654973200,5.60097314453125,-0.007131379097700119,-0.00622142106294632,-0.0006570687401108444
1772702648665023000,5.61102294921875,-0.0044543687254190445,-0.0036370898596942425,-0.0008738500182516873
1772702648675073000,5.621072998046875,-0.0033914719242602587,-0.00481954962015152,0.00012663280358538032
1772702648685123300,5.631123291015625,-0.0008827741257846355,0.00634415540844202,0.002021471969783306
1772702648695173400,5.64117333984375,0.0005063307471573353,0.00890212133526802,0.0029021792579442263
1772702648705223200,5.65122314453125,0.003186269663274288,0.01106860302388668,0.005201286170631647
1772702648715272200,5.661272216796875,0.001492599374614656,0.010372953489422798,0.006398611702024937
1772702648725322200,5.671322265625,0.002483028918504715,0.008390497416257858,0.007907825522124767
1772702648735372000,5.6813720703125,0.0028419008012861013,0.004628792405128479,0.007345287594944239
1772702648745423000,5.691423095703125,0.0017974090296775103,0.002543005160987377,0.006242206320166588
1772702648755472100,5.70147216796875,-0.003930229693651199,0.0038469089195132256,0.003537609474733472
1772702648765522200,5.711522216796875,-0.00294858799315989,0.008690666407346725,0.004004195332527161
1772702648775572000,5.721572021484375,-0.0021965336054563522,0.0017946567386388779,0.002336414298042655
1772702648785622000,5.7316220703125,0.000012824777513742447,-0.003813161514699459,0.0022543889936059713
1772702648795672000,5.741672119140625,0.0006359116523526609,-0.0040391599759459496,0.0010629515163600445
1772702648805722000,5.75172216796875,0.001308359787799418,-0.0031153089366853237,0.002943942090496421
1772702648815772200,5.761772216796875,0.003608358558267355,-0.0037415223196148872,0.004295435734093189
1772702648825822200,5.771822265625,0.0026640016585588455,0.0046455711126327515,0.002219501417130232
1772702648835871200,5.781871337890625,0.003420483320951462,0.0019134441390633583,0.0029206336475908756
1772702648845921000,5.791921142578125,0.0050974758341908455,0.001219957135617733,0.0009352470515295863
1772702648855971000,5.80197119140625,0.0014337653992697597,0.0006207460537552834,-0.0014144598972052336
1772702648866020400,5.812020263671875,0.002178917871788144,-0.002803813200443983,-0.003412629710510373
1772702648876070100,5.822070068359375,0.00022219959646463394,-0.001031374093145132,-0.0031555728055536747
1772702648886120200,5.8321201171875,0.00290639977902174,-0.00363674433901906,-0.00317235104739666
1772702648896170500,5.84217041015625,0.00009324937127530575,-0.0032547777518630028,-0.0027699656784534454
1772702648906220500,5.852220458984375,0.0006730195018462837,0.002354638185352087,-0.0012588880490511656
1772702648916269300,5.862269287109375,-0.002298316452652216,0.006319249980151653,-0.00037440157029777765
1772702648926319400,5.8723193359375,0.0028897877782583237,0.004292052239179611,-0.0031755142845213413
1772702648936369400,5.882369384765625,-0.00008958461694419384,0.00554144661873579,0.00035190448397770524
1772702648946419500,5.89241943359375,0.00044571072794497013,0.01147417165338993,-0.00046701752580702305
1772702648956469200,5.90246923828125,0.002791792154312134,0.007727865595370531,-0.00001671179779805243
1772702648966519300,5.912519287109375,0.000787230848800391,-0.0005289996042847633,0.0006722479593008757
1772702648976569300,5.9225693359375,0.00120192626491189,-0.005388953723013401,0.0009257378987967968
1772702648986619400,5.932619384765625,0.00030523992609232664,0.001013285480439663,-0.0024237199686467648
1772702648996668400,5.94266845703125,-0.00010888162069022655,0.00812232680618763,-0.003150496631860733
1772702649006718500,5.952718505859375,0.0004927263944409788,0.004497232846915722,-0.0005235543940216303
1772702649016768500,5.9627685546875,0.0005407651187852025,0.000387673731893301,0.0006806933088228106
1772702649026818300,5.972818359375,-0.0033684889785945415,0.0042718942277133465,-0.0007374400156550109
1772702649036868400,5.982868408203125,-0.001583961071446538,0.001527048647403717,-0.0006136176525615156
1772702649046918400,5.99291845703125,-0.000601520761847496,-0.004011261276900768,-0.002798474859446287
1772702649056968400,6.002968505859375,-0.00221072044223547,-0.003493721131235361,-0.0007894319714978337
1772702649067018200,6.013018310546875,0.0008199568837881088,0.0035423506051301956,0.0041414108127355576
1772702649077067300,6.0230673828125,-0.002957297023385763,0.007526010740548372,-0.005178527440875769
1772702649087117300,6.033117431640625,-0.0010512726148590446,0.004683086182922125,-0.00268820533528924
1772702649097167400,6.04316748046875,-0.002056478289887309,0.006430322770029306,-0.003043046686798334
1772702649107217400,6.053217529296875,-0.0011949457693845034,0.0036025787703692913,-0.0018510159570723772
1772702649117267500,6.063267333984375,-0.0008730909321457148,-0.004730178043246269,-0.0037792238872498274
1772702649127317500,6.0733173828125,0.0008140216232277453,-0.008454342372715473,-0.0009490824886597693
1772702649137367300,6.0833671875,-0.0003044798504561186,-0.0014021913520991802,-0.004345801193267107
1772702649147417300,6.093417236328125,0.001633768784813583,0.0037744613364338875,-0.005961274728178978
1772702649157466400,6.10346630859375,-0.0001105553237721324,-0.002057291567325592,-0.0014800233766436577
1772702649167516400,6.113516357421875,0.0005906550213694572,0.001980060711503029,0.0010009773541241884
1772702649177566200,6.123566162109375,-0.0012941105524078012,0.000562421977519989,0.00022524831001646817
1772702649187616300,6.1336162109375,-0.0011076893424615264,0.0014524506404995918,-0.0006986022344790399
1772702649197666300,6.143666259765625,0.0008913516066968441,0.003967146389186382,-0.0002489666803739965
1772702649207716400,6.15371630859375,0.0024351859465241432,0.006135758012533188,-0.00007532857125625014
1772702649217766400,6.163766357421875,-0.003484392538666725,0.007001175545156002,-0.004539915826171637
1772702649227816400,6.17381640625,-0.0014790324494242668,0.0031853988766670227,-0.0030115279369056225
1772702649237865500,6.183865478515625,0.0006959045422263443,-0.000042148400098085403,-0.0022672368213534355
1772702649247915300,6.193915283203125,-0.00040637783240526915,0.0018255268223583698,-0.0029833607841283083
1772702649257965300,6.20396533203125,-0.0021086763590574265,0.006452161353081465,-0.005292352754622698
1772702649268015400,6.214015380859375,-0.0008434085175395012,0.0007647140882909298,-0.00515706418082118
1772702649278065400,6.2240654296875,-0.000991669250652194,-0.00030619511380791664,-0.0014162624720484018
1772702649288115200,6.234115234375,-0.0020279050804674625,0.005314140114933252,-0.003678085282444954
1772702649298165200,6.244165283203125,0.00132007768843323,0.008374366909265518,-0.0013565303524956107
1772702649308215300,6.25421533203125,-0.0011950115440413356,0.011382140219211578,-0.0058237165212631226
1772702649318264300,6.264264404296875,-0.0006766454316675663,0.01359407790005207,-0.007372030057013035
1772702649328314400,6.274314453125,0.00038568954914808273,0.006674920208752155,-0.008591225370764732
1772702649338364400,6.284364501953125,-0.003002528566867113,0.005357710644602776,-0.005694958847016096
1772702649348414500,6.29441455078125,0.0025211339816451073,0.0009720167145133018,-0.0064070881344377995
1772702649358464500,6.304464599609375,0.0016625047428533435,0.0036321477964520454,-0.0021512333769351244
1772702649368514300,6.314514404296875,0.0014864697586745024,0.01573328673839569,-0.005375255830585957
1772702649378564400,6.324564453125,0.00000839203130453825,0.016145791858434677,-0.0012868792982771993
1772702649388614400,6.334614501953125,-0.00036365154664963484,0.011813094839453697,-0.005882163532078266
1772702649398663200,6.3446630859375,-0.0028575302567332983,0.002262573689222336,-0.0035675475373864174
1772702649408713200,6.354713134765625,-0.004055419936776161,0.0010899845510721207,-0.00457502156496048
1772702649418763500,6.364763427734375,-0.004880261607468128,0.0022174916230142117,-0.0063482243567705154
1772702649428813600,6.3748134765625,-0.002205648459494114,0.006377082783728838,-0.006815609522163868
1772702649438863400,6.38486328125,-0.00419071177020669,0.005370135884732008,-0.003309522056952119
1772702649448913400,6.394913330078125,-0.0029829679988324642,0.006072144489735365,-0.0017505076248198748
1772702649458963500,6.40496337890625,-0.00332554685883224,0.014489175751805305,-0.00651536975055933
1772702649469012200,6.41501220703125,0.003998678643256426,0.02059207670390606,-0.004421859048306942
1772702649479062300,6.425062255859375,0.0017621112056076527,0.02313988097012043,-0.0030183258932083845
1772702649489112300,6.4351123046875,0.003827925305813551,0.00622907467186451,0.00022993169841356575
1772702649499162400,6.445162353515625,0.0034375505056232214,0.008829426020383835,0.0002322815271327272
1772702649509212200,6.455212158203125,0.001217539538629353,0.022496769204735756,-0.0061150966212153435
1772702649519262200,6.46526220703125,0.0009146657539531589,0.01134704053401947,-0.0037103556096553802
1772702649529312300,6.475312255859375,0.000041947816498577595,0.008257774636149406,-0.003080518450587988
1772702649539362300,6.4853623046875,0.0004563357215374708,0.012754522264003754,-0.005035012029111385
1772702649549412400,6.495412353515625,0.0013266567839309573,0.017499476671218872,-0.004061360377818346
1772702649559461400,6.50546142578125,0.004149758256971836,0.01727186143398285,-0.003831311594694853
1772702649569511400,6.515511474609375,0.0008274646825157106,0.016532035544514656,-0.0020951966289430857
1772702649579561500,6.5255615234375,0.001658752909861505,0.0066817160695791245,-0.005371369421482086
1772702649589611300,6.535611328125,-0.0019844514317810535,0.02139727771282196,-0.005001988727599382
1772702649599661300,6.545661376953125,-0.0005555207608267665,0.03458765894174576,-0.007419952191412449
1772702649609711400,6.55571142578125,-0.0007731011137366295,0.040998153388500214,-0.006241503171622753
1772702649619761400,6.565761474609375,-0.006281340029090643,0.023131785914301872,-0.0010484476806595922
1772702649629810400,6.575810546875,0.015662575140595436,0.046482380479574203,0.10250137746334076
1772702649639860500,6.585860595703125,0.015336698852479458,0.07131065428256989,0.21806146204471588
1772702649649910500,6.59591064453125,0.012680196203291416,0.028344016522169113,0.117154560983181
1772702649659960300,6.605960205078125,-0.003790196031332016,-0.013196375221014023,-0.01064876839518547
1772702649670010400,6.61601025390625,-0.0005861471872776747,0.018007615581154823,-0.0360899455845356
1772702649680060400,6.626060302734375,-0.007209781091660261,-0.005967313889414072,-0.04760855808854103
1772702649690110500,6.6361103515625,-0.011167238466441631,-0.037068773061037064,-0.09168574213981628
1772702649700160300,6.64616015625,-0.00390772707760334,-0.01977420598268509,-0.09483652561903
1772702649710209300,6.656209228515625,-0.0009311122121289372,0.03070894256234169,-0.04353046044707298
1772702649720259300,6.66625927734375,-0.0018102311296388507,0.015053213573992252,0.02747417986392975
