time,seconds_elapsed,z,y,x
1772702115652261400,0.056261474609375,-0.0035979305393993855,-0.0014423680258914828,-0.004922853317111731
1772702115662311400,0.0663115234375,-0.0008964200387708843,0.0178234726190567,0.004610198084264994
1772702115672360400,0.0763603515625,-0.0007334345718845725,-0.0018421085551381111,-0.0022144184913486242
1772702115682410500,0.086410400390625,-0.0018959043081849813,0.010422813706099987,0.005546032916754484
1772702115692460300,0.096460205078125,-0.0014144048327580094,0.0060331248678267,-0.003656253917142749
1772702115702509300,0.10650927734375,-0.000330231967382133,0.006394516211003065,-0.0027774106711149216
1772702115712559400,0.116559326171875,-0.0015928366919979453,0.009187106974422932,0.002282062778249383
1772702115722608400,0.1266083984375,-0.00250576832331717,0.00464588450267911,-0.0007384945638477802
1772702115732658400,0.136658447265625,-0.001457814360037446,0.010647851042449474,0.0013771206140518188
1772702115742707500,0.14670751953125,0.000018109494703821838,0.0033103092573583126,-0.000431432097684592
1772702115752757200,0.15675732421875,-0.0023329290561378,0.008220379240810871,0.002016545506194234
1772702115762807300,0.166807373046875,-0.0024074974935501814,0.0074030552059412,0.0009614011505618691
1772702115772856600,0.176856689453125,-0.0015523566398769617,0.006976416800171137,-0.0004647216119337827
1772702115782906400,0.18690625,-0.0004689826746471226,0.0037462685722857714,-0.0010396981379017234
1772702115792955400,0.196955322265625,-0.0009422263829037547,0.006193181034177542,-0.002960103563964367
1772702115803005400,0.20700537109375,-0.0013454289874061942,0.0070792147889733315,0.002079928759485483
1772702115813055200,0.21705517578125,-0.0008322378271259367,0.006174538750201464,-0.0025513083674013615
1772702115823104300,0.227104248046875,-0.0011472897604107857,0.0052016861736774445,-0.0004069310089107603
1772702115833154600,0.237154541015625,0.0015198660548776388,0.009169263765215874,-0.0003259709046687931
1772702115843203300,0.247203369140625,-0.00025273399660363793,0.0057769292034208775,-0.00017656758427619934
1772702115853253400,0.25725341796875,0.001499359728768468,0.007047523278743029,-0.0022205437999218702
1772702115863302400,0.267302490234375,-0.0032732912804931402,0.009216668084263802,-0.002628007438033819
1772702115873352200,0.277352294921875,-0.00041438787593506277,0.007483482826501131,0.0023406522814184427
1772702115883402200,0.28740234375,-0.0004929511342197657,0.007751130498945713,-0.0003022687742486596
1772702115893451500,0.297451416015625,-0.0034461303148418665,0.006183593533933163,0.0010378338629379869
1772702115903501300,0.307501220703125,-0.0009376989910379052,0.00649598240852356,0.0009369000908918679
1772702115913550300,0.31755029296875,-0.0011408982099965215,0.007114901207387447,0.0013214604696258903
1772702115923600400,0.327600341796875,-0.001279116258956492,0.006052832584828138,-0.0019542276859283447
1772702115933650200,0.337650146484375,-0.0011438276851549745,0.009546633809804916,-0.00033928672201000154
1772702115943699500,0.347699462890625,-0.001883121207356453,0.008599347434937954,-0.002886067610234022
1772702115953749500,0.35774951171875,-0.0014708638191223145,0.009604157879948616,0.0013424995122477412
1772702115963798300,0.36779833984375,-0.0011627360945567489,0.007272293791174889,-0.0004599279200192541
1772702115973848300,0.377848388671875,0.0008673915872350335,0.006293582264333963,0.0007494135061278939
1772702115983898400,0.3878984375,-0.001356347929686308,0.006767092272639275,0.0010362359462305903
1772702115993947400,0.397947509765625,0.0006676545017398894,0.008384163491427898,-0.003912982530891895
1772702116003997400,0.40799755859375,-0.0005219795857556164,0.007412109989672899,-0.0005874933558516204
1772702116014046500,0.41804638671875,-0.0005632585380226374,0.009177785366773605,-0.0028013791888952255
1772702116024096500,0.428096435546875,-0.004385427106171846,0.005909288302063942,-0.0014745922526344657
1772702116034145300,0.438145263671875,0.0015933692920953035,0.006823285017162561,0.00026604978484101593
1772702116044195300,0.4481953125,-0.001749430550262332,0.00800333172082901,0.002386458683758974
1772702116054245400,0.458245361328125,0.0007699198904447258,0.0072925337590277195,-0.003969974350184202
1772702116064294400,0.46829443359375,-0.0023995081428438425,0.0073596457950770855,-0.0027539748698472977
1772702116074344400,0.478344482421875,-0.0005424859118647873,0.007759386207908392,-0.0007749798824079335
1772702116084393200,0.488393310546875,0.0014085458824411035,0.007837682962417603,0.002590989461168647
1772702116094443300,0.498443359375,-0.0007882956997491419,0.009604424238204956,-0.0012511530658230186
1772702116104492500,0.508492431640625,0.00017443705291952938,0.006518885493278503,0.00022290658671408892
1772702116114542600,0.51854248046875,-0.0011201255256310105,0.009913350455462933,-0.0000958738019107841
1772702116124592400,0.52859228515625,-0.001193096162751317,0.007873369380831718,-0.002040780382230878
1772702116134641400,0.538641357421875,-0.0018913770327344537,0.007979895919561386,0.0002516687090974301
1772702116144691500,0.54869140625,-0.0009187905816361308,0.005652825813740492,0.0001984054979402572
1772702116154740200,0.558740234375,-0.0018341189716011286,0.007303985767066479,-0.0009523464250378311
1772702116164790300,0.568790283203125,-0.00177952426020056,0.006913299672305584,-0.0010128001449629664
1772702116174840600,0.578840576171875,0.0005552690709009767,0.007152718026190996,0.0007544735562987626
1772702116184889300,0.588889404296875,0.0025100293569266796,0.008420915342867374,0.003424558788537979
1772702116194939400,0.598939453125,-0.0029984530992805958,0.0061535001732409,0.0011025486746802926
1772702116204988400,0.608988525390625,0.0004362257895991206,0.007963384501636028,-0.0007494135061278939
1772702116215038200,0.6190380859375,-0.0011555455857887864,0.008521849289536476,-0.0015939018921926618
1772702116225088300,0.629088134765625,0.0001257012045243755,0.008646219037473202,-0.002615756820887327
1772702116235137500,0.639137451171875,-0.00035473305615596473,0.008126369677484035,0.0008689894457347691
1772702116245187300,0.649187255859375,-0.0019600866362452507,0.008505870588123798,0.000016777914424892515
1772702116255236400,0.659236328125,-0.0013957626651972532,0.00743208359926939,0.00029108350281603634
1772702116265286400,0.669286376953125,-0.0007906925166025758,0.008143946528434753,0.0016247945604845881
1772702116275335400,0.67933544921875,0.0013552826130762696,0.005072789266705513,-0.0016713999211788177
1772702116285385500,0.689385498046875,-0.003753991797566414,0.00974210910499096,-0.0003350256592966616
1772702116295435500,0.699435546875,0.0013997574569657445,0.005934321787208319,0.0009504822082817554
1772702116305484300,0.709484375,-0.0011827098205685616,0.005245095584541559,0.000035952674807049334
1772702116315534300,0.719534423828125,-0.002017610939219594,0.005817675497382879,0.000014381069377122913
1772702116325583400,0.729583251953125,-0.00026791400159709156,0.008626511320471764,0.00015526228526141495
1772702116335633200,0.739633056640625,-0.0015811186749488115,0.007266168482601643,-0.0028674255590885878
1772702116345683500,0.749683349609375,-0.0032621060963720083,0.007761250250041485,-0.0013960290234535933
1772702116355732500,0.759732421875,-0.0012189288390800357,0.005817675497382879,-0.0004037352045997977
1772702116365782300,0.7697822265625,-0.003472229465842247,0.007866977714002132,-0.002950516063719988
1772702116375831300,0.779831298828125,-0.0032551817130297422,0.006818757392466068,-0.0033840788528323174
1772702116385881300,0.78988134765625,-0.0005507417372427881,0.0054730623960494995,0.0016029566759243608
1772702116395931400,0.799931396484375,-0.0025329324416816235,0.00646748673170805,-0.00010679275874281302
1772702116405980400,0.80998046875,-0.0004293015517760068,0.008735435083508492,0.00017656758427619934
1772702116416030500,0.820030517578125,-0.0035838158801198006,0.006373743526637554,0.0005765743553638458
1772702116426079200,0.830079345703125,0.000993625377304852,0.006371080409735441,-0.00008974852971732616
1772702116436129300,0.84012939453125,-0.0023249397054314613,0.008916796185076237,-0.00045034053619019687
1772702116446179300,0.850179443359375,-0.0005486111622303724,0.006226470693945885,-0.0010980212828144431
1772702116456228400,0.860228271484375,-0.0020413128659129143,0.0065471152774989605,-0.000018375811123405583
1772702116466278400,0.8702783203125,-0.001261805766262114,0.006102900020778179,0.00043223105603829026
1772702116476327400,0.880327392578125,-0.0022628880105912685,0.007803061977028847,0.002662095706909895
1772702116486377500,0.89037744140625,-0.001868473831564188,0.008109325543045998,0.00016591492749284953
1772702116496426200,0.90042626953125,-0.0009217200567945838,0.006653109099715948,-0.002073803450912237
1772702116506476300,0.910476318359375,0.001377653214149177,0.005053614266216755,0.0006058691651560366
1772702116516526300,0.9205263671875,-0.0018796591321006417,0.009643572382628918,-0.0012042814632877707
1772702116526576000,0.930576171875,-0.0014322480419650674,0.006929012481123209,-0.00042770366417244077
1772702116536626200,0.940626220703125,-0.0016282566357403994,0.009061405435204506,0.0036511938087642193
1772702116546675000,0.950675048828125,-0.0007936219917610288,0.00785605888813734,0.0013097425689920783
1772702116556725000,0.96072509765625,0.00005379585491027683,0.0075782909989356995,-0.0007099987124092877
1772702116566775000,0.970775146484375,-0.0007760451408103108,0.007515174336731434,0.0008205199264921248
1772702116576824000,0.980823974609375,-0.00024101608141791075,0.006358297076076269,0.000630902883131057
1772702116586874000,0.9908740234375,-0.002167813014239073,0.007839014753699303,-0.00017550231132190675
1772702116596923100,1.000923095703125,0.000021305288100847974,0.006842992268502712,-0.0014274542918428779
1772702116606973000,1.010972900390625,-0.0005198490689508617,0.00899882148951292,0.00016218650853261352
1772702116617022000,1.02102197265625,-0.0019917781464755535,0.006906109396368265,0.00048389637959189713
1772702116627072000,1.031072021484375,-0.002235191175714135,0.009550361894071102,-0.0024884575977921486
1772702116637121800,1.041121826171875,-0.00009427589975530282,0.007467503659427166,-0.002478603972122073
1772702116647171000,1.051171142578125,-0.0015851134667173028,0.008051002398133278,-0.0011438276851549745
1772702116657221000,1.06122119140625,-0.0002790992730297148,0.009412409737706184,-0.0018783274572342634
1772702116667270000,1.071269775390625,-0.001588575541973114,0.006974020041525364,0.00025513084256090224
1772702116677320000,1.08131982421875,-0.0026818031910806894,0.006025135517120361,-0.0001483380765421316
1772702116687370000,1.091369873046875,-0.0024533038958907127,0.00686003640294075,-0.0015443670563399792
1772702116697419000,1.1014189453125,0.0012570120161399245,0.0062301987782120705,-0.0015531554818153381
1772702116707469000,1.111468994140625,-0.0019323896849527955,0.006891462020576,-0.0023667511995881796
1772702116717518000,1.12151806640625,-0.00009906959166983142,0.006618754006922245,0.0019856528379023075
1772702116727568000,1.13156787109375,-0.001838646363466978,0.008347145281732082,-0.0001685781026026234
1772702116737617000,1.141616943359375,0.0012639362830668688,0.0059931776486337185,0.000972852751147002
1772702116747667200,1.151667236328125,0.00038456046604551375,0.00478516798466444,-0.00041811628034338355
1772702116757717000,1.161717041015625,-0.00027510453946888447,0.005387841258198023,0.0002993392990902066
1772702116767766000,1.17176611328125,0.001068193931132555,0.004991030320525169,-0.0024253407027572393
1772702116777816000,1.181816162109375,-0.0025238776579499245,0.005797701422125101,-0.001586178783327341
1772702116787864800,1.19186474609375,-0.0016783240716904402,0.007965514436364174,0.000014647385796706658
1772702116797915000,1.201914794921875,-0.0008444883860647678,0.0054821171797811985,0.0025094966404139996
1772702116807965000,1.21196484375,-0.000003994741746282671,0.006614493206143379,0.002133458387106657
1772702116818014000,1.222013916015625,-0.0005747101386077702,0.006958839949220419,0.0010969560826197267
1772702116828064000,1.23206396484375,-0.0016146745765581727,0.006149505265057087,-0.0013768542557954788
1772702116838113000,1.242113037109375,-0.0008378304773941636,0.007444866932928562,-0.0023840616922825575
1772702116848162800,1.252162841796875,-0.0025009745731949806,0.008896023035049438,-0.0016903083305805922
1772702116858212000,1.262212158203125,-0.0004846953088417649,0.006558566819876432,0.00018189390539191663
1772702116868262100,1.27226220703125,-0.00025007082149386406,0.0074605792760849,-0.0006639260682277381
1772702116878312200,1.282312255859375,0.0007091998122632504,0.007245129905641079,0.0016399745363742113
1772702116888361000,1.29236083984375,-0.0007331682136282325,0.007203850895166397,0.002287122653797269
1772702116898411000,1.302410888671875,-0.0010980212828144431,0.007213970646262169,-0.0006679208017885685
1772702116908459800,1.312459716796875,-0.0006029396899975836,0.00495161535218358,-0.0026170883793383837
1772702116918510000,1.322510009765625,-0.0034735610242933035,0.007798268459737301,0.0013265205780044198
1772702116928560000,1.33256005859375,-0.000666589243337512,0.008737032301723957,0.00006764429417671636
1772702116938609000,1.34260888671875,0.00042770366417244077,0.007897071540355682,0.00038935415796004236
1772702116948659000,1.352658935546875,0.0012258529895916581,0.007698665838688612,-0.00026498452643863857
1772702116958708000,1.3627080078125,-0.0023523701820522547,0.006058957893401384,-0.0029260150622576475
1772702116968758000,1.372758056640625,0.00031611722079105675,0.007054447196424007,-0.0028671592008322477
1772702116978807000,1.38280712890625,-0.0025334651581943035,0.0062701464630663395,-0.001139566651545465
1772702116988857000,1.392857177734375,-0.004274906124919653,0.007865113206207752,-0.0011321097845211625
1772702116998907100,1.4029072265625,-0.0030626351945102215,0.006740460637956858,-0.00205249828286469
1772702117008956000,1.412955810546875,-0.0015781891997903585,0.0068214209750294685,-0.0022983080707490444
1772702117019006000,1.423005859375,0.0002495381922926754,0.008912268094718456,-0.0003499393642414361
1772702117029055000,1.433054931640625,-0.0029736857395619154,0.006117281038314104,-0.0011680624447762966
1772702117039105000,1.44310498046875,0.0005273058777675033,0.005916478578001261,-0.001802960061468184
1772702117049155000,1.453155029296875,0.00041252365917898715,0.007645668927580118,-0.0014705975772812963
1772702117059204000,1.4632041015625,-0.00035899411886930466,0.007407050114125013,0.000300404557492584
1772702117069254000,1.47325390625,-0.0027353328187018633,0.005918342620134354,-0.0015784555580466986
1772702117079303000,1.483302978515625,-0.0016445019282400608,0.008183361031115055,0.00024208133982028812
1772702117089353000,1.49335302734375,0.0004492752777878195,0.0070517840795218945,-0.000699079770129174
1772702117099402000,1.503402099609375,-0.0020927118603140116,0.006235259119421244,0.0011744539951905608
1772702117109452000,1.5134521484375,0.00038482676609419286,0.007415039464831352,-0.0017188041238114238
1772702117119502000,1.523502197265625,-0.003072755178436637,0.008024370297789574,0.0015699334908276796
1772702117129550800,1.53355078125,0.0002545981842558831,0.0046416232362389565,0.0015773903578519821
1772702117139601000,1.543600830078125,0.0000066579027588886674,0.006759369280189276,0.000011984225238848012
1772702117149650200,1.553650146484375,-0.0030093719251453876,0.007764978799968958,-0.003841077210381627
1772702117159700000,1.563699951171875,-0.0024146882351487875,0.008724515326321125,0.0022591594606637955
1772702117169750000,1.57375,-0.0012839100090786815,0.007446464616805315,0.0015931029338389635
1772702117179799000,1.583799072265625,-0.0031047132797539234,0.007640342693775892,-0.001258876291103661
1772702117189848800,1.593848876953125,-0.000833036785479635,0.008959672413766384,-0.0005930859479121864
1772702117199898000,1.603898193359375,-0.001258343574590981,0.009369799867272377,-0.000041278995922766626
1772702117209948200,1.6139482421875,-0.00025779398856684566,0.007546865846961737,-0.0008362325606867671
1772702117219997000,1.623996826171875,-0.001630120910704136,0.00845686811953783,0.0014788532862439752
1772702117230047000,1.634046875,-0.0008636631537228823,0.0074619110673666,-0.001258343574590981
1772702117240097000,1.644096923828125,-0.0019358517602086067,0.009929862804710865,0.0011566109023988247
1772702117250145800,1.654145751953125,-0.002430400811135769,0.007684284821152687,0.0001603222917765379
1772702117260196000,1.664196044921875,0.0004727110790554434,0.009312541224062443,-0.0015251922886818647
1772702117270245000,1.6742451171875,-0.0010990865994244814,0.008421714417636395,0.0003217098710592836
1772702117280295000,1.684294921875,-0.0013560815714299679,0.010043046437203884,-0.0012926984345540404
1772702117290345000,1.694344970703125,-0.0016231966437771916,0.0059961071237921715,-0.0015659386990591884
1772702117300394000,1.70439404296875,-0.0037321539130061865,0.006622482556849718,-0.0018461032304912806
1772702117310444000,1.714444091796875,-0.0007225155713967979,0.008656871505081654,-0.0007390272221527994
1772702117320493000,1.7244931640625,-0.00007403588097076863,0.007908789440989494,0.000556334329303354
1772702117330543000,1.734543212890625,-0.00021118867152836174,0.008347145281732082,-0.0008173241512849927
1772702117340591900,1.744591796875,0.00013741910515818745,0.0070882695727050304,-0.0014080132823437452
1772702117350642000,1.754641845703125,0.0010194580536335707,0.008956743404269218,-0.0015249260468408465
1772702117360692000,1.76469189453125,-0.0013707289472222328,0.006078398786485195,-0.000720118754543364
1772702117370741000,1.774740966796875,0.001537975505925715,0.00757935643196106,0.0006234460161067545
1772702117380791000,1.784791015625,-0.0015387744642794132,0.007512244861572981,0.00006631271389778703
1772702117390840000,1.794840087890625,-0.000009321063771494664,0.0062882560305297375,0.0005760417552664876
1772702117400890000,1.80489013671875,-0.0011113371001556516,0.007984955795109272,-0.0015425028977915645
1772702117410940000,1.81493994140625,-0.0023438481148332357,0.008771653287112713,-0.0013054815353825688
1772702117420989000,1.824989013671875,-0.0002697782183531672,0.005113801918923855,-0.00041998049709945917
1772702117431039000,1.8350390625,0.0006689860601909459,0.006944725289940834,-0.00037470675306394696
1772702117441088000,1.845087890625,-0.002883138135075569,0.008041414432227612,-0.004043477587401867
1772702117451138000,1.855137939453125,-0.00011078749957960099,0.006353237200528383,-0.0008839031797833741
1772702117461186800,1.865186767578125,-0.0007251787465065718,0.008951683528721333,-0.002944923471659422
1772702117471236900,1.87523681640625,0.0005478122038766742,0.006584665738046169,-0.0007390272221527994
1772702117481287000,1.885286865234375,-0.0019736685790121555,0.007801730185747147,-0.0013454289874061942
1772702117491336200,1.895336181640625,0.0006791060441173613,0.008590558543801308,-0.0005017395596951246
1772702117501386000,1.905385986328125,-0.0005419532535597682,0.007720503956079483,-0.0007166566210798919
1772702117511435000,1.91543505859375,-0.000035686356568476185,0.007958590984344482,-0.0005715143634006381
1772702117521484500,1.925484619140625,-0.00250496924854815,0.007141000125557184,-0.002435993403196335
1772702117531533800,1.935533935546875,-0.0017526262672618032,0.008929579518735409,0.0020213392563164234
1772702117541584000,1.945583984375,0.00019228023302275687,0.008840097114443779,0.002525475574657321
1772702117551633700,1.955633544921875,-0.000716922979336232,0.005961486138403416,-0.00152306177187711
1772702117561682700,1.9656826171875,0.0004564658156596124,0.006982275750488043,-0.0020783308427780867
1772702117571732700,1.975732666015625,-0.003567570587620139,0.01070963591337204,-0.00170815153978765
1772702117581781500,1.985781494140625,-0.0008122641011141241,0.004806739278137684,0.002682602033019066
1772702117591831800,1.995831787109375,0.0012756541837006807,0.004521248396486044,0.002374208066612482
1772702117601881900,2.0058818359375,-0.0032471923623234034,0.0067665595561265945,0.0010247844038531184
1772702117611930600,2.0159306640625,-0.0004956142511218786,0.00868936162441969,0.0010159959783777595
1772702117621980700,2.025980712890625,-0.0025739450938999653,0.005401689559221268,0.0037555897142738104
1772702117632029700,2.03602978515625,0.00004340952364145778,0.006277869455516338,0.0009443568997085094
1772702117642079500,2.04607958984375,-0.001800030586309731,0.008153799921274185,-0.0028035095892846584
1772702117652128800,2.056128662109375,-0.0014152037911117077,0.008973521180450916,-0.0012634035665541887
1772702117662178800,2.0661787109375,0.000029827404432580806,0.006905843038111925,-0.00020719393796753138
1772702117672228600,2.076228515625,0.0003962783666793257,0.008333297446370125,-0.0035380094777792692
1772702117682277600,2.086277587890625,-0.0014889733865857124,0.00711676524952054,-0.0013869742397218943
1772702117692327700,2.09632763671875,0.00006844323797849938,0.007889614440500736,-0.00105301383882761
1772702117702376700,2.106376708984375,-0.0017664746847003698,0.007420365698635578,-0.0021888520568609238
1772702117712426800,2.1164267578125,-0.0018700717482715845,0.008954612538218498,-0.001975000137463212
1772702117722476800,2.126476806640625,-0.0009238505735993385,0.00897032581269741,0.0009376989910379052
1772702117732525600,2.136525634765625,-0.000755805114749819,0.00723394425585866,0.00019467707898002118
1772702117742575600,2.14657568359375,-0.0014735270524397492,0.0072943982668221,-0.00020053602929692715
1772702117752624600,2.156624755859375,-0.003709783311933279,0.008418251760303974,0.0004575310740619898
1772702117762674700,2.1666748046875,-0.004031226970255375,0.006424077320843935,-0.0020785972010344267
1772702117772723700,2.1767236328125,-0.0019467707024887204,0.007533550262451172,-0.0035246936604380608
1772702117782773800,2.186773681640625,-0.0035124430432915688,0.0070456587709486485,-0.002296177437528968
1772702117792823600,2.196823486328125,-0.0017310547409579158,0.00817803479731083,0.0006657902849838138
1772702117802872600,2.20687255859375,-0.0020727382507175207,0.006988933775573969,0.0010673949727788568
1772702117812922600,2.216922607421875,-0.0020823257509618998,0.007424892857670784,-0.0010631339391693473
1772702117822971600,2.2269716796875,-0.0005454153870232403,0.00780625781044364,-0.001472461735829711
1772702117833021700,2.237021728515625,-0.00005699164830730297,0.00971521157771349,-0.004836566746234894
1772702117843071700,2.24707177734375,-0.0007507451227866113,0.0062762717716395855,-0.0014759238110855222
1772702117853120500,2.25712060546875,0.0013057478936389089,0.007985488511621952,-0.000028229507734067738
1772702117863170600,2.267170654296875,-0.001615207176655531,0.0071010529063642025,-0.0012144014472141862
1772702117873219800,2.2772197265625,-0.0010929612908512354,0.006051767151802778,-0.00034221619716845453
1772702117883269600,2.28726953125,-0.0043774377554655075,0.011549063958227634,-0.002010420197620988
1772702117893318700,2.297318603515625,-0.001648496720008552,0.007357514929026365,-0.00019094864546786994
1772702117903368700,2.30736865234375,-0.0018516959389671683,0.006667490117251873,-0.0011768508702516556
1772702117913418800,2.317418701171875,0.00070520507870242,0.006541789043694735,0.0003105245705228299
1772702117923467500,2.327467529296875,-0.001597896683961153,0.008443552069365978,0.00023435817274730653
1772702117933517600,2.337517578125,-0.002046639332547784,0.007210774812847376,-0.0016285229939967394
1772702117943566600,2.347566650390625,-0.004584631882607937,0.005437908694148064,-0.0023635553661733866
1772702117953616600,2.35761669921875,-0.0013550163712352514,0.006484264507889748,-0.0006567355012521148
1772702117963665700,2.367665771484375,-0.00015286543930415064,0.007728759665042162,-0.0012365056900307536
1772702117973715700,2.3777158203125,-0.00159470085054636,0.005875199567526579,-0.0027593011036515236
1772702117983765500,2.387765625,0.00001864212754298933,0.008345015347003937,-0.001425057533197105
1772702117993814800,2.397814697265625,-0.00033396040089428425,0.007808654569089413,-0.00046685212873853743
1772702118003864800,2.40786474609375,0.000007723167072981596,0.008583367802202702,0.0017243968322873116
1772702118013913600,2.41791357421875,0.0003616572648752481,0.006238721311092377,-0.002376604825258255
1772702118023963600,2.427963623046875,-0.00219551008194685,0.006128199864178896,-0.000904409505892545
1772702118034013700,2.438013671875,-0.0012000204296782613,0.007214769721031189,-0.0014061490073800087
1772702118044062700,2.448062744140625,0.0005099953268654644,0.005992112215608358,0.0007693872321397066
1772702118054112800,2.45811279296875,-0.0011552792275324464,0.0075790900737047195,-0.00020959076937288046
1772702118064161800,2.468161865234375,-0.0002820287481881678,0.007576959673315287,0.00039707732503302395
1772702118074211600,2.478211669921875,0.0015430354978889227,0.008480303920805454,0.0005182511522434652
1772702118084260600,2.488260498046875,-0.00010572749306447804,0.008095743134617805,-0.002671416848897934
1772702118094310700,2.498310546875,0.0015728629659861326,0.007026750594377518,0.0007965514669194818
1772702118104360700,2.508360595703125,-0.0026549051981419325,0.00862997304648161,-0.001544100814498961
1772702118114409700,2.51840966796875,0.00021678130724467337,0.008280300535261631,-0.0008665926288813353
1772702118124459800,2.528459716796875,-0.0005257080192677677,0.007949003018438816,-0.0014293185668066144
1772702118134508500,2.538508544921875,-0.0007866977830417454,0.006330067757517099,0.001044758129864931
1772702118144558600,2.54855859375,0.0002924150903709233,0.008981777355074883,-0.0004601942200679332
1772702118154607900,2.55860791015625,-0.0017041567480191588,0.005800365004688501,0.00014567491598427296
1772702118164657700,2.56865771484375,-0.0007121292874217033,0.008114385418593884,0.0003043993201572448
1772702118174707700,2.578707763671875,-0.003751062322407961,0.007533550262451172,0.0003448793722782284
1772702118184756700,2.5887568359375,-0.0007680556736886501,0.008955145254731178,-0.0001328917423961684
1772702118194806500,2.598806640625,0.001136370818130672,0.008961536921560764,-0.0010482202051207423
1772702118204855800,2.608855712890625,-0.00011531487689353526,0.007178550586104393,0.00007936220208648592
1772702118214905900,2.61890576171875,-0.0017776599852368236,0.006062420085072517,0.0002170476218452677
1772702118224955600,2.62895556640625,-0.002177933230996132,0.0075995963998138905,-0.0005997438565827906
1772702118235004700,2.639004638671875,-0.004215517546981573,0.00797510240226984,0.00011291803093627095
1772702118245054700,2.6490546875,-0.001773398951627314,0.008196943439543247,0.0013638047967106104
1772702118255103500,2.659103515625,-0.00006524744821945205,0.006826214492321014,-0.0031076427549123764
1772702118265153500,2.669153564453125,0.0008769789128564298,0.005282912403345108,0.0008700547041371465
1772702118275202800,2.679202880859375,-0.0013515542959794402,0.007949802093207836,-0.0005635248962789774
1772702118285252600,2.689252685546875,-0.0010940266074612737,0.00714526092633605,0.0006881608278490603
1772702118295302700,2.699302734375,-0.001996571896597743,0.005081844050437212,-0.0014817827614024282
1772702118305351700,2.7093515625,-0.0028759476263076067,0.006433132104575634,0.0009275790071114898
1772702118315401500,2.7194013671875,-0.0011113371001556516,0.007969509810209274,0.00006604639202123508
1772702118325450800,2.72945068359375,-0.0007004113867878914,0.00714526092633605,-0.003739877138286829
1772702118335500800,2.739500732421875,0.0009933591354638338,0.005858421791344881,-0.0005102616851218045
1772702118345549600,2.749549560546875,-0.0014005564153194427,0.008943693712353706,0.0007414240390062332
1772702118355599600,2.759599609375,0.00018242653459310532,0.008249940350651741,0.00008548746700398624
1772702118365649700,2.769649658203125,-0.0003097256412729621,0.008868859149515629,-0.0010303769959136844
1772702118375698700,2.77969873046875,-0.003037335118278861,0.0067665595561265945,-0.0009118663729168475
1772702118385748700,2.789748779296875,-0.003921770956367254,0.008762865327298641,0.0012058793799951673
1772702118395797800,2.7997978515625,-0.003463707398623228,0.006996923126280308,0.0004463458026293665
1772702118405847600,2.80984765625,-0.0020692760590463877,0.006328735966235399,0.0001280980504816398
1772702118415897600,2.819897705078125,-0.00019494339358061552,0.007509049028158188,-0.00247540813870728
1772702118425946600,2.829946533203125,-0.003294330323114991,0.008040349930524826,-0.0005635248962789774
1772702118435996700,2.83999658203125,-0.0019646140281111,0.009036371484398842,0.00021651499264407903
1772702118446045700,2.850045654296875,-0.000006391586794052273,0.0062123560346663,-0.0035712989047169685
1772702118456095700,2.860095703125,-0.0016074840677902102,0.00959483627229929,-0.00017337177996523678
1772702118466144500,2.87014453125,0.002401106059551239,0.0076006618328392506,-0.0009717874927446246
1772702118476194600,2.880194580078125,0.00011078749957960099,0.007483216468244791,-0.0014002900570631027
1772702118486244600,2.89024462890625,-0.0030634342692792416,0.009571134112775326,-0.0016753945965319872
1772702118496294000,2.9002939453125,0.0007539408979937434,0.0059569585137069225,-0.0006567355012521148
1772702118506343700,2.91034375,-0.003215500619262457,0.0099008334800601,-0.0015635418239980936
1772702118516392700,2.920392822265625,-0.0003784351865760982,0.006876015570014715,-0.0013009541435167193
1772702118526442200,2.930442138671875,-0.0005659217131324112,0.006024869158864021,0.0006391586503013968
1772702118536491300,2.9404912109375,-0.001999501371756196,0.00686216726899147,-0.0015851134667173028
1772702118546541300,2.950541259765625,-0.002097239252179861,0.009307214990258217,-0.00020506340661086142
1772702118556591400,2.96059130859375,-0.0036906085442751646,0.0065170214511454105,-0.0005022721597924829
1772702118566640000,2.97064013671875,-0.0017446368001401424,0.005262140184640884,-0.0011925635626539588
1772702118576690200,2.980690185546875,0.0004644552827812731,0.006872020661830902,0.00008628641808172688
1772702118586739200,2.9907392578125,-0.002430667169392109,0.007666707970201969,-0.0008796420879662037
1772702118596789200,3.000789306640625,-0.002174471039324999,0.00503976596519351,-0.0013278521364554763
1772702118606838300,3.01083837890625,0.0015243934467434883,0.00857431348413229,0.0036554548423737288
1772702118616888300,3.020888427734375,-0.002225603675469756,0.00780652416869998,-0.0010301107540726662
1772702118626938400,3.0309384765625,-0.000770452490542084,0.009371130727231503,0.002347310073673725
1772702118636987100,3.040987060546875,-0.001139300293289125,0.005022988189011812,-0.000261788722127676
1772702118647037200,3.051037109375,-0.0032743564806878567,0.005930060520768166,-0.0019283948931843042
1772702118657086200,3.061086181640625,-0.0024740765802562237,0.008666458539664745,-0.0028421254828572273
1772702118667136300,3.07113623046875,0.0006402239087037742,0.006659500766545534,0.00023462448734790087
1772702118677186300,3.081186279296875,0.0009294432238675654,0.006864830385893583,-0.0014439659425988793
1772702118687235300,3.0912353515625,0.00047164582065306604,0.008706139400601387,-0.0013558153295889497
1772702118697285000,3.10128515625,-0.0031364047899842262,0.005730057135224342,0.0026288062799721956
1772702118707334400,3.11133447265625,-0.00023169501218944788,0.007209709845483303,-0.0006631271098740399
1772702118717384400,3.121384521484375,0.0011608719360083342,0.007286408916115761,-0.00034194986801594496
1772702118727433200,3.13143310546875,-0.0011906992876902223,0.0049100699834525585,-0.0005488775204867125
1772702118737483300,3.141483154296875,-0.0003832288784906268,0.004698082339018583,0.001032507512718439
1772702118747533300,3.151533203125,-0.001529453438706696,0.007673365995287895,-0.0022445120848715305
1772702118757582000,3.16158203125,-0.0027662254869937897,0.0044136568903923035,0.0025715483352541924
1772702118767632100,3.171632080078125,-0.0037121803034096956,0.006960970349609852,-0.0008431567694060504
1772702118777681400,3.181681396484375,-0.003050118451938033,0.007801197934895754,-0.001184574095532298
1772702118787731200,3.191731201171875,-0.001546763931401074,0.007699997629970312,0.0007896272582001984
1772702118797780200,3.2017802734375,0.0007688545738346875,0.005761216394603252,-0.004751611966639757
1772702118807830300,3.211830322265625,-0.004591822158545256,0.009296296164393425,0.0007984156836755574
1772702118817880000,3.221880126953125,0.00018455706594977528,0.00860094465315342,-0.001713744131848216
1772702118827929300,3.231929443359375,-0.0022594258189201355,0.008381767198443413,-0.003707919269800186
1772702118837979400,3.2419794921875,-0.0019915117882192135,0.008656871505081654,-0.0021401161793619394
1772702118848028200,3.252028076171875,-0.0036099147982895374,0.008071508258581161,0.00038535939529538155
1772702118858078200,3.262078125,-0.0014777880860492587,0.005361475981771946,0.0014655375853180885
1772702118868127200,3.272127197265625,0.0024051007349044085,0.0051289820112288,-0.0004822984628845006
1772702118878177300,3.28217724609375,0.0015715312911197543,0.005907423794269562,0.0014205301413312554
1772702118888227300,3.292227294921875,-0.0011925635626539588,0.007941014133393764,-0.000871652620844543
1772702118898276400,3.3022763671875,0.001315335277467966,0.006132194772362709,-0.004459995776414871
1772702118908326100,3.312326171875,0.002161954063922167,0.006161223165690899,0.0015622102655470371
1772702118918375200,3.322375244140625,-0.001454618526622653,0.007243798114359379,0.0014096111990511417
1772702118928425200,3.33242529296875,0.0005539375124499202,0.008373777382075787,0.0009688580175861716
1772702118938474200,3.34247412109375,0.0005105279851704836,0.00947792362421751,0.0016013587592169642
1772702118948524300,3.352524169921875,0.00028096348978579044,0.005727394018322229,-0.00026285400963388383
1772702118958574300,3.36257421875,-0.0000780306218075566,0.005717274267226458,-0.0008743157959543169
1772702118968623000,3.372623046875,-0.004797152243554592,0.00956927053630352,0.0010061422362923622
1772702118978673200,3.382673095703125,-0.00008841694943839684,0.008194812573492527,0.0023992417845875025
1772702118988722400,3.392722412109375,0.0008831042214296758,0.004736698232591152,0.0015137407463043928
1772702118998772200,3.402772216796875,-0.0037563887890428305,0.00788295641541481,-0.001187237212434411
1772702119008822300,3.412822265625,0.0009147958480753005,0.007953530177474022,-0.0005896238726563752
1772702119018871300,3.422871337890625,-0.0008122641011141241,0.008627843111753464,0.0004159857635386288
1772702119028921300,3.43292138671875,-0.0013366405619308352,0.006925017572939396,0.001097755040973425
1772702119038970000,3.44297021484375,-0.0003834952076431364,0.007529821712523699,0.0005707154050469398
1772702119049020400,3.4530205078125,-0.00016165387933142483,0.008688297122716904,-0.00011717908637365326
1772702119059069200,3.463069091796875,-0.0005424859118647873,0.00802996288985014,0.0012338425731286407
1772702119069119200,3.473119140625,-0.0005523395957425237,0.006809968966990709,-0.0015267902053892612
1772702119079169300,3.483169189453125,-0.00003222424857085571,0.007987885735929012,0.0013936321483924985
1772702119089218000,3.493218017578125,-0.00242081331089139,0.00660677021369338,-0.001776594785042107
1772702119099268000,3.50326806640625,-0.0025094966404139996,0.007392402272671461,-0.0015246596885845065
1772702119109317400,3.5133173828125,-0.0019180085510015488,0.007684817537665367,0.00016405072528868914
1772702119119367400,3.523367431640625,-0.0010745854815468192,0.009630789048969746,-0.0005739112384617329
1772702119129416200,3.533416259765625,-0.002814695006236434,0.007648066151887178,-0.000035420041967881843
1772702119139466200,3.54346630859375,-0.000008788431841821875,0.007611314300447702,-0.002615490462630987
1772702119149516300,3.553516357421875,-0.0035723643377423286,0.007020891644060612,-0.0005262406193651259
1772702119159565300,3.5635654296875,-0.00344533147290349,0.007149522192776203,-0.0008663262706249952
1772702119169615400,3.573615478515625,-0.0005685848882421851,0.006686398293823004,-0.0028397287242114544
1772702119179664100,3.5836640625,-0.0029739518649876118,0.007905594073235989,-0.0004751079250127077
1772702119189714200,3.593714111328125,-0.0008133294177241623,0.006969492416828871,-0.004451473709195852
1772702119199763200,3.60376318359375,0.0010554107138887048,0.007375358138233423,-0.0007550061563961208
1772702119209813200,3.613813232421875,0.00028522455249913037,0.006743656471371651,-0.00011291803093627095
1772702119219863300,3.62386328125,-0.00387276872061193,0.006446447689086199,-0.0032945964485406876
1772702119229912300,3.633912353515625,-0.0011259844759479165,0.007367901504039764,0.0009411611245013773
1772702119239962400,3.64396240234375,-0.0005203816690482199,0.005738579668104649,0.00012197277828818187
1772702119250011100,3.65401123046875,-0.004005660768598318,0.010817760601639748,-0.0012096078135073185
1772702119260061200,3.664061279296875,-0.0015544871566817164,0.006819023750722408,0.00008894957863958552
1772702119270110200,3.674110107421875,0.0010966897243633866,0.007415838539600372,-0.0014181332662701607
1772702119280160300,3.68416015625,0.0002300971100339666,0.007182012777775526,-0.0024895230308175087
1772702119290210300,3.694210205078125,0.0006548712844960392,0.008823851123452187,-0.0020453077740967274
1772702119300259300,3.70425927734375,-0.0022176143247634172,0.007279484532773495,-0.00122558674775064
1772702119310309000,3.71430908203125,-0.0004846953088417649,0.007360178045928478,0.0006804376607760787
1772702119320358400,3.7243583984375,-0.001430916483514011,0.008959139697253704,0.0016801883466541767
1772702119330408400,3.734408447265625,-0.0006700513185933232,0.008947954513132572,0.0007717840489931405
1772702119340457200,3.744457275390625,-0.0014168017078191042,0.0059633501805365086,-0.0023254721891134977
1772702119350507300,3.75450732421875,-0.0017297230660915375,0.007778560742735863,0.00044767739018425345
1772702119360557300,3.764557373046875,-0.00224877311848104,0.006431001238524914,0.0004916195175610483
1772702119370606000,3.774606201171875,-0.0022479742765426636,0.006249906495213509,-0.0009526127250865102
1772702119380656000,3.78465625,-0.001912948559038341,0.006714361719787121,-0.002043709857389331
1772702119390705400,3.794705322265625,-0.0013342436868697405,0.007582818623632193,0.0010490191634744406
1772702119400755200,3.804755126953125,-0.002626675646752119,0.009134110063314438,-0.0026075011119246483
1772702119410804200,3.81480419921875,-0.0011978897964581847,0.0070698936469852924,-0.0021321268286556005
1772702119420854300,3.824854248046875,-0.00015286543930415064,0.00791651289910078,-0.0005499427788890898
1772702119430904000,3.834904052734375,-5.326322138898831e-7,0.005877329967916012,-0.00004713794987765141
1772702119440953300,3.844953369140625,-0.002111886627972126,0.008858206681907177,-0.00017177389236167073
1772702119451003400,3.85500341796875,-0.0014506238512694836,0.009953298605978489,0.00018722022650763392
1772702119461052200,3.86505224609375,-0.0009345032158307731,0.007522897329181433,0.0015188007382676005
1772702119471102200,3.875102294921875,-0.001933721243403852,0.008622250519692898,0.0006322344415821135
1772702119481152300,3.88515234375,-0.001978728687390685,0.008020642213523388,-0.0008492820779792964
1772702119491201300,3.895201171875,0.000031425301131093875,0.007081877905875444,-0.0006431533838622272
1772702119501251300,3.905251220703125,0.0004191815387457609,0.005989182740449905,0.0007355650886893272
1772702119511300400,3.91530029296875,0.0009518137667328119,0.006306099239736795,0.0026378610637038946
1772702119521351200,3.92535107421875,0.001484179636463523,0.007911453023552895,-0.0012173309223726392
1772702119531400200,3.935400146484375,-0.0010133327450603247,0.00899855513125658,0.00017656758427619934
1772702119541450200,3.9454501953125,-0.0037497307639569044,0.007701328955590725,-0.003242931328713894
1772702119551500000,3.9555,0.000026365294615970924,0.005234443116933107,0.0034530546981841326
1772702119561549300,3.96554931640625,-0.0013843111228197813,0.007249124348163605,-0.00018908442871179432
1772702119571599400,3.975599365234375,-0.0005334311863407493,0.00765898497775197,0.0004577973741106689
1772702119581648100,3.985648193359375,-0.0021262678783386946,0.006585997529327869,0.0020548950415104628
1772702119591698200,3.9956982421875,0.0011941614793613553,0.007436078507453203,-0.001998702296987176
1772702119601747200,4.005747314453125,-0.0018210695125162601,0.008497348055243492,-0.003165433183312416
1772702119611797000,4.015796875,-0.0006386260502040386,0.0076030585914850235,-0.0020474381744861603
1772702119621847000,4.025846923828125,-0.00042450788896530867,0.006475742440670729,0.0017275925492867827
1772702119631896300,4.035896240234375,0.0016381103778257966,0.009965814650058746,0.0034527883399277925
1772702119641946000,4.045946044921875,0.0004596615908667445,0.006486927624791861,-0.0005251753609627485
1772702119651995100,4.0559951171875,-0.0004546015989035368,0.007152185309678316,-0.0020397149492055178
1772702119662045200,4.066045166015625,-0.0019185412675142288,0.009278452955186367,0.0031502533238381147
1772702119672094200,4.07609423828125,-0.0023166837636381388,0.007144728675484657,0.0015928366919979453
1772702119682144300,4.086144287109375,-0.0007874967413954437,0.006879211403429508,0.0007880293414928019
1772702119692194300,4.0961943359375,-0.00009800432599149644,0.00845846626907587,0.0026048377621918917
1772702119702243000,4.1062431640625,-0.0010570086305961013,0.006452839355915785,-0.0026495789643377066
1772702119712293000,4.116293212890625,-0.0008135957177728415,0.0070307450369000435,-0.002645051572471857
1772702119722342100,4.126342041015625,-0.0026194851379841566,0.007523696403950453,0.002567553659901023
1772702119732392200,4.13639208984375,0.00021225394448265433,0.006701312027871609,-0.0022157500497996807
1772702119742441200,4.146441162109375,-0.00017976337403524667,0.006648048758506775,-0.003111903788521886
1772702119752491300,4.1564912109375,-0.0001805623178370297,0.009938917122781277,-0.0035238948184996843
1772702119762541000,4.166541015625,-0.00027856664382852614,0.008802279829978943,-0.0013158678775653243
1772702119772590000,4.176590087890625,-0.0006330333999358118,0.008012652397155762,0.0009512811084277928
1772702119782640000,4.18664013671875,-0.00213665422052145,0.00890800729393959,0.0003909520455636084
1772702119792689200,4.196689208984375,-0.0008942894637584686,0.00731304008513689,-0.0030210898257791996
1772702119802739200,4.2067392578125,-0.0006271744496189058,0.006885336712002754,-0.000027963191314483993
1772702119812788200,4.216788330078125,-0.00006338323146337643,0.008362325839698315,-0.0037265613209456205
1772702119822838000,4.226838134765625,-0.001350222621113062,0.0073441993445158005,-0.0005038700764998794
1772702119832888000,4.23688818359375,-0.0011377023765817285,0.009133577346801758,-0.000770452490542084
1772702119842937300,4.246937255859375,-0.002660498023033142,0.009111739695072174,-0.0004319647268857807
1772702119852987100,4.256987060546875,-0.001537975505925715,0.005832056514918804,0.000045806369598722085
1772702119863036200,4.2670361328125,-0.001796834752894938,0.006480802316218615,0.0008990831556729972
1772702119873086200,4.277086181640625,0.0006239786162041128,0.008712531067430973,-0.0009606021922081709
1772702119883135000,4.287135009765625,0.0000351537273672875,0.008979113772511482,-0.0015337144723162055
1772702119893185000,4.29718505859375,0.00030173614504747093,0.007166832685470581,-0.0015603461069986224
1772702119903235000,4.307235107421875,-0.001511876587755978,0.006677876226603985,0.0012463594321161509
1772702119913284000,4.3172841796875,-0.00043782367720268667,0.007227020338177681,-0.000520647969096899
1772702119923334100,4.327334228515625,-0.002897519152611494,0.0059867859818041325,-0.0018785938154906034
1772702119933383200,4.337383056640625,-0.0002247707889182493,0.007842210121452808,0.0024802018888294697
1772702119943433000,4.347432861328125,-0.004014182835817337,0.00734260119497776,-0.00028628981090150774
1772702119953482200,4.357482177734375,-0.004539624322205782,0.007675762753933668,-0.0024951156228780746
1772702119963532300,4.3675322265625,-0.0007355650886893272,0.007892278023064137,0.0007419566973112524
1772702119973582300,4.377582275390625,0.0003304982965346426,0.006844057701528072,0.0001459412305848673
1772702119983631000,4.387631103515625,-0.0031369375064969063,0.008323444053530693,-0.0017856494523584843
1772702119993681200,4.39768115234375,-0.002502039773389697,0.006713029928505421,-0.0001597896625753492
1772702120003730200,4.407730224609375,-0.0008551410282962024,0.006533799227327108,-0.001865544356405735
1772702120013780200,4.4177802734375,-0.0003563309437595308,0.0075974659994244576,0.001246892032213509
1772702120023829200,4.427829345703125,-0.0004628573951777071,0.007902930490672588,0.0015715312911197543
1772702120033879300,4.43787939453125,-0.002641855739057064,0.007209443487226963,-0.00033635724685154855
1772702120043929000,4.44792919921875,-0.0002993392990902066,0.005838980432599783,0.0010495517635717988
1772702120053978000,4.45797802734375,0.00008096009696600959,0.0067511131055653095,0.0025960493367165327
1772702120064028200,4.468028076171875,0.002222141483798623,0.008168714120984077,-0.0003296993381809443
1772702120074077200,4.4780771484375,-0.001547030289657414,0.004327903036028147,-0.0011622034944593906
1772702120084127200,4.488127197265625,-0.0014112089993432164,0.00866219773888588,0.0005803027888759971
1772702120094176000,4.498176025390625,0.00013369068619795144,0.009415339678525925,0.000050600061513250694
1772702120104226000,4.50822607421875,-0.0013829795643687248,0.005939648021012545,-0.0011440940434113145
1772702120114276000,4.518276123046875,-0.002064482541754842,0.006032059900462627,0.002915895078331232
1772702120124325400,4.528325439453125,0.0001174454009742476,0.007699731271713972,0.0006522081675939262
1772702120134375200,4.538375244140625,-0.0010479538468644023,0.0072896042838692665,-0.00006870955257909372
1772702120144424200,4.548424072265625,-0.0027262780349701643,0.006097041070461273,-0.0013555489713326097
1772702120154474200,4.55847412109375,-0.0019896477460861206,0.008047007024288177,0.002222674200311303
1772702120164523000,4.56852294921875,-0.0007368966471403837,0.005919940769672394,-0.0016753945965319872
1772702120174573000,4.578572998046875,-0.0024019049014896154,0.005935387220233679,0.000017843178284238093
1772702120184623400,4.588623291015625,0.000023435817638528533,0.006587861571460962,-0.0012535499408841133
1772702120194672000,4.598672119140625,-0.002433596644550562,0.008235293440520763,0.00032384038786403835
1772702120204722200,4.60872216796875,-0.0002932140196207911,0.006571616046130657,-0.0004719121498055756
1772702120214771200,4.618771240234375,-0.0010812433902174234,0.007104248274117708,0.0005898901727050543
1772702120224821000,4.628821044921875,-0.0014599448768422008,0.009076851420104504,0.00008974852971732616
1772702120234870300,4.638870361328125,-0.0012921657180413604,0.0051750545389950275,0.000333161442540586
1772702120244920300,4.64892041015625,-0.0030072415247559547,0.008057926781475544,-0.0017251957906410098
1772702120254970000,4.65897021484375,-0.0016684704460203648,0.006779609248042107,-0.001222390914335847
1772702120265019100,4.66901904296875,-0.0022572954185307026,0.007780158892273903,-0.0003605920064728707
1772702120275069200,4.679069091796875,0.000046072687837295234,0.010028133168816566,0.0007222492713481188
1772702120285118200,4.6891181640625,-0.00236275652423501,0.005351622123271227,0.000026365294615970924
1772702120295168300,4.699168212890625,-0.0014868428697809577,0.00893597025424242,0.0010516822803765535
1772702120305217300,4.70921728515625,-0.0025957829784601927,0.006399043370038271,-0.003543868428096175
1772702120315267000,4.71926708984375,-0.0009528790251351893,0.005567871034145355,-0.0017675400013104081
1772702120325317000,4.729317138671875,0.00011398329661460593,0.006705573294311762,-0.0004316983977332711
1772702120335366100,4.7393662109375,-0.0009052084642462432,0.005947637837380171,0.0000577905957470648
1772702120345416200,4.749416259765625,0.00023382554354611784,0.009018794633448124,0.001514539704658091
1772702120355465200,4.75946533203125,-0.0009145294898189604,0.006299973931163549,0.00039760995423421264
1772702120365515300,4.769515380859375,0.0014937670202925801,0.007814513519406319,-0.0014618091518059373
1772702120375564000,4.77956396484375,-0.0014860439114272594,0.005967078730463982,-0.0005483448621816933
1772702120385614000,4.789614013671875,-0.0000655137628200464,0.00672181835398078,0.001535046030767262
1772702120395663400,4.799663330078125,-0.0020546286832541227,0.007447263691574335,0.002371811307966709
1772702120405713200,4.809713134765625,0.000040746363083599135,0.0073319487273693085,0.0011853729374706745
1772702120415763200,4.81976318359375,-0.000520647969096899,0.006991863250732422,-0.002287122653797269
1772702120425812200,4.829812255859375,-0.0003920173039659858,0.00830906257033348,0.0005731122801080346
1772702120435862000,4.839862060546875,0.0020032296888530254,0.008461927995085716,-0.0009946906939148903
1772702120445911300,4.849911376953125,-0.002123870886862278,0.0073050507344305515,-0.0021949773654341698
1772702120455961300,4.85996142578125,-0.000248472933890298,0.008886169642210007,-0.0023638217244297266
1772702120466010000,4.870010009765625,-0.00025752768851816654,0.01082654856145382,0.0025829998776316643
1772702120476060200,4.88006005859375,-0.0024322650860995054,0.006302903406322002,-0.0004945489927195013
1772702120486110200,4.890110107421875,0.0004854942671954632,0.00891067087650299,0.0012918994762003422
1772702120496159000,4.900158935546875,-0.001320927869528532,0.007926099933683872,0.002817624481394887
1772702120506209000,4.910208984375,-0.00016884441720321774,0.006618221756070852,-0.002080195117741823
1772702120516258300,4.92025830078125,-0.0026463831309229136,0.0049436260014772415,0.00047164582065306604
1772702120526307300,4.930307373046875,0.0015198660548776388,0.007864846847951412,0.00177925790194422
1772702120536356000,4.940356201171875,-0.0008631304954178631,0.007648598402738571,-0.00021544973424170166
1772702120546406100,4.95040625,0.0005283711361698806,0.007751929108053446,0.0009243832319043577
1772702120556456400,4.96045654296875,-0.0005840312223881483,0.007640609052032232,-0.0013757890556007624
1772702120566505200,4.970505126953125,-0.001395496423356235,0.006372678093612194,-0.00046365635353140533
1772702120576555300,4.98055517578125,0.0006330333999358118,0.006369482260197401,-0.003668237943202257
1772702120586604300,4.990604248046875,-0.002615490462630987,0.007198790553957224,-0.0008159925346262753
1772702120596654000,5.000654052734375,-0.002086320426315069,0.00875247921794653,-0.001988049829378724
1772702120606703400,5.010703369140625,-0.0024288028944283724,0.008970857597887516,0.00045806370326317847
1772702120616753400,5.02075341796875,-0.001142496126703918,0.0049510826356709,0.0012415656819939613
1772702120626803500,5.030803466796875,0.0011283813510090113,0.009546900168061256,0.0025422535836696625
1772702120636852200,5.040852294921875,0.00022956448083277792,0.006761766038835049,-0.00015899071877356619
1772702120646902300,5.05090234375,-0.003600061172619462,0.008617723360657692,-0.00028628981090150774
1772702120656951300,5.060951416015625,-0.0025800704024732113,0.006265885196626186,-0.0006450176006183028
1772702120667001300,5.07100146484375,-0.0029814087320119143,0.00734260119497776,-0.0009635316673666239
1772702120677050400,5.08105029296875,-0.0008580705034546554,0.007812116760760546,-0.0021494373213499784
1772702120687100200,5.09110009765625,-0.0033047166652977467,0.00746164470911026,0.0006093312404118478
1772702120697150200,5.101150146484375,0.0025933862198144197,0.0046821036376059055,0.002098304685205221
1772702120707199200,5.11119921875,-0.004480768460780382,0.007236607372760773,-0.002469282830134034
1772702120717249300,5.121249267578125,-0.002234125742688775,0.008539692498743534,-0.003376888344064355
1772702120727298300,5.13129833984375,-0.00037816885742358863,0.00836578756570816,0.003424558788537979
1772702120737348400,5.141348388671875,-0.0011371697764843702,0.007510646712034941,-0.0011536814272403717
1772702120747397000,5.151397216796875,-0.0021515677217394114,0.007397196255624294,0.0010021475609391928
1772702120757447200,5.161447265625,0.0004727110790554434,0.006389988586306572,-0.0007832356495782733
1772702120767497200,5.171497314453125,-0.0007898935582488775,0.007701328955590725,0.0012626046082004905
1772702120777546500,5.18154638671875,-0.0024714134633541107,0.006785468198359013,0.00040426786290481687
1772702120787596300,5.19159619140625,-0.002180862706154585,0.005849633365869522,-0.001213602488860488
1772702120797645300,5.201645263671875,0.0001054611784638837,0.008834504522383213,-0.004250937607139349
1772702120807695400,5.2116953125,0.00014034859486855567,0.007651527877897024,-0.0016413062112405896
1772702120817744100,5.221744140625,-0.0014018879737704992,0.006296245381236076,0.0002966761530842632
1772702120827794400,5.23179443359375,-0.0007004113867878914,0.004830175079405308,0.00029081720276735723
1772702120837843200,5.24184326171875,-0.0021499700378626585,0.00720544857904315,-0.002478870330378413
1772702120847893200,5.251893310546875,0.001888980157673359,0.004523911513388157,0.0021603561472147703
1772702120857943300,5.261943359375,0.0013872405979782343,0.00703766942024231,-0.00009827064059209079
1772702120867992300,5.271992431640625,-0.0006255765329115093,0.008380435407161713,-0.001579787116497755
1772702120878042000,5.2820419921875,0.0012916331179440022,0.007991347461938858,0.0022628880105912685
1772702120888091400,5.29209130859375,0.0010407633380964398,0.009345298632979393,0.0001680454588495195
1772702120898141400,5.302141357421875,-0.0014791196445003152,0.005823001731187105,-0.00008415588672505692
1772702120908190200,5.312190185546875,0.0005249090609140694,0.009585515595972538,-0.0006623281515203416
1772702120918239200,5.3222392578125,-0.0009952232940122485,0.00589517317712307,-0.0009526127250865102
1772702120928289300,5.332289306640625,-0.0009078715811483562,0.007866711355745792,-0.0014333132421597838
1772702120938339300,5.34233935546875,0.0011590076610445976,0.005907423794269562,0.000743554555810988
1772702120948388400,5.352388427734375,-0.0015110776294022799,0.00817910023033619,0.00018349179299548268
1772702120958438400,5.3624384765625,-0.001970472978428006,0.006072806194424629,-0.0013811152894049883
1772702120968487200,5.372487060546875,-0.0011880361707881093,0.004830175079405308,-0.0021204089280217886
1772702120978537200,5.382537109375,-0.001978195970878005,0.007567904889583588,0.0009198558400385082
1772702120988586200,5.392586181640625,0.0003376888344064355,0.008652077987790108,0.0028365328907966614
1772702120998636300,5.40263623046875,-0.0019273296929895878,0.004698348697274923,-0.0009366337326355278
1772702121008686300,5.412686279296875,-0.0008815063047222793,0.005197957623749971,0.001389371114782989
1772702121018735400,5.4227353515625,-0.0006026733317412436,0.005794506054371595,-0.0013044163351878524
1772702121028785200,5.43278515625,-0.00002609897819638718,0.006463225465267897,-0.001484445994719863
1772702121038834400,5.44283447265625,0.0003406183095648885,0.009594304487109184,-0.0002902845444623381
1772702121048884500,5.452884521484375,-0.002502306131646037,0.005393966566771269,0.0010964233661070466
1772702121058933200,5.462933349609375,-0.0036301547661423683,0.006488525774329901,-0.0013909690314903855
1772702121068983300,5.4729833984375,-0.0011094729416072369,0.007954861968755722,0.002353169023990631
1772702121079033300,5.483033447265625,-0.0013651363551616669,0.007144462317228317,-0.002659166231751442
1772702121089082400,5.493082275390625,-0.0006511429091915488,0.00501020485535264,-0.0014439659425988793
1772702121099132400,5.50313232421875,-0.002612028270959854,0.004803277086466551,-0.001859152689576149
1772702121109181400,5.513181396484375,0.0014554174849763513,0.007935155183076859,-0.00020586235041264445
1772702121119231200,5.523231201171875,-0.0023228090722113848,0.007155114784836769,0.0005989448982290924
1772702121129280300,5.5332802734375,-0.000648479734081775,0.007741809356957674,-0.0006375607335940003
1772702121139330300,5.543330322265625,0.0006849650526419282,0.0051934304647147655,-0.0003810983616858721
1772702121149379300,5.55337939453125,0.0001656486128922552,0.0070619042962789536,0.00011451592581579462
1772702121159429400,5.563429443359375,-0.003709516953676939,0.0060120862908661366,-0.0041558630764484406
1772702121169479400,5.5734794921875,0.0003635214816313237,0.006419816054403782,-0.001782453735359013
1772702121179528200,5.583528076171875,-0.0019587550777941942,0.007493336219340563,-0.0012772521004080772
1772702121189578200,5.593578125,-0.0023989754263311625,0.004834702704101801,-0.0010159959783777595
1772702121199627500,5.60362744140625,-0.0014378406340256333,0.006627808790653944,0.000024234765078290366
1772702121209677300,5.61367724609375,-0.0007150587625801563,0.0062669506296515465,-0.0010665960144251585
1772702121219726300,5.623726318359375,0.0010042780777439475,0.006988134700804949,0.0014117417158558965
1772702121229776400,5.6337763671875,0.0004809668753296137,0.00657534459605813,0.0008767126128077507
1772702121239826200,5.643826171875,-0.001802693703211844,0.007540207821875811,-0.0006111954571679235
1772702121249875200,5.653875244140625,-0.0025041704066097736,0.007066431455314159,0.00032730249222368
1772702121259925200,5.66392529296875,-0.0013286510948091745,0.006326871924102306,-0.00010599380766507238
1772702121269974300,5.673974365234375,-0.0024021712597459555,0.0068235513754189014,-0.0008088020258583128
1772702121280024300,5.6840244140625,-0.0016266588354483247,0.006597182713449001,-0.0022831279784440994
1772702121290074400,5.694074462890625,-0.0006785734440200031,0.004891161806881428,-0.0007651261985301971
1772702121300124400,5.70412451171875,-0.0013454289874061942,0.006347644608467817,-0.0008492820779792964
1772702121310173200,5.714173095703125,-0.0014482269762083888,0.006857906002551317,0.00025779398856684566
1772702121320223200,5.72422314453125,-0.003372893435880542,0.007407582364976406,-0.002600310370326042
1772702121330272300,5.734272216796875,-0.00038589202449657023,0.007315703667700291,-0.0026820695493370295
1772702121340322300,5.744322265625,0.0002620550512801856,0.007875766605138779,-0.0031678301747888327
1772702121350371300,5.754371337890625,-0.00008096009696600959,0.007025951519608498,0.0014002900570631027
1772702121360421000,5.764421142578125,0.000011185276889591478,0.007816111668944359,0.00019361180602572858
1772702121370471200,5.77447119140625,-0.001960352761670947,0.00872291810810566,-0.0006998787284828722
1772702121380520400,5.7845205078125,-0.00119602563790977,0.00885048322379589,-0.0007882956997491419
1772702121390570500,5.794570556640625,-0.002005626680329442,0.007484814152121544,-0.0006295712664723396
1772702121400619300,5.804619384765625,-0.0017576862592250109,0.0062110242433846,0.0015576828736811876
1772702121410669300,5.81466943359375,0.0025784724857658148,0.009033176116645336,-0.0006103964988142252
1772702121420718000,5.824718017578125,-0.001458080718293786,0.005672000348567963,0.00017603494052309543
1772702121430768000,5.83476806640625,-0.0007470166892744601,0.006743390113115311,-0.0011065434664487839
1772702121440818400,5.844818359375,-0.001466336427256465,0.006956975441426039,0.0032533176708966494
1772702121450867200,5.8548671875,0.0005251753609627485,0.008441687561571598,-0.0010780475568026304
1772702121460917200,5.864917236328125,-0.0013451626291498542,0.009843575768172741,0.003692472819238901
1772702121470966300,5.87496630859375,-0.00007936220208648592,0.006738596595823765,-0.002111886627972126
1772702121481016300,5.885016357421875,-0.00101173494476825,0.005176119972020388,0.0009837717516347766
1772702121491065300,5.8950654296875,-0.0011696603614836931,0.005119660869240761,-0.0006956176948733628
1772702121501115400,5.905115478515625,-0.00011185276525793597,0.006314621306955814,0.0009110674145631492
1772702121511164200,5.9151640625,-0.002293247962370515,0.007667773403227329,-0.0007677893154323101
1772702121521214200,5.925214111328125,-0.0014879080699756742,0.00818176381289959,0.00038935415796004236
1772702121531265000,5.93526513671875,-0.0012098740553483367,0.006584932096302509,-0.0006487460341304541
1772702121541313800,5.945313720703125,-0.0013997574569657445,0.008712797425687313,-0.0014945659786462784
1772702121551363800,5.95536376953125,-0.0041159153915941715,0.006897853687405586,0.0005486111622303724
1772702121561413000,5.9654130859375,-0.0041161817498505116,0.0038394792936742306,-0.0023350596893578768
1772702121571463200,5.975463134765625,-0.0026644926983863115,0.009756224229931831,-0.0016136092599481344
1772702121581512000,5.985511962890625,-0.001526257605291903,0.007950334809720516,0.0003001382574439049
1772702121591562000,5.99556201171875,0.00047936898772604764,0.0055002267472445965,0.00011371697473805398
1772702121601612000,6.005612060546875,0.0004695153038483113,0.005483981221914291,-0.00009853696246864274
1772702121611661000,6.0156611328125,-0.0021550299134105444,0.006946855690330267,-0.0011944277212023735
1772702121621711000,6.025711181640625,-0.0046602655202150345,0.009282980114221573,-0.00054142065346241
1772702121631760000,6.035759765625,-0.0009741843095980585,0.00833835732191801,-0.0006980145117267966
1772702121641810000,6.045809814453125,0.0022327941842377186,0.007516772020608187,0.0005821670056320727
1772702121651859000,6.05585888671875,-0.00006418218254111707,0.008173241280019283,-0.0002644518972374499
1772702121661909000,6.065908935546875,-0.0011997540714219213,0.00589517317712307,-0.001306014135479927
1772702121671959000,6.075958984375,-0.0029784792568534613,0.007989749312400818,-0.0010852381819859147
1772702121682008000,6.086008056640625,-0.0013938985066488385,0.009252887219190598,-0.00021891183860134333
1772702121692058000,6.09605810546875,-0.00020932445477228612,0.003999269101768732,-0.0020714066922664642
1772702121702107000,6.10610693359375,0.0011124024167656898,0.008452340960502625,0.0025246767327189445
1772702121712157000,6.116156982421875,-0.00256382510997355,0.009314672090113163,-0.0009813748765736818
1772702121722206200,6.126206298828125,-0.002121207769960165,0.008051268756389618,0.0012325108982622623
1772702121732256000,6.136256103515625,-0.0029590383637696505,0.007919441908597946,-0.00035420042695477605
1772702121742306000,6.14630615234375,-0.0010165285784751177,0.006274673622101545,-0.001341700553894043
1772702121752355000,6.15635498046875,-0.0009350358741357923,0.007888815365731716,0.0017422399250790477
1772702121762404900,6.16640478515625,0.00041012681322172284,0.007918376475572586,-0.001228516222909093
1772702121772454100,6.1764541015625,-0.0003025351034011692,0.005825664848089218,-0.000006924218723725062
1772702121782504200,6.186504150390625,-0.0006370281334966421,0.006136721931397915,-0.0029667613562196493
1772702121792553000,6.196552978515625,-0.0009725864510983229,0.008499745279550552,0.0003400856803636998
1772702121802603000,6.20660302734375,-0.0011731224367395043,0.006698915269225836,0.0013933659065514803
1772702121812652000,6.216652099609375,-0.0006332996999844909,0.008339955471456051,0.002688460983335972
1772702121822701800,6.226701904296875,-0.00009480853623244911,0.008393218740820885,-0.0004780374001711607
1772702121832751900,6.236751953125,-0.0012114719720557332,0.006962302140891552,-0.002368881832808256
1772702121842801200,6.24680126953125,0.001056476030498743,0.007258711848407984,-0.001237571006640792
1772702121852851000,6.256850830078125,-0.001659948262386024,0.007229683455079794,-0.0004732437082566321
1772702121862900000,6.26689990234375,0.00016698020044714212,0.006649913266301155,-0.0013704627053812146
1772702121872950000,6.276949951171875,-0.0012402341235429049,0.007820905186235905,-0.0015808524331077933
1772702121882999000,6.2869990234375,0,0.008828112855553627,-0.0007155913626775146
1772702121893049000,6.297049072265625,-0.0017616810509935021,0.006573480553925037,0.0012780509423464537
1772702121903099100,6.30709912109375,-0.0013409015955403447,0.0065106297843158245,0.0009600695921108127
1772702121913148000,6.31714794921875,-0.00010279801790602505,0.00692049041390419,-0.0023403859231621027
1772702121923198000,6.327197998046875,0.00021491710504051298,0.006566289812326431,0.0019150790758430958
1772702121933247000,6.3372470703125,-0.0021379857789725065,0.006478938274085522,-0.0009853695519268513
1772702121943297000,6.347297119140625,-0.0034554514568299055,0.006021673325449228,-0.001511610229499638
1772702121953346000,6.357345947265625,-0.00012250541476532817,0.006334062200039625,0.0035031221341341734
1772702121963396000,6.36739599609375,0.002441585995256901,0.00743208359926939,0.0011201255256310105
1772702121973446000,6.37744580078125,-0.0012506204657256603,0.005859220866113901,0.0006404902087524533
1772702121983495000,6.387494873046875,-0.001204547705128789,0.007321828510612249,-0.0015190670965239406
1772702121993545000,6.397544921875,0.0008431567694060504,0.008552475832402706,-0.0022210762836039066
1772702122003594000,6.407593994140625,0.0013174657942727208,0.008836368098855019,0.0007882956997491419
1772702122013644000,6.41764404296875,0.0004916195175610483,0.007243531756103039,-0.0015970977256074548
1772702122023693000,6.427693115234375,0.0008229167433455586,0.008957808837294579,-0.0002388855500612408
1772702122033742800,6.437742919921875,-0.0016165387351065874,0.007260309532284737,0.0008189220097847283
1772702122043792100,6.447792236328125,-0.00006391586794052273,0.006223274860531092,-0.00038456046604551375
1772702122053842200,6.45784228515625,-0.0013235911028459668,0.008451808243989944,-0.0002359560749027878
1772702122063892000,6.46789208984375,-0.0011922972043976188,0.00782703049480915,0.00007350324449362233
1772702122073941000,6.47794091796875,-0.00028815402765758336,0.006927947048097849,0.00006924218905624002
1772702122083991000,6.487990966796875,-0.001832521171309054,0.006049903109669685,-0.0026991136837750673
1772702122094039800,6.498039794921875,-0.0006135923322290182,0.006133259739726782,-0.0004492752777878195
1772702122104089900,6.50808984375,-0.0012247877893969417,0.00882038939744234,-0.0020730046089738607
1772702122114139100,6.51813916015625,0.0014740596525371075,0.008893626742064953,-0.0013672668719664216
1772702122124189000,6.52818896484375,-0.0012692625168710947,0.00875940266996622,0.002910036128014326
1772702122134239000,6.538239013671875,-0.0018977685831487179,0.005888515617698431,-0.0019153454340994358
1772702122144288000,6.5482880859375,-0.0007395598222501576,0.007947937585413456,0.0017957695527002215
1772702122154337800,6.558337890625,-0.0030802120454609394,0.007980428636074066,-0.0035577169619500637
1772702122164387000,6.568386962890625,-0.0021675468888133764,0.0060059609822928905,-0.0012149340473115444
1772702122174437000,6.57843701171875,-0.0006000102148391306,0.009532518684864044,0.002353701740503311
1772702122184486000,6.58848583984375,-0.002704440150409937,0.007448062766343355,-0.001279382617212832
1772702122194536000,6.598535888671875,-0.00015686018741689622,0.01022813655436039,-0.0010900318156927824
1772702122204585000,6.6085849609375,-0.002016545506194234,0.011504056863486767,-0.000004261057711119065
1772702122214635000,6.618635009765625,-0.0014764565275982022,0.006331132724881172,-0.003368099918588996
1772702122224685000,6.62868505859375,-0.0015752597246319056,0.007641408126801252,-0.003451456781476736
1772702122234734000,6.638734130859375,-0.001817873795516789,0.00797270517796278,0.00008202536264434457
1772702122244784000,6.6487841796875,-0.0013076120521873236,0.008852347731590271,-0.004064250271767378
1772702122254833000,6.6588330078125,-0.001894839107990265,0.008387892507016659,-0.0007936219917610288
1772702122264883000,6.668883056640625,-0.002591521944850683,0.007031810469925404,-0.0009707222343422472
1772702122274932000,6.678931884765625,-0.0009797769598662853,0.005428587552160025,-0.0023102923296391964
1772702122284982000,6.68898193359375,0.00044847631943412125,0.005655755288898945,0.0015105449128895998
1772702122295032000,6.699031982421875,-0.0012500877492129803,0.00827763695269823,-0.0012743226252496243
1772702122305080800,6.709080810546875,-0.0011757856700569391,0.006325273774564266,0.0015627428656443954
1772702122315131000,6.719130859375,-0.0035987296141684055,0.016140887513756752,0.0051809134893119335
1772702122325180200,6.72918017578125,-0.0015765913994982839,-0.008844890631735325,-0.0065409899689257145
1772702122335230200,6.739230224609375,-0.0011832424206659198,0.016445286571979523,0.005855758674442768
1772702122345279000,6.749279052734375,0.0004034689045511186,-0.00014274542627390474,-0.006570284720510244
