time,seconds_elapsed,z,y,x
1772702115659798300,0.06379833984375,-0.0003278470830991864,0.010189443826675415,0.0063184769824147224
1772702115669848300,0.073848388671875,0.0026679427828639746,-0.008318992331624031,-0.0004009447293356061
1772702115679897300,0.0838974609375,-0.0011098452378064394,0.002859293483197689,0.0028260115068405867
1772702115689947400,0.093947509765625,-0.0012832172214984894,0.0021098796278238297,-0.0007492822478525341
1772702115699996400,0.103996337890625,-0.000239076791331172,-0.004339064005762339,-0.0029847414698451757
1772702115710046200,0.114046142578125,-0.0005959402769804001,0.004462683107703924,0.0009189201518893242
1772702115720095500,0.124095458984375,-0.0002962554572150111,-0.0019213161431252956,0.0006044057663530111
1772702115730145500,0.1341455078125,0.0025903447531163692,0.002363709732890129,0.003185807727277279
1772702115740195300,0.1441953125,0.002314184792339802,-0.002085405867546797,-0.0007643970311619341
1772702115750244400,0.154244384765625,-0.0010845413198694587,0.0010336884297430515,-0.002421149518340826
1772702115760294400,0.16429443359375,-0.001268658204935491,-0.0004281960427761078,0.0011709907557815313
1772702115770343400,0.174343505859375,-0.0003661127993836999,0.0033851847983896732,0.0007382270414382219
1772702115780393500,0.1843935546875,0.0000750828767195344,-0.0015827594324946404,0.0016824514605104923
1772702115790443500,0.194443603515625,0.002650359645485878,-0.003575869370251894,-0.0017602168954908848
1772702115800492300,0.2044921875,-0.0007164966082200408,0.00028269365429878235,0.0012893020175397396
1772702115810542300,0.214542236328125,-0.0014869490405544639,-0.0006403583101928234,-0.0000294953933916986
1772702115820591400,0.22459130859375,-0.0004858626052737236,0.00045045604929327965,0.0008319017360918224
1772702115830641200,0.23464111328125,-0.00034977507311850786,-0.0025866124778985977,0.0011157947592437267
1772702115840690400,0.2446904296875,0.001403467613272369,-0.001223233062773943,0.0008052061893977225
1772702115850740500,0.254740478515625,0.0013914834707975388,-0.0010567852295935154,-0.00011358439223840833
1772702115860790500,0.26479052734375,0.00004161708056926727,-0.0014993194490671158,0.0010202557314187288
1772702115870839300,0.27483935546875,-0.0014449594309553504,-0.0014111688360571861,0.002987266518175602
1772702115880889300,0.284889404296875,0.0008263587951660156,-0.0023486767895519733,0.000727376202121377
1772702115890938400,0.2949384765625,-0.0008136158576235175,-0.001404319889843464,0.002208093646913767
1772702115900988400,0.304988525390625,-0.000577833503484726,-0.0011464506387710571,-0.0004016059101559222
1772702115911038500,0.31503857421875,0.0007926292018964887,-0.00031767459586262703,0.0001906811085063964
1772702115921087200,0.325087158203125,0.0008723464561626315,-0.00007869768887758255,0.0026155561208724976
1772702115931137300,0.33513720703125,0.001447855494916439,0.0014278525486588478,-0.0016633447958156466
1772702115941186300,0.345186279296875,-0.002500545931980014,0.000531964935362339,-0.0005338981281965971
1772702115951236600,0.355236572265625,-0.0013601805549114943,-0.0013647377490997314,-0.0006340328836813569
1772702115961286400,0.365286376953125,0.0005411399761214852,-0.0026251208037137985,-0.001694436650723219
1772702115971335400,0.37533544921875,0.0012498070718720555,-0.00036889081820845604,0.0012893688399344683
1772702115981385500,0.385385498046875,0.0014102252898737788,-0.00034485477954149246,-0.0005775101017206907
1772702115991434200,0.395434326171875,-0.00030538300052285194,-0.0005611036904156208,-0.0001162505941465497
1772702116001484300,0.405484375,-0.000027531757950782776,0.00052664615213871,0.002074069809168577
1772702116011533300,0.415533203125,0.0020851539447903633,0.0013775266706943512,-0.001504419487901032
1772702116021583400,0.425583251953125,0.00038446264807134867,0.0012046797201037407,-0.000628440291620791
1772702116031633400,0.43563330078125,-0.0006126248044893146,0.002219078131020069,0.000041078426875174046
1772702116041682400,0.445682373046875,0.00025556120090186596,-0.000979089643806219,0.0007961533265188336
1772702116051732200,0.455732177734375,-0.0020547311287373304,-0.00008986005559563637,-0.00035300065064802766
1772702116061781500,0.465781494140625,-0.000537700136192143,-0.0016003362834453583,0.00003528629895299673
1772702116071831600,0.47583154296875,0.0007677815156057477,0.0011200830340385437,-0.000737030350137502
1772702116081881300,0.48588134765625,0.00012588291428983212,0.00012152967974543571,-0.000958346645347774
1772702116091930400,0.495930419921875,-0.00018677220214158297,0.00014949264004826546,-0.00020813418086618185
1772702116101980400,0.50598046875,-0.0009250148432329297,0.0013610231690108776,0.00067850761115551
1772702116112029400,0.516029541015625,0.0010449254186823964,0.0015549012459814548,0.0006444191676564515
1772702116122079500,0.52607958984375,-0.0008639340521767735,0.0022135688923299313,0.00045932712964713573
1772702116132128500,0.53612841796875,-0.0023001767694950104,-0.0014283042401075363,-0.0018051586812362075
1772702116142178300,0.54617822265625,-0.00008850626181811094,-0.0007532923482358456,0.0008481470285914838
1772702116152228400,0.556228271484375,-0.0018504536710679531,-0.0007423735223710537,-0.002036588964983821
1772702116162277400,0.56627734375,0.0002737661125138402,0.00327166635543108,0.0020434444304555655
1772702116172327200,0.5763271484375,-0.0002367618726566434,-0.000801638700067997,0.0010088064009323716
1772702116182376400,0.58637646484375,0.0016516114119440317,0.000550881028175354,0.002341451356187463
1772702116192426500,0.596426513671875,-0.0003857067786157131,-0.0026936479844152927,0.0011627362109720707
1772702116202476300,0.606476318359375,-0.0007601362885907292,-0.0012105335481464863,0.0002929478359874338
1772702116212525300,0.616525390625,0.00023615232203155756,0.0005926927551627159,0.0006258429493755102
1772702116222575400,0.626575439453125,-0.0011088752653449774,0.0015193065628409386,0.0009608694817870855
1772702116232624400,0.636624267578125,-0.00027850165497511625,0.0024860333651304245,0.0011033485643565655
1772702116242674400,0.64667431640625,-0.0003887214697897434,-0.0016808784566819668,0.0007576041971333325
1772702116252724500,0.656724365234375,-0.0012417319230735302,-0.001089390367269516,0.004316652659326792
1772702116262773200,0.666773193359375,0.00043500226456671953,0.00004114629700779915,0.0016234617214649916
1772702116272823300,0.6768232421875,-0.0012585017830133438,-0.0009540766477584839,-0.002707370789721608
1772702116282872300,0.686872314453125,-0.002696104347705841,0.0003592018038034439,0.0000829880591481924
1772702116292922400,0.69692236328125,0.0013231383636593819,0.0007719919085502625,0.0002534303639549762
1772702116302971400,0.706971435546875,-0.00094380765222013,-0.001322064083069563,-0.0008893574122339487
1772702116313021400,0.717021484375,-0.0005169030046090484,-0.0006323056295514107,-0.000008650065865367651
1772702116323071500,0.727071533203125,0.0016734759556129575,-0.002027432434260845,0.0006248400895856321
1772702116333120300,0.737120361328125,0.0003488196525722742,-0.00009557558223605156,-0.0004904917441308498
1772702116343170300,0.74717041015625,0.001264228136278689,-0.0003954456187784672,0.000690061307977885
1772702116353219300,0.75721923828125,-0.00033526646438986063,-0.0005043684504926205,-0.003163000103086233
1772702116363269400,0.767269287109375,0.00008871511090546846,0.0000882558524608612,0.0007570828893221915
1772702116373319400,0.7773193359375,-0.001135273720137775,-0.0014273491688072681,0.0009754621423780918
1772702116383368400,0.787368408203125,0.0010399563470855355,0.0009797438979148865,0.0018469139467924833
1772702116393418200,0.797418212890625,-0.0017417153576388955,-0.001406981609761715,0.0031864838674664497
1772702116403467500,0.807467529296875,0.0012587177334353328,-0.0015208665281534195,-0.0007111103623174131
1772702116413517600,0.817517578125,-0.001388730714097619,0.00056811748072505,0.0008846557466313243
1772702116423567400,0.8275673828125,0.00046452542301267385,-0.0007014572620391846,0.00013577574281953275
1772702116433616400,0.837616455078125,-0.00045746099203824997,0.0024812868796288967,-0.001537222065962851
1772702116443666400,0.84766650390625,-0.00014042272232472897,0.0008085831068456173,-0.0008589945500716567
1772702116453715200,0.857715087890625,0.0018838460091501474,-0.001299042720347643,0.0009354433859698474
1772702116463765500,0.867765625,0.0015741961542516947,-0.0007836571894586086,-0.00042565964395180345
1772702116473814500,0.877814453125,0.0008295762818306684,-0.0006912457756698132,-0.0005867808940820396
1772702116483864300,0.8878642578125,-0.0003725717542693019,0.0009779660031199455,-0.00033681211061775684
1772702116493914400,0.897914306640625,-0.0006665848195552826,0.0006895456463098526,0.000754551263526082
1772702116503963400,0.90796337890625,0.0014382223598659039,-0.00022419309243559837,-0.00022382609313353896
1772702116514013200,0.91801318359375,-0.00027925032190978527,-0.000890249852091074,-0.0018486208282411098
1772702116524063200,0.928063232421875,-0.0000057924771681427956,0.00037246616557240486,0.002579394495114684
1772702116534113000,0.938113037109375,-0.0014891731552779675,0.00044863251969218254,0.0011087970342487097
1772702116544163000,0.9481630859375,0.00006982195191085339,-0.00014335708692669868,0.0028828114736825228
1772702116554212000,0.958212158203125,0.0023659993894398212,-0.0013234037905931473,0.000655343581456691
1772702116564262000,0.968261962890625,0.0007758889114484191,-0.002437833696603775,0.0015838609542697668
1772702116574311000,0.978310791015625,-0.0014004462864249945,0.0011904570274055004,0.0013566933339461684
1772702116584361000,0.98836083984375,0.0013059184420853853,-0.0008722562342882156,0.0006765564903616905
1772702116594410000,0.998409912109375,0.00030670035630464554,0.0014020833186805248,0.0015127890510484576
1772702116604460000,1.0084599609375,-0.0014515890507027507,0.0021932614035904408,-0.0025251649785786867
1772702116614510000,1.018510009765625,0.0030470225028693676,-0.0025977655313909054,-0.0004918414633721113
1772702116624558800,1.028558837890625,0.00007071241270750761,0.0005705561488866806,0.001994600985199213
1772702116634609000,1.03860888671875,-0.0007607265142723918,0.0006895987316966057,0.0007538341451436281
1772702116644658200,1.048658203125,0.001622186042368412,0.00108809070661664,-0.00014444917906075716
1772702116654708000,1.0587080078125,-0.0011379140196368098,-0.0015532327815890312,0.0031339020933955908
1772702116664758000,1.068758056640625,-0.0007143203401938081,0.00220328476279974,0.0017970160115510225
1772702116674807000,1.07880712890625,0.0002710492117330432,0.002421664074063301,-0.0005854478222317994
1772702116684856800,1.08885693359375,-0.001372605562210083,-0.0018872562795877457,0.005277676973491907
1772702116694906000,1.098906005859375,-0.0000506123760715127,0.0005274317227303982,-0.002005802234634757
1772702116704956200,1.1089560546875,0.00007581932004541159,-0.00035782763734459877,-0.001363798975944519
1772702116715005000,1.1190048828125,-0.00011459679808467627,-0.0023117889650166035,-0.0031348010525107384
1772702116725055000,1.129054931640625,0.0003072737599723041,-0.0012055523693561554,0.00026576520758681
1772702116735105000,1.13910498046875,0.0010353820398449898,0.00024160929024219513,-0.0007816560682840645
1772702116745153800,1.14915380859375,-0.0017655686242505908,-0.0007128408178687096,0.00007888890104368329
1772702116755203800,1.159203857421875,0.001265108585357666,0.0005939723923802376,0.0028584301471710205
1772702116765253000,1.169253173828125,-0.0010800204472616315,-0.00005231378600001335,0.0006368051981553435
1772702116775303000,1.179302978515625,0.001009762054309249,0.000145825557410717,-0.001444188761524856
1772702116785353000,1.18935302734375,-0.00029679853469133377,-0.00026478013023734093,-0.0002884728601202369
1772702116795402000,1.199402099609375,-0.0008446108549833298,-0.0020035579800605774,0.0006020881701260805
1772702116805452000,1.2094521484375,0.003833154682070017,0.002668470609933138,0.0008186767809092999
1772702116815501000,1.2195009765625,0.0004549347795546055,-0.0004330473020672798,-0.001257523661479354
1772702116825551000,1.229551025390625,-0.0006328695453703403,0.002495088614523411,-0.0008327162358909845
1772702116835601200,1.23960107421875,0.0009397270623594522,-0.002383023500442505,-0.0009762606350705028
1772702116845650000,1.24964990234375,-0.00023254030384123325,-0.001139070838689804,0.00263084564357996
1772702116855700000,1.259699951171875,-0.0013412142870947719,0.0013129017315804958,0.0006790149491280317
1772702116865749000,1.2697490234375,0.0012081778841093183,-0.002068321220576763,0.00027054327074438334
1772702116875799000,1.279799072265625,-0.0003527008229866624,0.0014337352477014065,0.00023698742734268308
1772702116885848000,1.28984814453125,0.002954966388642788,0.0004978170618414879,0.0013989750295877457
1772702116895898000,1.299898193359375,-0.0003137974999845028,-0.00018048984929919243,0.0019686250016093254
1772702116905948000,1.309947998046875,-0.0018938728608191013,-0.001078150700777769,-0.0005882633849978447
1772702116915997000,1.319996826171875,-0.001966843381524086,-0.00026934873312711716,0.0004658157704398036
1772702116926047000,1.330046875,-0.003891958389431238,0.0003467700444161892,0.0017184116877615452
1772702116936096000,1.340095947265625,0.0023757913149893284,-0.001125425100326538,0.000371384754544124
1772702116946146000,1.35014599609375,0.0015553026460111141,-0.0014305957593023777,0.00018933785031549633
1772702116956196000,1.360196044921875,0.0008053564815782011,-0.0006617410108447075,0.0014173213858157396
1772702116966244900,1.370244873046875,-0.0015391045017167926,-0.00024641072377562523,-0.0006554867140948772
1772702116976295000,1.380294921875,0.0010244542500004172,0.0011911634355783463,-0.001076798769645393
1772702116986344200,1.39034423828125,-0.0023935697972774506,0.0018259091302752495,-0.0007056094473227859
1772702116996394000,1.40039404296875,0.0010000963229686022,0.0011041928082704544,-0.0017149474006146193
1772702117006443000,1.410443115234375,0.000017520040273666382,-0.0008837319910526276,-0.002061526756733656
1772702117016493000,1.4204931640625,0.0004100699443370104,-0.001849660649895668,0.0029409548733383417
1772702117026542800,1.43054296875,0.0004187751328572631,0.001291837077587843,0.0004900899366475642
1772702117036592000,1.440592041015625,0.0018899053102359176,-0.00011857273057103157,-0.0004963449900969863
1772702117046642200,1.45064208984375,-0.001261546858586371,0.0007641245611011982,0.0002845507697202265
1772702117056691000,1.46069091796875,-0.000970197026617825,-0.0013016890734434128,-0.00047311856178566813
1772702117066741000,1.470740966796875,-0.0011729397810995579,-0.0005430667661130428,-0.00021401658887043595
1772702117076791000,1.480791015625,0.00002308574039489031,0.002448195591568947,-0.000767421443015337
1772702117086839800,1.49083984375,-0.000621712883003056,0.0004679327830672264,0.0007642073323950171
1772702117096889900,1.500889892578125,-0.000826509902253747,-0.000321162398904562,0.0017756758024916053
1772702117106939100,1.510939208984375,0.0007851168629713356,-0.0000970885157585144,-0.0014162007719278336
1772702117116989000,1.520989013671875,0.001036252942867577,-0.002625760156661272,0.00005120097193866968
1772702117127038000,1.531037841796875,0.0014634733088314533,-0.0002490933984518051,0.00025825100601650774
1772702117137088000,1.541087890625,0.0005681184702552855,-0.0011907871812582016,-0.0001081999798770994
1772702117147137800,1.5511376953125,-0.00023901183158159256,0.0004588351584970951,-0.003846121719107032
1772702117157187000,1.56118701171875,-0.00025578972417861223,0.00008119875565171242,-0.001623180927708745
1772702117167237000,1.571237060546875,0.0015832842327654362,0.0007592644542455673,-0.0015011606737971306
1772702117177286000,1.581285888671875,-0.00010888837277889252,-0.0007446222007274628,-0.0010984907858073711
1772702117187336000,1.5913359375,-0.00032156717497855425,0.0012006238102912903,0.0003595770394895226
1772702117197386000,1.601385986328125,0.0012582200579345226,0.0010030176490545273,0.0005116435349918902
1772702117207435000,1.61143505859375,-0.00009551015682518482,-0.00023670541122555733,-0.0009453565580770373
1772702117217485000,1.621485107421875,-0.0005341328214854002,-0.000836182851344347,0.004623579327017069
1772702117227534000,1.6315341796875,0.00013518414925783873,-0.0008990890346467495,-0.0011402941308915615
1772702117237584100,1.641584228515625,0.0009940535528585315,-0.00033343350514769554,-0.0010409583337605
1772702117247633000,1.6516328125,0.0009279291261918843,0.0013642883859574795,-0.00169875577557832
1772702117257683000,1.661682861328125,-0.001315784058533609,-0.0010488023981451988,-0.00012562665506266057
1772702117267733000,1.67173291015625,-0.000028385547921061516,0.0015548858791589737,0.0018608167301863432
1772702117277782000,1.681781982421875,-0.0002603468019515276,0.001116529107093811,-0.0008284433861263096
1772702117287832000,1.69183203125,0.0006685207481496036,0.0011750860139727592,0.00003717717481777072
1772702117297880800,1.701880859375,0.0015929039800539613,-0.0029618684202432632,-0.0018438135739415884
1772702117307931000,1.711930908203125,-0.0005472828634083271,-0.000005688518285751343,-0.0019296037498861551
1772702117317980200,1.721980224609375,-0.000014650635421276093,0.0012814169749617577,-0.00020041328389197588
1772702117328030200,1.7320302734375,-0.0010411323746666312,-0.0016579683870077133,-0.0011501319240778685
1772702117338080000,1.742080078125,0.0010204205755144358,-0.00001559685915708542,0.00014576234389096498
1772702117348129000,1.75212890625,0.0016074195737019181,-0.0007620062679052353,-0.0007095184992067516
1772702117358179000,1.762178955078125,0.0017938409000635147,0.00022922223433852196,-0.002252287697046995
1772702117368227800,1.772227783203125,-0.0013138913782313466,0.0005041039548814297,0.0005820600781589746
1772702117378278100,1.782278076171875,0.0001266123726963997,0.00021967850625514984,-0.0008017183863557875
1772702117388328200,1.792328125,-0.000013165525160729885,-0.0003948439843952656,0.0028475658036768436
1772702117398377000,1.802376953125,0.0011567610781639814,-0.0017293537966907024,-0.0012851274805143476
1772702117408427000,1.812427001953125,-0.0010640675900503993,-0.00041652610525488853,-0.0017528585158288479
1772702117418476000,1.82247607421875,0.0015857776161283255,-0.002787006087601185,-0.0014412685995921493
1772702117428525800,1.83252587890625,0.0018459639977663755,-0.0029475619085133076,0.00016596367640886456
1772702117438575000,1.8425751953125,-0.0010547511046752334,0.0016285479068756104,-0.0014955825172364712
1772702117448625200,1.852625244140625,0.0024427352473139763,0.0018046447075903416,-0.002224332420155406
1772702117458675000,1.862675048828125,-0.0016055358573794365,-0.00020151399075984955,-0.0012221848592162132
1772702117468724000,1.872723876953125,-0.0012311936588957906,-0.0034623448736965656,-0.000045797874918207526
1772702117478774000,1.88277392578125,-0.0019156261114403605,0.0014716936275362968,0.0007800483726896346
1772702117488823000,1.892822998046875,0.0006114282878115773,0.0004629213362932205,-0.0012202723883092403
1772702117498873000,1.902873046875,-0.00003492087125778198,-0.00041139451786875725,-0.0009358468232676387
1772702117508923100,1.912923095703125,0.0005359689821489155,0.0006535286083817482,-0.00029102768166922033
1772702117518972000,1.922971923828125,-0.000004386412911117077,-0.0013315919786691666,0.0006440081633627415
1772702117529021700,1.933021728515625,0.0004138855147175491,-0.00034605851396918297,0.0034143279772251844
1772702117539070700,1.94307080078125,0.0002477042144164443,0.0025751632638275623,-0.001287482911720872
1772702117549120800,1.953120849609375,-0.000929931178689003,0.00027868710458278656,-0.001012251479551196
1772702117559169800,1.963169677734375,-0.0011435167398303747,-0.0015748729929327965,-0.000521164620295167
1772702117569219600,1.973219482421875,0.00031192414462566376,0.0003266432322561741,-0.0011950449552387
1772702117579269600,1.98326953125,-0.0009416256798431277,0.0012017576955258846,-0.00010820897296071053
1772702117589318700,1.993318603515625,0.0000225873664021492,-0.0014742324128746986,0.0004744462785311043
1772702117599368400,2.003368408203125,-0.0001907318364828825,-0.00019751302897930145,-0.0029306714423000813
1772702117609417700,2.013417724609375,-0.002444419078528881,-0.0007500690408051014,0.0015229975106194615
1772702117619467800,2.0234677734375,0.0005492402706295252,0.001332523301243782,0.0026252800598740578
1772702117629517600,2.033517578125,-0.0026386885438114405,-0.0010329973883926868,-0.0008166390471160412
1772702117639566600,2.043566650390625,0.0015669751446694136,-0.0005682758055627346,0.00045741727808490396
1772702117649616600,2.05361669921875,-0.0006823739968240261,0.0020901570096611977,-0.0014485534047707915
1772702117659665700,2.063665771484375,-0.00273007876239717,-0.000035311561077833176,-0.000013109587598592043
1772702117669715700,2.0737158203125,-0.0013612363254651427,0.00042104069143533707,-0.0009519406594336033
1772702117679764700,2.0837646484375,0.001583953620865941,0.00026631075888872147,-0.0008781710639595985
1772702117689814500,2.093814453125,0.0006343243876472116,0.00028417864814400673,-0.001263212412595749
1772702117699864600,2.103864501953125,0.000754699285607785,-0.001407993957400322,0.002008480951189995
1772702117709913900,2.113913818359375,-0.0034676215145736933,0.0010443623177707195,-0.0006156500894576311
1772702117719963600,2.123963623046875,0.0011590879876166582,-0.0005884217098355293,0.0022307364270091057
1772702117730012700,2.1340126953125,0.00044200121192261577,0.0005592550151050091,-0.0014785102102905512
1772702117740062700,2.144062744140625,0.00119567580986768,0.00023408280685544014,0.0002986170584335923
1772702117750112800,2.15411279296875,0.0005150212673470378,-0.001353907398879528,-0.0010754961986094713
1772702117760161500,2.16416162109375,0.0014774876181036234,0.0007691644132137299,-0.00044858804903924465
1772702117770211600,2.174211669921875,0.0014986402820795774,-0.0006896755658090115,-0.0023763002827763557
1772702117780260600,2.184260498046875,0.0005564139573834836,-0.0007658419199287891,0.0002703490317799151
1772702117790310700,2.194310546875,-0.0008965667802840471,0.0009428621269762516,0.00029885192634537816
1772702117800359700,2.204359619140625,-0.0009823206346482038,-0.0005152183584868908,-0.00008730642730370164
1772702117810409700,2.21440966796875,-0.000017398037016391754,-0.00010854844003915787,-0.00288757705129683
1772702117820459500,2.22445947265625,-0.0022805524058640003,-0.000895246397703886,-0.002004206646233797
1772702117830508800,2.2345087890625,-0.0006933845579624176,0.0016256235539913177,-0.0006743926787748933
1772702117840558800,2.244558837890625,-0.000459559028968215,0.00010868674144148827,0.001858273521065712
1772702117850607600,2.254607666015625,0.0001379691530019045,-0.0015511540696024895,0.0005536772077903152
1772702117860657700,2.26465771484375,0.0025931373238563538,-0.0010944223031401634,-0.0002460700925439596
1772702117870706400,2.27470654296875,-0.00023107591550797224,0.0012260968796908855,0.0005961607675999403
1772702117880756700,2.2847568359375,0.0025087841786444187,0.002523323055356741,0.0005042817210778594
1772702117890806800,2.294806884765625,0.00003064179327338934,0.0024354462511837482,0.0009684885153546929
1772702117900855800,2.304855712890625,0.0017976491944864392,-0.0013268017210066319,-0.002809205325320363
1772702117910905600,2.314905517578125,0.0028662593103945255,0.0007212650962173939,-0.000894267694093287
1772702117920954600,2.32495458984375,-0.0006784080760553479,-0.001745088491588831,0.001908176694996655
1772702117931004700,2.335004638671875,0.0020404686219990253,0.00022846926003694534,-0.0006835369276814163
1772702117941053700,2.3450537109375,-0.000313499360345304,0.0017299596220254898,-0.0006555737345479429
1772702117951103700,2.355103759765625,0.0009159044129773974,-0.0011906134895980358,0.0011181638110429049
1772702117961153800,2.36515380859375,-0.0008905176073312759,0.00007199123501777649,0.0012579797767102718
1772702117971202600,2.37520263671875,-0.00003940798342227936,-0.0003298092633485794,-0.0001814479473978281
1772702117981252600,2.385252685546875,0.0011480954708531499,0.00027978839352726936,0.00019032935961149633
1772702117991302000,2.395302001953125,0.0007480424246750772,-0.0002166982740163803,0.0002631000243127346
1772702118001351700,2.4053515625,-0.0013236305676400661,0.002439006231725216,0.00041117178625427186
1772702118011401700,2.415401611328125,-0.0003088085213676095,-0.004940666723996401,-0.0008836542256176472
1772702118021450800,2.42545068359375,0.002632120158523321,0.0006485097110271454,0.0014884233241900802
1772702118031500500,2.43550048828125,0.0010477916803210974,-0.0021957452408969402,0.0014584778109565377
1772702118041549600,2.445549560546875,0.0012680350337177515,-0.0024359622038900852,-0.0007631310727447271
1772702118051599600,2.455599609375,0.00009182177018374205,-0.0011004791595041752,-0.0012549716047942638
1772702118061648600,2.465648681640625,0.0016801310703158379,-0.0004184436984360218,-0.00025229150196537375
1772702118071698700,2.47569873046875,0.000826801173388958,-0.0014750952832400799,-0.00012055749539285898
1772702118081748700,2.485748779296875,-0.0004544456023722887,-0.00012327497825026512,-0.002217264147475362
1772702118091797500,2.495797607421875,0.00007776031270623207,-0.0002853125333786011,0.00029762915801256895
1772702118101847600,2.50584765625,-0.0022650223691016436,0.00036556366831064224,-0.0014800308272242546
1772702118111896800,2.515896728515625,0.002091601025313139,0.00007591256871819496,-0.0021770542953163385
1772702118121946600,2.525946533203125,-0.000017888727597892284,-0.0027491687797009945,-0.0008033957565203309
1772702118131996700,2.53599658203125,-0.001104970695450902,-0.0008270000107586384,0.0008985078311525285
1772702118142045700,2.546045654296875,0.0003565721563063562,0.001193540170788765,-0.0002498471876606345
1772702118152095500,2.556095458984375,-0.0002504322910681367,0.000084620900452137,-0.00009061628952622414
1772702118162144800,2.566144775390625,0.0016068562399595976,0.001389569602906704,-0.0006205853424035013
1772702118172194800,2.57619482421875,0.00047240970889106393,-0.00015787826851010323,0.0011034023482352495
1772702118182243600,2.58624365234375,-0.0004173524212092161,0.0007444010116159916,-0.00005986637552268803
1772702118192293600,2.596293701171875,-0.0004478542832657695,0.00004725158214569092,-0.0015703903045505285
1772702118202343700,2.60634375,0.0009005041792988777,0.00165074085816741,0.00020913401385769248
1772702118212392400,2.616392333984375,-0.002205017488449812,-0.0017793010920286179,-0.000982364872470498
1772702118222442800,2.62644287109375,-0.0004979310324415565,-0.001773708499968052,0.0009116752771660686
1772702118232491800,2.63649169921875,-0.000571476062759757,-0.0006939098238945007,-0.001270864624530077
1772702118242541600,2.64654150390625,0.0023036724887788296,-0.0013458514586091042,-0.0009520843159407377
1772702118252590600,2.656590576171875,0.00006018276326358318,0.000352698378264904,-0.00011996857938356698
1772702118262640600,2.666640625,0.00014007766731083393,0.00021048588678240776,0.0023820712231099606
1772702118272690700,2.676690673828125,-0.0008428737055510283,0.0007289904169738293,0.00127433892339468
1772702118282739700,2.68673974609375,0.0014655543491244316,-0.0013333619572222233,0.0038416259922087193
1772702118292789800,2.696789794921875,0.0007870382978580892,-0.00012424634769558907,0.0015093397814780474
1772702118302838500,2.706838623046875,-0.00033495144452899694,-0.0017024357803165913,-0.00039854878559708595
1772702118312888600,2.716888671875,-0.0006915662670508027,-0.0027149454690515995,0.001408987445756793
1772702118322938600,2.726938720703125,0.00045998464338481426,-0.0006597838364541531,-0.0003332525957375765
1772702118332987600,2.736987548828125,0.0006138401804491878,-0.0021374723874032497,-0.0018571855034679174
1772702118343037700,2.74703759765625,-0.0015470486832782626,0.002106274478137493,-0.0013213574420660734
1772702118353086700,2.757086669921875,0.004171364475041628,0.0003147353418171406,-0.0005085483426228166
1772702118363136800,2.76713671875,0.001998491119593382,-0.0014922195114195347,-0.0011085584992542863
1772702118373185500,2.777185546875,-0.0031305188313126564,-0.00031442055478692055,0.00008224541670642793
1772702118383235600,2.787235595703125,0.00044930248986929655,-0.0027493489906191826,-0.00021602862398140132
1772702118393285600,2.79728564453125,0.0017203028546646237,-0.000119062140583992,0.001890147919766605
1772702118403334700,2.807334716796875,-0.0029287775978446007,-0.0018208217807114124,-0.0017458657966926694
1772702118413384700,2.817384765625,-0.0007005365332588553,0.00033244630321860313,0.0005701203481294215
1772702118423433700,2.827433837890625,0.000329574104398489,0.0016142255626618862,0.0009608060936443508
1772702118433483500,2.8374833984375,0.00029624917078763247,-0.0022805752232670784,-0.0021967405918985605
1772702118443532800,2.84753271484375,0.000690663349814713,0.00011067697778344154,-0.0014933997299522161
1772702118453582800,2.857582763671875,0.00032049353467300534,-0.00011707469820976257,-0.0021108132787048817
1772702118463632600,2.867632568359375,0.00024299556389451027,-0.0014819446951150894,0.0008543501608073711
1772702118473681700,2.877681640625,0.0009279579389840364,-0.0008740532211959362,-0.0006066809874027967
1772702118483731700,2.887731689453125,-0.0018723559333011508,0.00021624471992254257,0.0017744513461366296
1772702118493780700,2.89778076171875,-0.00097812304738909,0.0003067594952881336,0.0020431815646588802
1772702118503830800,2.907830810546875,-0.0007541511440649629,-0.000035989098250865936,0.0010586108546704054
1772702118513879800,2.9178798828125,-0.00009250000584870577,-0.0006726784631609917,0.001350736478343606
1772702118523929300,2.927929443359375,-0.001893063192255795,0.00010203476995229721,0.0015339618548750877
1772702118533979100,2.937979248046875,0.00033319968497380614,0.0019006063230335712,0.0003576202434487641
1772702118544028200,2.948028076171875,0.0009981909533962607,-0.00008451426401734352,-0.0002431888715364039
1772702118554078500,2.958078369140625,0.0006659210775978863,0.0013699950650334358,0.0019427880179136992
1772702118564127200,2.968127197265625,-0.0022084286902099848,0.0008914247155189514,0.00009988062083721161
1772702118574177300,2.97817724609375,0.0006277497741393745,-0.0027348119765520096,-0.0008671714458614588
1772702118584227300,2.988227294921875,-0.0005624169716611505,0.00023168325424194336,-0.00005570630310103297
1772702118594276000,2.998276123046875,0.0005324501544237137,-0.00013080844655632973,0.0019206157885491848
1772702118604326100,3.008326171875,0.0006304544513113797,-0.0010788938961923122,-0.0008948781178332865
1772702118614375400,3.01837548828125,0.0016394839622080326,0.0008545201271772385,0.0017234585247933865
1772702118624425200,3.02842529296875,-0.0005829238798469305,0.0028825169429183006,0.0016086765099316835
1772702118634474200,3.03847412109375,-0.00012376322411000729,-0.002506820484995842,0.00013795297127217054
1772702118644524300,3.048524169921875,0.0024166260845959187,-0.0024407743476331234,0.0009419613052159548
1772702118654574000,3.058573974609375,0.000627207278739661,0.00033544935286045074,-0.002108037704601884
1772702118664623400,3.068623291015625,0.0010397309670224786,0.0002534240484237671,0.004363976418972015
1772702118674673400,3.07867333984375,-0.0012177306925877929,-0.0011250176467001438,0.0017495728097856045
1772702118684722200,3.08872216796875,0.003907256294041872,-0.0002967747859656811,-0.0004398118471726775
1772702118694772200,3.098772216796875,0.00088692014105618,-0.001803616527467966,0.002879512496292591
1772702118704821200,3.1088212890625,-0.0022319077979773283,0.00218819547444582,-0.0018489300273358822
1772702118714871300,3.118871337890625,-0.0007409194950014353,-0.00023964373394846916,-0.0028976527974009514
1772702118724921300,3.12892138671875,0.0017190424259752035,-0.0007986412383615971,0.0014936333755031228
1772702118734970400,3.138970458984375,0.0010117801139131188,-0.00047770747914910316,0.0013108376879245043
1772702118745020200,3.149020263671875,-0.0008090230403468013,-0.0006231158040463924,-0.000210093567147851
1772702118755069200,3.159069091796875,0.002610798692330718,-0.0006132354028522968,0.0028775969985872507
1772702118765119200,3.169119140625,0.0014584488235414028,-0.0037991751451045275,0.0018674602033570409
1772702118775168300,3.179168212890625,-0.0008657289436087012,0.001496290322393179,0.0005963030853308737
1772702118785218300,3.18921826171875,0.000956139643676579,-0.0014779274351894855,0.0017758170142769814
1772702118795268400,3.199268310546875,0.0037299038376659155,-0.0005524256266653538,-0.0011680636089295149
1772702118805317000,3.209317138671875,0.0014419821090996265,-0.0002933000214397907,0.001908153761178255
1772702118815367200,3.2193671875,0.0011198167921975255,-0.0011009317822754383,-0.0010118652135133743
1772702118825416400,3.22941650390625,0.0009128891979344189,0.00038724252954125404,-0.0008416891214437783
1772702118835466200,3.23946630859375,-0.00028075126465409994,0.00022064009681344032,-0.003868046449497342
1772702118845516300,3.249516357421875,0.0020026429556310177,-0.0013522226363420486,0.0020132786594331264
1772702118855565300,3.2595654296875,-0.0015109595842659473,0.00201492290943861,-0.0030970920342952013
1772702118865615400,3.269615478515625,0.0005093144136480987,0.00036402884870767593,0.0016031208215281367
1772702118875664100,3.2796640625,0.000553279067389667,-0.0008656084537506104,-0.0003703278489410877
1772702118885714200,3.289714111328125,0.000731977226678282,0.001097939908504486,0.0006110470276325941
1772702118895763200,3.29976318359375,-0.00003809039480984211,-0.00042484886944293976,-0.0001736304839141667
1772702118905813200,3.309813232421875,0.0012721848906949162,-0.0018256716430187225,-0.00015312415780499578
1772702118915863300,3.31986328125,-0.00015619455371052027,-0.00041102152317762375,0.004344974644482136
1772702118925912000,3.329912109375,0.0030894000083208084,-0.002217976376414299,-0.0011379416100680828
1772702118935962000,3.339962158203125,-0.0023371451534330845,0.0013641496188938618,-0.00014171958900988102
1772702118946011400,3.350011474609375,-0.0028343573212623596,-0.0017128665931522846,-0.0005798096535727382
1772702118956061400,3.3600615234375,0.0022695723455399275,0.001224699430167675,-0.0024780239909887314
1772702118966110200,3.370110107421875,0.0009193497244268656,-0.0007460396736860275,-0.0006708027794957161
1772702118976160300,3.38016015625,0.000174454296939075,0.0017075566574931145,0.0009681103401817381
1772702118986210300,3.390210205078125,0.0005534220836125314,-0.0004141833633184433,0.00022775158868171275
1772702118996259300,3.40025927734375,0.0006965639186091721,-0.0010762042365968227,-0.00020832530572079122
1772702119006309400,3.410309326171875,0.0025937999598681927,-0.002342271152883768,-0.0019833222031593323
1772702119016358100,3.420358154296875,-0.002039338229224086,-0.00023759808391332626,-0.0015510257799178362
1772702119026408200,3.430408203125,0.0005199596052989364,0.0034934901632368565,0.00025779311545193195
1772702119036457200,3.440457275390625,-0.0009379171533510089,0.0030857697129249573,0.0027454139199107885
1772702119046507300,3.45050732421875,-0.0005256598815321922,-0.0016887453384697437,-0.0008136346586979926
1772702119056557000,3.46055712890625,0.0008861037204042077,0.00023941835388541222,0.004614647012203932
1772702119066606300,3.4706064453125,0.0006131297559477389,0.0022908514365553856,0.0014457518700510263
1772702119076656400,3.480656494140625,-0.00037135533057153225,-0.002401809673756361,0.0007047681137919426
1772702119086705200,3.490705078125,0.0007125511765480042,0.0007519060745835304,0.0005894532660022378
1772702119096755200,3.500755126953125,-0.0013872813433408737,-0.000036397017538547516,0.0009943860350176692
1772702119106804200,3.51080419921875,-0.00004158611409366131,-0.0005660997703671455,0.0003637495101429522
1772702119116854300,3.520854248046875,-0.00013658241368830204,0.0009147860109806061,0.001982735702767968
1772702119126904300,3.530904296875,-0.0012665616814047098,0.00014646397903561592,0.001720680738799274
1772702119136953300,3.540953369140625,0.0002474605571478605,0.00042762281373143196,-0.0013381724711507559
1772702119147003100,3.551003173828125,-0.00015733984764665365,0.0017381641082465649,0.0004935497418045998
1772702119157052200,3.56105224609375,-0.00029221223667263985,-0.0005037174560129642,-0.0017716378206387162
1772702119167102500,3.5711025390625,-0.0022155470214784145,0.0002065477892756462,-0.003419335465878248
1772702119177151200,3.581151123046875,0.0007507639820687473,-0.0018587973900139332,-0.0004302724846638739
1772702119187201300,3.591201171875,-0.0016194494673982263,0.0008014347404241562,-0.0011069817701354623
1772702119197251300,3.601251220703125,0.0005931156920269132,0.00026707258075475693,0.0009473513928242028
1772702119207300000,3.611300048828125,-0.0013118433998897672,0.0017677643336355686,-0.0018345867283642292
1772702119217350100,3.62135009765625,0.0002506682649254799,0.00010849488899111748,-0.0010119759244844317
1772702119227399400,3.6313994140625,-0.0018297932110726833,-0.0005136197432875633,-0.00013872544514015317
1772702119237449200,3.64144921875,0.0005864179693162441,0.0005842787213623524,0.0020329710096120834
1772702119247499300,3.651499267578125,-0.0019675535149872303,0.0014471434988081455,0.00042388905421830714
1772702119257548300,3.66154833984375,-0.00043947878293693066,-0.001545690931379795,0.0029930616728961468
1772702119267598000,3.67159814453125,-0.0015239178901538253,-0.001536369789391756,-0.002055226592347026
1772702119277647400,3.6816474609375,0.0017132731154561043,-0.0013212044723331928,-0.0009942022152245045
1772702119287697400,3.691697509765625,-0.0035113163758069277,0.0011110599152743816,-0.00044772145338356495
1772702119297746200,3.70174609375,0.0005740172346122563,0.00039855949580669403,-0.0025537118781358004
1772702119307796200,3.711796142578125,0.0006272804457694292,-0.0021599396131932735,-0.00037205038825049996
1772702119317846300,3.72184619140625,0.0024727261625230312,-0.0001283334568142891,0.0026181091088801622
1772702119327895000,3.73189501953125,0.0027209327090531588,-0.0006489814259111881,-0.00002427934668958187
1772702119337945300,3.7419453125,-0.0005167961353436112,2.682209014892578e-7,-0.002404150553047657
1772702119347994400,3.751994384765625,-0.00018816208466887474,0.0004679192788898945,0.0006696700002066791
1772702119358044200,3.762044189453125,0.003705668728798628,-0.0003704172559082508,-0.0017108051106333733
1772702119368093200,3.77209326171875,0.0013447763631120324,-0.0003917226567864418,-0.001421053078956902
1772702119378143200,3.782143310546875,0.0002835300983861089,-0.00005773548036813736,0.00009511553798802197
1772702119388193000,3.792193115234375,0.0016033927677199244,-0.0014218064025044441,-0.00007319625001400709
1772702119398242300,3.8022421875,-0.0014219428412616253,0.0015849005430936813,-0.00027697422774508595
1772702119408292400,3.812292236328125,-0.0005127395270392299,0.0018919622525572777,-0.00044635130325332284
1772702119418341000,3.822341064453125,-0.0016825712518766522,-0.0007454175502061844,0.00021860355627723038
1772702119428391200,3.83239111328125,-0.00007055990863591433,-0.002160354983061552,-0.00044052882003597915
1772702119438440400,3.8424404296875,-0.00014550099149346352,-0.000733695924282074,-0.0000299840176012367
1772702119448490200,3.852490234375,0.0012031237129122019,0.001058078370988369,-0.0019711621571332216
1772702119458540300,3.862540283203125,0.0035987074952572584,0.00008342089131474495,0.0013569652801379561
1772702119468589300,3.87258935546875,-0.000938786193728447,-0.0008966224268078804,0.002010504947975278
1772702119478639400,3.882639404296875,0.0001618934329599142,0.0001900545321404934,0.0035457832273095846
1772702119488688000,3.892688232421875,0.0016545952530577779,0.0007109688594937325,-0.0011381845688447356
1772702119498738200,3.90273828125,0.000424121564719826,-0.000435476191341877,0.00039807584835216403
1772702119508787200,3.912787109375,-0.000679492368362844,-0.00031909579411149025,0.0021019664127379656
1772702119518837200,3.922837158203125,0.002734360285103321,0.0023898454383015633,0.002040446037426591
1772702119528888300,3.932888427734375,0.0004600206157192588,-0.0011135428212583065,0.0034519212786108255
1772702119538937000,3.94293701171875,0.0009250640869140625,-0.002012423239648342,-0.00047388277016580105
1772702119548987100,3.952987060546875,0.00012371886987239122,-0.0019687474705278873,0.002557593397796154
1772702119559036200,3.9630361328125,-0.00031896913424134254,-0.000711372122168541,-0.0022758077830076218
1772702119569086000,3.9730859375,0.0004994202172383666,0.0009043673053383827,-0.0018763333791866899
1772702119579135200,3.98313525390625,0.002117206808179617,-0.000752811785787344,0.0012327802833169699
1772702119589185300,3.993185302734375,0.0007768379291519523,0.000044005922973155975,0.000419717252952978
1772702119599235000,4.003235107421875,-0.00011836527846753597,0.00045546097680926323,-0.0008414806798100471
1772702119609284000,4.0132841796875,-0.00029226974584162235,0.000575303565710783,-0.002186909783631563
1772702119619334100,4.023334228515625,0.0015715862391516566,-0.00016458425670862198,0.00013814243720844388
1772702119629383200,4.033383056640625,0.001400078646838665,0.0011936281807720661,-0.0015849226620048285
1772702119639433200,4.04343310546875,-0.00017979834228754044,-0.0020257318392395973,0.0008256612345576286
1772702119649482200,4.053482177734375,0.0015129068633541465,-0.0005572647787630558,-0.003255366813391447
1772702119659532000,4.063531982421875,-0.0010923587251454592,-0.0005927202291786671,0.000006082147592678666
1772702119669582000,4.07358203125,-0.0019134113099426031,-0.0016715670935809612,0.0018577780574560165
1772702119679631400,4.08363134765625,0.0005786340334452689,0.0010923109948635101,0.0018609187100082636
1772702119689681200,4.09368115234375,0.0009136596927419305,-0.0014768405817449093,0.001972238766029477
1772702119699730200,4.103730224609375,0.0007560108206234872,0.0005358951166272163,-0.0019143985118716955
1772702119709780200,4.1137802734375,-0.00030872097704559565,-0.0006574676372110844,0.0012007011100649834
1772702119719829000,4.1238291015625,0.0022942889481782913,-0.0014476040378212929,0.002059413120150566
1772702119729879000,4.133879150390625,0.000371220288798213,-0.002703550737351179,0.00016484048683196306
1772702119739929000,4.14392919921875,-0.00012487778440117836,0.0012024412862956524,-0.0006630057469010353
1772702119749978000,4.15397802734375,0.0006730052991770208,0.0005105524323880672,0.0020219930447638035
1772702119760028200,4.164028076171875,-0.00011796283069998026,0.00033125001937150955,0.00030919461278244853
1772702119770077200,4.1740771484375,-0.00004206271842122078,0.0012018373236060143,-0.0016245265724137425
1772702119780127000,4.184126953125,-0.0023184181191027164,-0.0002379491925239563,-0.00011091132182627916
1772702119790176300,4.19417626953125,-0.0006661929655820131,-0.0016222605481743813,0.001972213387489319
1772702119800226300,4.204226318359375,0.001232421607710421,-0.00009876908734440804,0.0008737735915929079
1772702119810276400,4.2142763671875,-0.0003031570231541991,0.00017154216766357422,-0.0011361141223460436
1772702119820325000,4.2243251953125,-0.0021918611600995064,-0.001035863533616066,0.00009351465268991888
1772702119830375200,4.234375244140625,-0.0012887833872810006,-0.001017221249639988,0.0002881917171180248
1772702119840424000,4.244423828125,-0.004676366224884987,-0.0006576990708708763,-0.00048094423254951835
1772702119850474200,4.25447412109375,0.00006485939957201481,-0.0008308044634759426,-0.004048515111207962
1772702119860523300,4.264523193359375,-0.0010542209492996335,0.0013801385648548603,-0.0009423050796613097
1772702119870573300,4.2745732421875,-0.0008944313740357757,0.00011327257379889488,-0.0010464346269145608
1772702119880623000,4.284623046875,-0.0004682651488110423,-0.0004873783327639103,0.0006524393102154136
1772702119890672000,4.294672119140625,0.0008036605431698263,-0.0025396104902029037,-0.0025068686809390783
1772702119900722200,4.30472216796875,0.0011203441536054015,0.000016415026038885117,-0.0020204996690154076
1772702119910771200,4.314771240234375,-0.00005996879190206528,0.00003612274304032326,-0.0001347154611721635
1772702119920821200,4.3248212890625,-0.002155628288164735,-0.0007529524154961109,-0.0019484218209981918
1772702119930870000,4.3348701171875,-0.0007241793209686875,-0.0002669254317879677,0.004900695756077766
1772702119940920000,4.344920166015625,-0.0018134790007025003,-0.0021395054645836353,0.0007839123718440533
1772702119950970000,4.35497021484375,0.0013394374400377274,0.0014368537813425064,0.0019841990433633327
1772702119961019400,4.365019287109375,-0.00003170175477862358,-0.0034396848641335964,0.00003286171704530716
1772702119971069200,4.375069091796875,0.0007525990949943662,0.0023939688690006733,-0.0009330668253824115
1772702119981118200,4.3851181640625,-0.0005901607219129801,-0.0005104904994368553,-0.0005020886892452836
1772702119991168300,4.395168212890625,-0.0004724489990621805,0.0019601243548095226,0.0008992665680125356
1772702120001217000,4.405217041015625,-0.00038374331779778004,-0.0008564349263906479,-0.0004060349892824888
1772702120011267000,4.41526708984375,-0.000008503906428813934,-0.0020806901156902313,0.0028289067558944225
1772702120021317000,4.425317138671875,-0.002035197801887989,0.0020605637691915035,0.0030276994220912457
1772702120031366100,4.4353662109375,-0.0012988339876756072,0.0005300450138747692,0.0028095864690840244
1772702120041416200,4.445416259765625,0.0015046584885567427,-0.001667641568928957,-0.0020090690813958645
1772702120051465200,4.45546533203125,-0.0013646312290802598,0.0022543962113559246,0.0019119029166176915
1772702120061515000,4.465514892578125,0.005160282365977764,-0.0015616938471794128,0.0017690525855869055
1772702120071564300,4.475564208984375,-0.00039001181721687317,-0.00023623881861567497,0.0008792905136942863
1772702120081614300,4.4856142578125,-0.0007537469500675797,-0.000662035308778286,0.0029848399572074413
1772702120091664100,4.4956640625,-0.0006797111127525568,0.0009976471774280071,-0.0003289314336143434
1772702120101713200,4.505713134765625,0.0002500929404050112,-0.0006250501610338688,0.001120361383073032
1772702120111763200,4.51576318359375,-0.0003642983501777053,0.00009560119360685349,-0.0006849955534562469
1772702120121812200,4.525812255859375,-0.004558850079774857,-0.0015560388565063477,-0.0005195416742935777
1772702120131862300,4.5358623046875,0.00022578553762286901,-0.0012708143331110477,-0.0014180922880768776
1772702120141911300,4.545911376953125,0.0010758155258372426,-0.0006617228500545025,-0.00034318509278818965
1772702120151961000,4.555961181640625,-0.0004206147277727723,-0.00019460404291749,0.00037213994073681533
1772702120162011100,4.56601123046875,0.0003153167781420052,0.0016661379486322403,-0.0024412975180894136
1772702120172060200,4.57606005859375,0.0006838982808403671,-0.00143431406468153,-0.004394460003823042
1772702120182110000,4.58610986328125,-0.0009503569453954697,-0.001724975649267435,-0.0000791932106949389
1772702120192159200,4.5961591796875,0.0014704565983265638,-0.0009467997588217258,-0.0016153046162799
1772702120202209300,4.606209228515625,0.0015062695601955056,0.0015840241685509682,0.0012714769691228867
1772702120212258000,4.616258056640625,-0.000598959275521338,0.0001720162108540535,0.000005942885763943195
1772702120222308000,4.62630810546875,-0.00023001793306320906,0.001386295072734356,0.0011389272985979915
1772702120232358100,4.636358154296875,0.0006586789386346936,-0.0011021625250577927,0.0006550309481099248
1772702120242407200,4.6464072265625,-0.00022101507056504488,0.0010746987536549568,-0.0017285135108977556
1772702120252457200,4.656457275390625,0.002426167018711567,-0.0017112339846789837,-0.00016550428699702024
1772702120262506200,4.66650634765625,0.0011554793454706669,-0.0016230186447501183,0.001869185478426516
1772702120272556000,4.67655615234375,0.001539240824058652,0.00016795704141259193,0.002913677366450429
1772702120282605000,4.68660498046875,0.0013285184977576137,-0.00045904191210865974,-0.000920571677852422
1772702120292655000,4.696655029296875,0.00027870043413713574,-0.0010697050020098686,-0.0020409636199474335
1772702120302705200,4.706705078125,0.00016032415442168713,-0.0002797674387693405,0.0008420518133789301
1772702120312754200,4.716754150390625,0.0000015997793525457382,0.00004886649549007416,0.002818117383867502
1772702120322804200,4.72680419921875,0.0011475023347884417,-0.0011420701630413532,-0.000054897216614335775
1772702120332853000,4.73685302734375,0.001460956409573555,-0.002776185516268015,-0.0021787681616842747
1772702120342903000,4.746903076171875,-0.0006546395597979426,-0.000390809029340744,-0.0008275162545032799
1772702120352952300,4.756952392578125,0.00026068888837471604,-0.00035059545189142227,-0.0022246106527745724
1772702120363002000,4.767002197265625,0.0007748280186206102,0.001632987055927515,0.00028090178966522217
1772702120373052200,4.77705224609375,-0.00037246174179017544,-0.0011630654335021973,-0.001111665042117238
1772702120383101200,4.78710107421875,-0.0017614649841561913,0.000038189347833395004,0.0001678711560089141
1772702120393151200,4.797151123046875,0.0003163333749398589,-0.002359987236559391,0.0023420758079737425
1772702120403200300,4.8072001953125,0.000182448944542557,-0.002382752951234579,0.0016391242388635874
1772702120413250300,4.817250244140625,0.0014594346284866333,-0.0022823517210781574,-0.0021899687126278877
1772702120423299000,4.827299072265625,-0.0003509591333568096,-0.00010651815682649612,0.001290886546485126
1772702120433349000,4.83734912109375,-0.0004023581277579069,0.0006969575770199299,-0.0009083518525585532
1772702120443399200,4.847399169921875,0.0009343813289888203,-0.0009249178692698479,-0.00275051174685359
1772702120453448000,4.857447998046875,0.0018459813436493278,0.000990960281342268,0.0016684713773429394
1772702120463498200,4.867498291015625,-0.0024323025718331337,-0.00005459878593683243,-0.0014251488028094172
1772702120473547300,4.87754736328125,-0.00044079055078327656,-0.0017198733985424042,-0.0013899951009079814
1772702120483597300,4.887597412109375,0.0024152908008545637,-0.0025781900621950626,0.000655573676340282
1772702120493646000,4.89764599609375,0.0012147377710789442,0.0013222754932940006,-0.0003886517370119691
1772702120503696100,4.907696044921875,0.0011954382061958313,-0.0033940267749130726,-0.0004296009137760848
1772702120513746200,4.91774609375,0.0010662749409675598,0.0003458508290350437,-0.0030275145545601845
1772702120523794200,4.927794189453125,-0.001967586809769273,0.00033847102895379066,0.0006664413958787918
1772702120533844200,4.93784423828125,0.00028038740856572986,-0.001696983352303505,-0.00046140735503286123
1772702120543893200,4.947893310546875,0.0011877201031893492,-0.0013739420101046562,0.0021588527597486973
1772702120553943300,4.957943359375,0.0014684172347187996,-0.0023182989098131657,-0.003629794344305992
1772702120563992300,4.967992431640625,0.0014541861601173878,-0.0030944240279495716,-0.0009743869304656982
1772702120574042400,4.97804248046875,-0.000007356749847531319,-0.0005343272350728512,0.00012070490629412234
1772702120584092400,4.988092529296875,-0.0019727915059775114,-0.0012921025045216084,-0.0008559065172448754
1772702120594141200,4.99814111328125,-0.000748802674934268,-0.0026111663319170475,-0.000979743548668921
1772702120604191200,5.008191162109375,-0.0008216591086238623,0.00007895054295659065,-0.0007097434718161821
1772702120614240500,5.018240478515625,-0.0009532192489132285,-0.0001253136433660984,-0.0015150833642110229
1772702120624290300,5.028290283203125,0.0013265941524878144,0.00022688275203108788,-0.0017340683843940496
1772702120634339300,5.03833935546875,-0.0009789044270291924,0.0002862713299691677,0.00002095481613650918
1772702120644389400,5.048389404296875,0.001320895622484386,0.0006250250153243542,-0.00008852145401760936
1772702120654438100,5.058438232421875,-0.0007039057090878487,0.0009480663575232029,0.001688605872914195
1772702120664488200,5.06848828125,-0.001364588737487793,0.003407381009310484,-0.0015338212251663208
1772702120674538500,5.07853857421875,-0.0008452723268419504,0.000741823110729456,-0.001880032243207097
1772702120684587300,5.088587158203125,-0.0004962848033756018,0.0013862289488315582,0.0014239719603210688
1772702120694637300,5.09863720703125,-0.0011253233533352613,0.0007843542844057083,0.000978425145149231
1772702120704686300,5.108686279296875,-0.0006481204181909561,0.0008121193386614323,-0.001591044943779707
1772702120714736000,5.118736083984375,0.0008491086773574352,-0.002761043608188629,-0.0001420190674252808
1772702120724785400,5.128785400390625,-0.0010327944764867425,0.001851517241448164,0.0007650053594261408
1772702120734835500,5.13883544921875,0.000774959335103631,-0.0010926071554422379,0.0011692731641232967
1772702120744885200,5.14888525390625,-0.001851649023592472,0.000702789518982172,-0.0013568889116868377
1772702120754934300,5.158934326171875,-0.00010434899013489485,-0.002758520655333996,-0.0012772604823112488
1772702120764984300,5.168984375,-0.00004969700239598751,-0.0014530476182699203,0.000325089757097885
1772702120775033300,5.179033447265625,-0.00010189495515078306,0.0008274177089333534,-0.00022432036348618567
1772702120785083400,5.18908349609375,0.0009251598967239261,-0.0010966528207063675,-0.0011096308007836342
1772702120795132400,5.19913232421875,-0.0005760639905929565,-0.0002953074872493744,-0.000496038468554616
1772702120805182200,5.20918212890625,0.00008526851888746023,0.001845068298280239,-0.002296576974913478
1772702120815232300,5.219232177734375,0.0012762341648340225,-0.0020042643882334232,-0.0005380917573347688
1772702120825281300,5.22928125,0.00173095497302711,-0.0032926606945693493,0.0027235541492700577
1772702120835331300,5.239331298828125,-0.0004243411822244525,0.0004847669042646885,0.0008662655018270016
1772702120845380400,5.24938037109375,0.0014919822569936514,-0.0002190927043557167,0.001101408270187676
1772702120855430400,5.259430419921875,0.0017740109469741583,0.0002504228614270687,-0.0012152754934504628
1772702120865479200,5.269479248046875,-0.00031088327523320913,0.0004283958114683628,0.0018532051471993327
1772702120875529200,5.279529296875,0.0009067140053957701,-0.0018653851002454758,0.0017938165692612529
1772702120885579300,5.289579345703125,-0.0004368559457361698,0.003161981701850891,-0.0027499552816152573
1772702120895628300,5.299628173828125,0.0005754115409217775,-0.0012719156220555305,-0.00047401778283528984
1772702120905678300,5.30967822265625,0.0017037824727594852,0.00037303613498806953,0.0019105251412838697
1772702120915727400,5.319727294921875,0.00016207859152927995,-0.00019102171063423157,0.0008961271960288286
1772702120925777200,5.329777099609375,0.00008030363824218512,0.00027400581166148186,0.001790184760466218
1772702120935826200,5.339826171875,-0.003537866985425353,-0.0019832896068692207,0.00026818813057616353
1772702120945876500,5.34987646484375,-0.0007755327969789505,0.0019046985544264317,-0.0002899393148254603
1772702120955925200,5.35992529296875,0.0007656385423615575,-0.0014535472728312016,-0.0008417463395744562
1772702120965975300,5.369975341796875,0.002523126546293497,-0.001412323210388422,0.0007610524189658463
1772702120976024300,5.3800244140625,0.0006541200564242899,-0.0006828834302723408,-0.00048717117169871926
1772702120986074000,5.39007421875,-0.0007580640958622098,-0.00016002915799617767,-0.0010650067124515772
1772702120996124200,5.400124267578125,0.001398563850671053,0.0000463658943772316,0.000631693284958601
1772702121006173400,5.41017333984375,0.00012186204548925161,-0.001526733860373497,-0.0009616600582376122
1772702121016223200,5.42022314453125,-0.00011702347546815872,-0.0002444218844175339,-0.0007209102623164654
1772702121026272300,5.430272216796875,-0.0005191554082557559,0.00034611765295267105,-0.00030427222372964025
1772702121036322300,5.440322265625,0.001470758579671383,0.0020095286890864372,-0.001597503200173378
1772702121046371300,5.450371337890625,0.002537911292165518,-0.0006924397312104702,-0.000387120817322284
1772702121056421400,5.46042138671875,-0.0002999532734975219,0.0013099913485348225,-0.0016979286447167397
1772702121066471400,5.470471435546875,0.00034252344630658627,-0.0006559663452208042,-0.0015784983988851309
1772702121076520200,5.480520263671875,-0.0012545741628855467,-0.0019491976127028465,0.001848457264713943
1772702121086570200,5.4905703125,0.000560491462238133,-0.00017540203407406807,-0.000018478429410606623
1772702121096619300,5.500619384765625,-0.0021165180951356888,-0.0004363921470940113,-0.00010263433796353638
1772702121106669300,5.51066943359375,0.0011745054507628083,0.0010064742527902126,0.0006030037184245884
1772702121116718300,5.52071826171875,0.001587295439094305,-0.00013176072388887405,0.000010450399713590741
1772702121126768400,5.530768310546875,-0.000054192845709621906,-0.00023098476231098175,-0.0020112385973334312
1772702121136818400,5.540818359375,0.0012654034653678536,0.0007898048497736454,0.00029532521148212254
1772702121146867200,5.5508671875,0.0011511744232848287,0.0006333370693027973,-0.0005671828403137624
1772702121156917200,5.560917236328125,-0.0019343640888109803,-0.001159503124654293,-0.00009100965689867735
1772702121166966300,5.57096630859375,-0.0011966797756031156,-0.0011675655841827393,-0.0009692740277387202
1772702121177016300,5.581016357421875,-0.00008694047573953867,-0.000035455916076898575,-0.0019434583373367786
1772702121187065300,5.5910654296875,-0.001036601490341127,-0.0007481384091079235,0.0017385808750987053
1772702121197115100,5.601115234375,0.001706720795482397,0.0008564158342778683,0.0007486839313060045
1772702121207164200,5.6111640625,-0.0012006578035652637,-0.0006313249468803406,0.0013052092399448156
1772702121217214500,5.62121435546875,0.00034077989403158426,-0.00008724117651581764,-0.0006303761620074511
1772702121227264500,5.631264404296875,0.0018388390308246017,-0.0010142638348042965,-0.0014715720899403095
1772702121237313300,5.641313232421875,0.0007930157007649541,0.0014302516356110573,6.233167368918657e-7
1772702121247363300,5.65136328125,0.000520401110406965,-0.0010414733551442623,0.0005611354717984796
1772702121257412000,5.661412109375,0.0009731384925544262,-0.001193806529045105,-0.001071382313966751
1772702121267462100,5.671462158203125,-0.0009795763762667775,-0.0005708001554012299,0.0003290758759249002
1772702121277511400,5.681511474609375,0.001306481077335775,-0.0022459281608462334,-0.0008533676154911518
1772702121287561200,5.691561279296875,-0.0015699292998760939,-0.00012904172763228416,-0.0014752654824405909
1772702121297611300,5.701611328125,0.0011899046367034316,-0.0001905611716210842,0.0026286658830940723
1772702121307660300,5.711660400390625,0.00022211618488654494,-0.002035819925367832,-0.0010147334542125463
1772702121317710300,5.72171044921875,-0.00011743686627596617,-0.0008901283144950867,-0.00032896947232075036
1772702121327759400,5.73175927734375,0.0005837590433657169,0.000364773441106081,-0.0005777274491265416
1772702121337809400,5.741809326171875,0.0009384921286255121,0.00038261665031313896,0.0015994067071005702
1772702121347859500,5.751859375,0.00007640221156179905,0.0002635740675032139,0.0012828386388719082
1772702121357908200,5.761908203125,-0.000974214868620038,-0.00164085254073143,0.0005161146400496364
1772702121367958300,5.771958251953125,-0.0004670164780691266,0.0023308368399739265,0.0008979040430858731
1772702121378007300,5.78200732421875,0.0006563048809766769,0.0008623693138360977,-0.001691221259534359
1772702121388057300,5.792057373046875,0.000605739769525826,0.0021798312664031982,-0.0009036049013957381
1772702121398106400,5.8021064453125,-0.0005974763771519065,-0.0012351400218904018,0.0009161331108771265
1772702121408156400,5.812156494140625,0.002744101919233799,-0.0004988415166735649,-0.00027963274624198675
1772702121418206200,5.822206298828125,0.0011920115211978555,0.001381882932037115,-0.0016937712207436562
1772702121428255200,5.832255126953125,0.002596720587462187,-0.0023831063881516457,0.0006359287071973085
1772702121438305300,5.84230517578125,-0.0030044401064515114,0.00007525784894824028,0.000312887248583138
1772702121448354300,5.852354248046875,0.000045189750380814075,0.001411612145602703,-0.0030680522322654724
1772702121458404400,5.862404296875,0.0005943335709162056,-0.0008209161460399628,0.0020457496866583824
1772702121468453400,5.872453369140625,-0.001007357961498201,0.00027105165645480156,0.00036927295150235295
1772702121478503200,5.882503173828125,0.0018049401696771383,-0.0026158150285482407,0.0002270601544296369
1772702121488553200,5.89255322265625,0.0005864857812412083,-0.0006095916032791138,0.0015769015299156308
1772702121498602500,5.9026025390625,-0.000440961797721684,-0.0009283716790378094,-0.00030249118572100997
1772702121508652300,5.91265234375,-0.0016948088305070996,-0.0008602994494140148,-0.00045711133861914277
1772702121518701300,5.922701416015625,-0.0004098335048183799,-0.0019553913734853268,0.0002454305358696729
1772702121528752000,5.932752197265625,0.0016669353935867548,-0.0010503274388611317,0.0012066940544173121
1772702121538801000,5.94280078125,0.0008994123782031238,0.0005459710955619812,-0.0004034531011711806
1772702121548851000,5.952850830078125,-0.00007180881220847368,0.0015344652347266674,-0.000454663357231766
1772702121558901000,5.96290087890625,0.001590536325238645,-0.003364951815456152,-0.00025465997168794274
1772702121568950000,5.972949951171875,-0.001465965062379837,-0.0006799367256462574,0.0007583464030176401
1772702121579000000,5.983,-0.001960247755050659,0.00043752556666731834,-0.0010856263106688857
1772702121589049000,5.993049072265625,-0.0011376524344086647,-0.0015682745724916458,0.004157242365181446
1772702121599099000,6.003098876953125,0.0001148320734500885,0.0003787623718380928,0.002168659819290042
1772702121609148000,6.01314794921875,-0.0004019305342808366,-0.0012562582269310951,-0.0010174349881708622
1772702121619198200,6.0231982421875,-0.0013050084235146642,-0.0037867939099669456,0.0007570291636511683
1772702121629247000,6.0332470703125,0.0040021720342338085,-0.0005261655896902084,0.000346941378666088
1772702121639297000,6.043297119140625,-0.0006788661703467369,-0.000905133318156004,0.00022443596390075982
1772702121649347000,6.05334716796875,1.748558133840561e-7,-0.0014753458090126514,-0.001619948074221611
1772702121659395800,6.063395751953125,-0.00023152015637606382,0.0006157686002552509,-0.0008324513910338283
1772702121669446000,6.07344580078125,0.0029857060872018337,-0.0006349580362439156,-0.000056620221585035324
1772702121679495200,6.0834951171875,-0.00014057871885597706,0.0011240597814321518,0.0011162359733134508
1772702121689545000,6.093544921875,-0.00036582164466381073,-0.0027037165127694607,-0.00004450831329450011
1772702121699594000,6.103593994140625,0.002566851209849119,-0.0010277889668941498,-0.0004431835259310901
1772702121709644000,6.11364404296875,0.0000046084169298410416,-0.0006478326395153999,0.0011341678909957409
1772702121719693800,6.12369384765625,-0.000653192400932312,-0.0006427722983062267,-0.0011151379439979792
1772702121729743000,6.1337431640625,-0.000006388057954609394,0.001148037612438202,0.00009652753942646086
1772702121739793200,6.143793212890625,-0.0010404933709651232,-0.002672267612069845,0.0016342366579920053
1772702121749842000,6.153842041015625,-0.0013656063238158822,0.0003511281684041023,-0.0008378032362088561
1772702121759892000,6.16389208984375,0.0005555981770157814,0.0004312889650464058,-0.0009549822425469756
1772702121769941000,6.17394091796875,-0.0009776268852874637,0.001172865740954876,0.0017428442370146513
1772702121779990800,6.18399072265625,-0.004589672200381756,-0.0015944247134029865,-0.001247352920472622
1772702121790041000,6.194041015625,-0.00028939079493284225,0.0006047100760042667,0.000016077363397926092
1772702121800090000,6.204090087890625,0.0011021108366549015,-0.0005013002082705498,0.0021567263174802065
1772702121810140000,6.214139892578125,0.0006380484555847943,0.0010783541947603226,-0.0018606079975143075
1772702121820189000,6.22418896484375,0.0023696357384324074,-0.00043511996045708656,0.0010893754661083221
1772702121830239000,6.234239013671875,0.0010290378704667091,-0.0022549438290297985,-0.0011004084954038262
1772702121840288000,6.2442880859375,-0.0005278460448607802,0.00023324787616729736,0.0007622063276357949
1772702121850338000,6.254338134765625,-0.0010813426924869418,-0.0026799868792295456,-0.0014687778893858194
1772702121860387000,6.264386962890625,-0.00022353860549628735,-0.0008245627395808697,0.00132567691616714
1772702121870436900,6.274436767578125,0.0018990726675838232,-0.00003404542803764343,0.0026284463237971067
1772702121880487000,6.28448681640625,0.0006215543835423887,0.00046050408855080605,-0.00020489076268859208
1772702121890536200,6.2945361328125,0.0007693078368902206,0.00018619932234287262,-0.0010435472941026092
1772702121900586000,6.3045859375,-0.0001111332094296813,-0.0007901154458522797,0.0009450350189581513
1772702121910635000,6.314635009765625,0.0011564535088837147,-0.0005806880071759224,-0.0004432105633895844
1772702121920685000,6.32468505859375,-0.0011541050625965,0.0010880492627620697,0.0007608045707456768
1772702121930733800,6.33473388671875,-0.0013005336513742805,0.0007693115621805191,-0.00023668809444643557
1772702121940783900,6.344783935546875,0.00022865331266075373,-0.0012288582511246204,0.001182510401122272
1772702121950834000,6.354833984375,-0.0012281611561775208,-0.0019480609335005283,-0.0008633187389932573
1772702121960883000,6.364883056640625,0.0012893248349428177,0.0008788849227130413,0.004132238682359457
1772702121970933000,6.37493310546875,-0.001977300737053156,0.002045833505690098,-0.0007653152570128441
1772702121980982000,6.38498193359375,-0.0025445539504289627,-0.0011920379474759102,0.0005276494775898755
1772702121991031800,6.39503173828125,0.0015165081713348627,0.000924570020288229,0.0020045849960297346
1772702122001081000,6.4050810546875,0.0001617581001482904,-0.0022078403271734715,0.00168766884598881
1772702122011131100,6.415131103515625,-0.0002861719112843275,-0.0009126816876232624,0.001322795171290636
1772702122021181200,6.42518115234375,-0.0009226673282682896,0.00007455190643668175,0.000005862035322934389
1772702122031230000,6.43522998046875,-0.0007377694128081203,0.0006339247338473797,0.0011914463248103857
1772702122041280000,6.445280029296875,-0.0003425563918426633,0.00016733910888433456,0.000026846042601391673
1772702122051329000,6.4553291015625,0.000009166309610009193,0.0003411616198718548,-0.0019035725854337215
1772702122061379000,6.465379150390625,0.00011462753172963858,-0.00009692832827568054,-0.0010380451567471027
1772702122071428000,6.475427978515625,-0.0010438989847898483,-0.00016143592074513435,0.0004437173483893275
1772702122081478000,6.485477783203125,-0.0014795921742916107,0.0004742611199617386,0.0008879326051101089
1772702122091528000,6.49552783203125,0.000575985643081367,-0.0028452742844820023,-0.001122127054259181
1772702122101577000,6.505576904296875,0.0010130103910341859,-0.0006004958413541317,-0.0018885846948251128
1772702122111627000,6.515626953125,-0.0012995583238080144,-0.0021064956672489643,-0.00003192093572579324
1772702122121676000,6.525676025390625,0.00011431396706029773,-0.0005783736705780029,-0.0015014531090855598
1772702122131726000,6.53572607421875,0.00010920263594016433,-0.0017703827470541,0.0019205112475901842
1772702122141774800,6.54577490234375,-0.001578708877786994,-0.0007847468368709087,0.0005915939691476524
1772702122151825000,6.555824951171875,-0.0026326924562454224,-0.0011948859319090843,0.0008087841561064124
1772702122161874200,6.565874267578125,-0.003710207063704729,-0.002344838809221983,0.00015444550081156194
1772702122171924200,6.57592431640625,0.0015037182020023465,-0.00009717606008052826,0.0021907156333327293
1772702122181974000,6.58597412109375,-0.0035011605359613895,0.00033585401251912117,0.00010572694009169936
1772702122192023000,6.59602294921875,-0.00047663378063589334,0.0009765541180968285,0.0004747220082208514
1772702122202073000,6.606072998046875,0.0020911861211061478,0.00044099241495132446,-0.00031756842508912086
1772702122212121900,6.616121826171875,0.00034177140332758427,0.0017944048158824444,-0.00039587332867085934
1772702122222172000,6.626171875,0.002349262125790119,0.0003770706243813038,-0.002171669155359268
1772702122232221000,6.636220947265625,-0.0002342192456126213,-0.001018031034618616,0.00030117511050775647
1772702122242271000,6.64627099609375,-0.0004970731679350138,-0.0013634427450597286,-0.0010453190188854933
1772702122252320000,6.656320068359375,-0.0010009307879954576,-0.0004392983391880989,0.0008661940228193998
1772702122262370000,6.6663701171875,0.0015098974108695984,0.0006637824699282646,-0.001597230089828372
1772702122272419800,6.676419921875,0.0009418372064828873,-0.0008962033316493034,-0.0011021678801625967
1772702122282469000,6.68646923828125,0.0006960274768061936,-0.000216564629226923,0.0007737627602182329
1772702122292519200,6.696519287109375,-0.000011728378012776375,-0.00105271115899086,0.0017175371758639812
1772702122302568000,6.70656787109375,-0.0016293323133140802,0.0008546449244022369,-0.0016162078827619553
1772702122312618000,6.716617919921875,-0.001661119400523603,0.008063205517828465,0.004903719760477543
1772702122322667000,6.7266669921875,0.00041907571721822023,-0.012611713260412216,-0.007045350968837738
1772702122332717000,6.736717041015625,-0.0005529571790248156,0.007741314359009266,0.002815668936818838
1772702122342767000,6.74676708984375,0.002201284049078822,-0.005978492554277182,-0.0036659324541687965
