time,seconds_elapsed,z,y,x
1772701977874892300,0.002892333984375,-0.5719146728515625,0.34912109375,0.7249603271484375
1772701977884941000,0.012941162109375,-0.576446533203125,0.327545166015625,0.7271881103515625
1772701977894991000,0.0229912109375,-0.5707244873046875,0.328704833984375,0.719146728515625
1772701977905040100,0.0330400390625,-0.5528411865234375,0.348907470703125,0.7173004150390625
1772701977915089200,0.043089111328125,-0.54022216796875,0.362640380859375,0.712432861328125
1772701977925138200,0.05313818359375,-0.5458526611328125,0.3660125732421875,0.712890625
1772701977935187200,0.063187255859375,-0.560333251953125,0.362060546875,0.7114105224609375
1772701977945236200,0.073236328125,-0.5788726806640625,0.360107421875,0.7113494873046875
1772701977955285000,0.083284912109375,-0.5844879150390625,0.3533477783203125,0.7132720947265625
1772701977965334300,0.093334228515625,-0.5910186767578125,0.3432464599609375,0.7201385498046875
1772701977975383000,0.103383056640625,-0.589691162109375,0.3383331298828125,0.7152557373046875
1772701977985432000,0.11343212890625,-0.5848846435546875,0.337371826171875,0.7144622802734375
1772701977995481000,0.123481201171875,-0.5776214599609375,0.3372344970703125,0.7147064208984375
1772701978005531100,0.13353125,-0.5648345947265625,0.3441314697265625,0.7166900634765625
1772701978015580200,0.143580078125,-0.555450439453125,0.349945068359375,0.719635009765625
1772701978025629000,0.15362890625,-0.555694580078125,0.3524932861328125,0.72576904296875
1772701978035678200,0.16367822265625,-0.5557861328125,0.336761474609375,0.7451629638671875
1772701978045727000,0.17372705078125,-0.56268310546875,0.3131561279296875,0.7723236083984375
1772701978055776000,0.18377587890625,-0.5706634521484375,0.30010986328125,0.7856292724609375
1772701978065825300,0.1938251953125,-0.557037353515625,0.2982940673828125,0.7794647216796875
1772701978075874000,0.2038740234375,-0.5498504638671875,0.30828857421875,0.7625885009765625
1772701978085923000,0.213923095703125,-0.54278564453125,0.3165435791015625,0.7509307861328125
1772701978095972000,0.22397216796875,-0.5255126953125,0.3107757568359375,0.747100830078125
1772701978106021000,0.234021240234375,-0.4959259033203125,0.304931640625,0.7308807373046875
1772701978116071200,0.2440712890625,-0.5114288330078125,0.3195037841796875,0.7046051025390625
1772701978126120200,0.2541201171875,-0.5687408447265625,0.3326568603515625,0.6991119384765625
1772701978136169200,0.264169189453125,-0.581573486328125,0.3208465576171875,0.71826171875
1772701978146218000,0.274218017578125,-0.531951904296875,0.28997802734375,0.7347564697265625
1772701978156267300,0.284267333984375,-0.4889984130859375,0.2510223388671875,0.749969482421875
1772701978166316000,0.29431591796875,-0.4777069091796875,0.22894287109375,0.7440643310546875
1772701978176365000,0.304364990234375,-0.4788665771484375,0.2478179931640625,0.7131195068359375
1772701978186414300,0.314414306640625,-0.4895782470703125,0.2901763916015625,0.7249603271484375
1772701978196463000,0.324463134765625,-0.4858856201171875,0.32562255859375,0.7458953857421875
1772701978206512000,0.33451220703125,-0.452484130859375,0.3676605224609375,0.77008056640625
1772701978216561200,0.34456103515625,-0.412994384765625,0.379791259765625,0.7668609619140625
1772701978226611200,0.354611083984375,-0.3910675048828125,0.3829498291015625,0.7780609130859375
1772701978236660200,0.36466015625,-0.380584716796875,0.4086456298828125,0.79803466796875
1772701978246709000,0.374708984375,-0.3903961181640625,0.4248504638671875,0.8364105224609375
1772701978256758300,0.38475830078125,-0.4105072021484375,0.4235076904296875,0.8741302490234375
1772701978266807000,0.39480712890625,-0.4359588623046875,0.4140167236328125,0.847503662109375
1772701978276856000,0.40485595703125,-0.4033660888671875,0.4117431640625,0.7929229736328125
1772701978286905000,0.414905029296875,-0.3189544677734375,0.3914947509765625,0.7392578125
1772701978296954000,0.4249541015625,-0.3480224609375,0.39361572265625,0.749176025390625
1772701978307003100,0.435003173828125,-0.385040283203125,0.4552764892578125,0.7743377685546875
1772701978317052200,0.44505224609375,-0.3784332275390625,0.514129638671875,0.76861572265625
1772701978327101200,0.45510107421875,-0.367401123046875,0.5496368408203125,0.777313232421875
1772701978337151000,0.46515087890625,-0.3423614501953125,0.55865478515625,0.7824554443359375
1772701978347200300,0.4752001953125,-0.30609130859375,0.536224365234375,0.7338409423828125
1772701978357249000,0.4852490234375,-0.265655517578125,0.517608642578125,0.65557861328125
1772701978367298000,0.495298095703125,-0.2431182861328125,0.4692230224609375,0.5784759521484375
1772701978377347300,0.505347412109375,-0.2090301513671875,0.401885986328125,0.5839385986328125
1772701978387396000,0.51539599609375,-0.18701171875,0.3618927001953125,0.60980224609375
1772701978397444900,0.52544482421875,-0.1956634521484375,0.3071136474609375,0.6641082763671875
1772701978407494100,0.535494140625,-0.2351226806640625,0.26983642578125,0.6527862548828125
1772701978417543000,0.54554296875,-0.279937744140625,0.2646331787109375,0.681915283203125
1772701978427592000,0.555592041015625,-0.35296630859375,0.2957763671875,0.6444091796875
1772701978437642000,0.56564208984375,-0.420257568359375,0.3025054931640625,0.622100830078125
1772701978447691000,0.57569091796875,-0.453643798828125,0.295440673828125,0.6216583251953125
1772701978457740000,0.585739990234375,-0.461883544921875,0.29736328125,0.6273193359375
1772701978467789000,0.5957890625,-0.4677886962890625,0.3186492919921875,0.655548095703125
1772701978477838000,0.605838134765625,-0.4860992431640625,0.3572845458984375,0.64105224609375
1772701978487886800,0.615886962890625,-0.5171051025390625,0.3423309326171875,0.635162353515625
1772701978497936100,0.62593603515625,-0.5620574951171875,0.3205108642578125,0.650482177734375
1772701978507985000,0.63598486328125,-0.5897979736328125,0.3782958984375,0.6670074462890625
1772701978518034000,0.646033935546875,-0.6090850830078125,0.4351654052734375,0.712860107421875
1772701978528083000,0.6560830078125,-0.642852783203125,0.4442291259765625,0.73358154296875
1772701978538132000,0.666132080078125,-0.708038330078125,0.4391326904296875,0.7448883056640625
1772701978548182000,0.67618212890625,-0.800384521484375,0.44134521484375,0.8032073974609375
1772701978558230800,0.686230712890625,-0.86639404296875,0.43109130859375,0.8513641357421875
1772701978568280000,0.696280029296875,-0.908294677734375,0.396026611328125,0.8690185546875
1772701978578328800,0.706328857421875,-0.9832763671875,0.352203369140625,0.916351318359375
1772701978588377900,0.7163779296875,-1.0542755126953125,0.3610076904296875,0.948974609375
1772701978598427100,0.72642724609375,-1.026885986328125,0.3715057373046875,1.010955810546875
1772701978608476000,0.736475830078125,-0.984710693359375,0.3878936767578125,1.1577606201171875
1772701978618525000,0.74652490234375,-1.04913330078125,0.4334259033203125,1.327484130859375
1772701978628574000,0.756573974609375,-1.095367431640625,0.49224853515625,1.50140380859375
1772701978638623000,0.766623046875,-1.1340484619140625,0.5496063232421875,1.6428985595703125
1772701978648671700,0.776671630859375,-1.2122802734375,0.6268157958984375,1.7644805908203125
1772701978658722000,0.78672216796875,-1.297821044921875,0.676177978515625,1.8533935546875
1772701978668771000,0.79677099609375,-1.3267059326171875,0.695068359375,1.9470977783203125
1772701978678819800,0.80681982421875,-1.328399658203125,0.715484619140625,2.0501708984375
1772701978688869000,0.816869140625,-1.335357666015625,0.7089385986328125,2.1299285888671875
1772701978698918000,0.82691796875,-1.3719482421875,0.6910552978515625,2.1302642822265625
1772701978708967000,0.836966796875,-1.3782806396484375,0.6641693115234375,2.0488128662109375
1772701978719016200,0.84701611328125,-1.30645751953125,0.6536712646484375,1.8712005615234375
1772701978729065000,0.85706494140625,-1.1511077880859375,0.658203125,1.6737518310546875
1772701978739114000,0.867114013671875,-0.9379730224609375,0.604034423828125,1.473663330078125
1772701978749163000,0.8771630859375,-0.73065185546875,0.5172576904296875,1.251373291015625
1772701978759213000,0.887213134765625,-0.473388671875,0.434417724609375,1.00152587890625
1772701978769262000,0.897261962890625,-0.217010498046875,0.349029541015625,0.7277679443359375
1772701978779310800,0.907310791015625,-0.03631591796875,0.2690277099609375,0.53436279296875
1772701978789360000,0.917360107421875,0.0504608154296875,0.177001953125,0.40185546875
1772701978799409000,0.927408935546875,0.1176605224609375,0.0765380859375,0.25872802734375
1772701978809458000,0.9374580078125,0.172149658203125,-0.0286102294921875,0.1557769775390625
1772701978819507000,0.9475068359375,0.21441650390625,-0.15338134765625,0.055755615234375
1772701978829556000,0.957555908203125,0.268951416015625,-0.2480621337890625,-0.0740814208984375
1772701978839604700,0.967604736328125,0.259063720703125,-0.2473907470703125,-0.1377410888671875
1772701978849654000,0.977654052734375,0.2389678955078125,-0.22216796875,-0.1344757080078125
1772701978859703000,0.987703125,0.244140625,-0.1839752197265625,-0.118133544921875
1772701978869752800,0.9977529296875,0.2527923583984375,-0.1389312744140625,-0.1134033203125
1772701978879802000,1.007802001953125,0.239471435546875,-0.124420166015625,-0.1362457275390625
1772701978889851000,1.017850830078125,0.2002410888671875,-0.1308135986328125,-0.15301513671875
1772701978899900000,1.02789990234375,0.1808319091796875,-0.1338958740234375,-0.1570892333984375
1772701978909949200,1.03794921875,0.19635009765625,-0.1475372314453125,-0.1682586669921875
1772701978919998000,1.047998046875,0.2387542724609375,-0.1324005126953125,-0.1560821533203125
1772701978930047000,1.058046875,0.2761077880859375,-0.0744781494140625,-0.1297149658203125
1772701978940096000,1.068095947265625,0.294525146484375,-0.0106201171875,-0.091461181640625
1772701978950145000,1.07814501953125,0.2135772705078125,0.0200653076171875,-0.0395050048828125
1772701978960193800,1.08819384765625,0.03131103515625,0.0205230712890625,0.0110626220703125
1772701978970243000,1.0982431640625,-0.0399322509765625,0.042083740234375,0.0577850341796875
1772701978980293000,1.108293212890625,-0.0165252685546875,0.080718994140625,0.11822509765625
1772701978990342000,1.118341796875,-0.0184478759765625,0.119964599609375,0.175994873046875
1772701979000391000,1.128390869140625,-0.0796051025390625,0.159942626953125,0.2421875
1772701979010440000,1.13843994140625,-0.186981201171875,0.2178192138671875,0.3740692138671875
1772701979020489000,1.148489013671875,-0.3294219970703125,0.2756500244140625,0.57061767578125
1772701979030538000,1.1585380859375,-0.5220184326171875,0.3731842041015625,0.8406524658203125
1772701979040587000,1.1685869140625,-0.76531982421875,0.531463623046875,1.1797943115234375
1772701979050636000,1.178635986328125,-0.999114990234375,0.70025634765625,1.5058135986328125
1772701979060684800,1.188684814453125,-1.126220703125,0.815521240234375,1.6912078857421875
1772701979070734000,1.198734130859375,-1.1909942626953125,0.8932342529296875,1.830780029296875
1772701979080782800,1.208782958984375,-1.31634521484375,1.07421875,2.0912933349609375
1772701979090833000,1.2188330078125,-1.5007476806640625,1.2655029296875,2.4076080322265625
1772701979100882200,1.228882080078125,-1.743194580078125,1.2785797119140625,2.563751220703125
1772701979110931000,1.238930908203125,-1.9333038330078125,1.1495361328125,2.4779052734375
1772701979120980000,1.24897998046875,-1.9908447265625,0.93878173828125,2.218170166015625
1772701979131029000,1.259029052734375,-1.788665771484375,0.6767425537109375,1.82196044921875
1772701979141078000,1.269078125,-1.4553680419921875,0.57135009765625,1.461456298828125
1772701979151126800,1.279126708984375,-1.1654052734375,0.464569091796875,1.1458892822265625
1772701979161176000,1.289176025390625,-0.988006591796875,0.297210693359375,0.8352203369140625
1772701979171225000,1.29922509765625,-0.897430419921875,0.1464385986328125,0.5759735107421875
1772701979181273900,1.30927392578125,-0.80780029296875,0.0388946533203125,0.3847503662109375
1772701979191324000,1.319323974609375,-0.6748809814453125,-0.0155487060546875,0.284881591796875
1772701979201373000,1.329373046875,-0.5030975341796875,-0.0211181640625,0.216796875
1772701979211422000,1.339421875,-0.3536376953125,0.0100250244140625,0.174072265625
1772701979221471000,1.349470947265625,-0.23480224609375,0.057952880859375,0.1643524169921875
1772701979231520000,1.35952001953125,-0.1489410400390625,0.0832977294921875,0.19097900390625
1772701979241569000,1.369569091796875,-0.047454833984375,0.064208984375,0.230255126953125
1772701979251617800,1.37961767578125,0.0611572265625,0.0629425048828125,0.2226715087890625
1772701979261667000,1.3896669921875,0.1312408447265625,0.093109130859375,0.2073974609375
1772701979271715800,1.3997158203125,0.155181884765625,0.1210174560546875,0.237640380859375
1772701979281764900,1.409764892578125,0.1586456298828125,0.1386871337890625,0.2885589599609375
1772701979291814000,1.41981396484375,0.154144287109375,0.122161865234375,0.348724365234375
1772701979301864000,1.429864013671875,0.0983734130859375,0.1098785400390625,0.397369384765625
1772701979311913000,1.439912841796875,-0.0057373046875,0.112884521484375,0.421539306640625
1772701979321962000,1.4499619140625,-0.0753173828125,0.1106719970703125,0.4379730224609375
1772701979332011000,1.460010986328125,-0.1415557861328125,0.0992584228515625,0.4740753173828125
1772701979342059800,1.470059814453125,-0.240631103515625,0.0918426513671875,0.534515380859375
1772701979352109000,1.480109130859375,-0.3939208984375,0.1049346923828125,0.62237548828125
1772701979362158000,1.490157958984375,-0.5596923828125,0.1485137939453125,0.7395477294921875
1772701979372206800,1.500206787109375,-0.732269287109375,0.2271881103515625,0.88348388671875
1772701979382256000,1.510256103515625,-0.911712646484375,0.3209991455078125,1.0403900146484375
1772701979392306000,1.520305908203125,-1.0075531005859375,0.4135589599609375,1.2150726318359375
1772701979402354700,1.530354736328125,-0.98455810546875,0.5032196044921875,1.2929229736328125
1772701979412403700,1.54040380859375,-0.88818359375,0.5650177001953125,1.313751220703125
1772701979422453800,1.550453857421875,-0.7510986328125,0.54779052734375,1.2062835693359375
1772701979432502800,1.560502685546875,-0.6400299072265625,0.4741363525390625,0.9625701904296875
1772701979442551800,1.5705517578125,-0.625579833984375,0.4131622314453125,0.7230072021484375
1772701979452600800,1.580600830078125,-0.6667327880859375,0.323333740234375,0.546417236328125
1772701979462649900,1.59064990234375,-0.6636505126953125,0.2477569580078125,0.457244873046875
1772701979472698600,1.60069873046875,-0.593658447265625,0.2029266357421875,0.442718505859375
1772701979482748000,1.610747802734375,-0.5109405517578125,0.181610107421875,0.444854736328125
1772701979492796700,1.620796630859375,-0.43975830078125,0.180511474609375,0.45721435546875
1772701979502845700,1.630845703125,-0.37091064453125,0.18017578125,0.484283447265625
1772701979512895000,1.64089501953125,-0.3204345703125,0.1821746826171875,0.5215606689453125
1772701979522943700,1.65094384765625,-0.2815399169921875,0.2000274658203125,0.5436553955078125
1772701979532993800,1.660993896484375,-0.2876129150390625,0.2501983642578125,0.5769805908203125
1772701979543042600,1.67104248046875,-0.3377838134765625,0.285064697265625,0.589813232421875
1772701979553091800,1.681091796875,-0.447845458984375,0.2889404296875,0.5911102294921875
1772701979563140900,1.691140869140625,-0.6864776611328125,0.2886962890625,0.651885986328125
1772701979573189600,1.701189697265625,-0.9344024658203125,0.296295166015625,0.661163330078125
1772701979583239000,1.711239013671875,-1.0946044921875,0.3343658447265625,0.6529693603515625
1772701979593287700,1.72128759765625,-1.184326171875,0.3831787109375,0.676727294921875
1772701979603336700,1.731336669921875,-1.2484130859375,0.4453125,0.7295074462890625
1772701979613385700,1.7413857421875,-1.3135528564453125,0.4971771240234375,0.8326568603515625
1772701979623434800,1.751434814453125,-1.44189453125,0.5049896240234375,0.9829559326171875
1772701979633484800,1.76148486328125,-1.692657470703125,0.5009765625,1.1460418701171875
1772701979643533800,1.771533935546875,-1.9385833740234375,0.4985504150390625,1.3220672607421875
1772701979653582800,1.781582763671875,-2.0503692626953125,0.52398681640625,1.5251922607421875
1772701979663631600,1.791631591796875,-1.95086669921875,0.5233154296875,1.5779571533203125
1772701979673681000,1.801680908203125,-1.7613067626953125,0.539398193359375,1.4880523681640625
1772701979683729700,1.811729736328125,-1.746551513671875,0.590728759765625,1.418853759765625
1772701979693778700,1.82177880859375,-1.9427642822265625,0.6009521484375,1.4502105712890625
1772701979703828000,1.831827880859375,-2.1479949951171875,0.6416015625,1.532745361328125
1772701979713876700,1.841876708984375,-2.254547119140625,0.7659454345703125,1.5528717041015625
1772701979723925800,1.85192578125,-2.2059326171875,0.8817596435546875,1.481781005859375
1772701979733974800,1.861974853515625,-1.9971466064453125,0.9240875244140625,1.3831329345703125
1772701979744023800,1.87202392578125,-1.640472412109375,0.91259765625,1.2904205322265625
1772701979754073900,1.882073974609375,-1.166534423828125,0.8201141357421875,1.1527557373046875
1772701979764122600,1.89212255859375,-0.6402587890625,0.6638641357421875,0.9610748291015625
1772701979774172000,1.902171875,-0.200775146484375,0.453948974609375,0.7194061279296875
1772701979784220700,1.912220703125,0.11627197265625,0.2337799072265625,0.4290618896484375
1772701979794269700,1.922269775390625,0.3409576416015625,0.08056640625,0.1870880126953125
1772701979804318700,1.932318603515625,0.43621826171875,-0.0554046630859375,0.0261993408203125
1772701979814367700,1.94236767578125,0.42828369140625,-0.1978912353515625,-0.082061767578125
1772701979824416500,1.95241650390625,0.457489013671875,-0.2762298583984375,-0.149932861328125
1772701979834465800,1.9624658203125,0.51055908203125,-0.2596588134765625,-0.1788787841796875
1772701979844514800,1.972514892578125,0.5970306396484375,-0.20556640625,-0.197235107421875
1772701979854563800,1.982563720703125,0.6535797119140625,-0.166748046875,-0.1772003173828125
1772701979864614000,1.99261376953125,0.7071685791015625,-0.146270751953125,-0.1335906982421875
1772701979874662700,2.00266259765625,0.7032318115234375,-0.136932373046875,-0.0829315185546875
1772701979884711700,2.012711669921875,0.593719482421875,-0.132568359375,-0.004791259765625
1772701979894761000,2.022760986328125,0.5014495849609375,-0.115081787109375,0.02655029296875
1772701979904809700,2.032809814453125,0.41510009765625,-0.08245849609375,-0.0002899169921875
1772701979914858800,2.042858642578125,0.3392486572265625,-0.0591278076171875,0.0037078857421875
1772701979924907800,2.05290771484375,0.2686614990234375,-0.05584716796875,0.0381317138671875
1772701979934956800,2.062956787109375,0.212005615234375,-0.06219482421875,0.0427093505859375
1772701979945005600,2.073005615234375,0.1646575927734375,-0.04095458984375,0.0406036376953125
1772701979955054800,2.083054931640625,0.109832763671875,-0.0108184814453125,0.027069091796875
1772701979965103900,2.093103759765625,0.053802490234375,-0.0070343017578125,0.0175933837890625
1772701979975153700,2.103153564453125,0.0264434814453125,0.00543212890625,0.0125579833984375
1772701979985202700,2.11320263671875,-0.013916015625,0.04119873046875,0.02337646484375
1772701979995251700,2.123251708984375,-0.0446624755859375,0.091583251953125,0.0699920654296875
1772701980005300700,2.13330078125,-0.13629150390625,0.1305999755859375,0.1785736083984375
1772701980015349800,2.143349853515625,-0.319580078125,0.2183074951171875,0.3689727783203125
1772701980025398800,2.153398681640625,-0.4611053466796875,0.35137939453125,0.519439697265625
1772701980035447800,2.16344775390625,-0.6200103759765625,0.4436187744140625,0.7348785400390625
1772701980045496600,2.17349658203125,-0.765777587890625,0.53216552734375,0.982666015625
1772701980055545900,2.1835458984375,-0.8760223388671875,0.6645355224609375,1.3016204833984375
1772701980065594600,2.1935947265625,-1.0745086669921875,0.81201171875,1.7191009521484375
1772701980075644000,2.203643798828125,-1.4409637451171875,1.0147857666015625,2.2421722412109375
1772701980085692700,2.213692626953125,-1.925262451171875,1.257354736328125,2.78472900390625
1772701980095742700,2.22374267578125,-2.2983856201171875,1.340850830078125,2.9722137451171875
1772701980105791700,2.233791748046875,-2.4315032958984375,1.0106964111328125,2.919921875
1772701980115840800,2.2438408203125,-2.0200347900390625,0.6475982666015625,2.7920379638671875
1772701980125889800,2.253889892578125,-1.4413299560546875,0.66094970703125,2.39410400390625
1772701980135938600,2.2639384765625,-1.06109619140625,0.6298980712890625,1.876617431640625
1772701980145987800,2.27398779296875,-0.787689208984375,0.50543212890625,1.5076904296875
1772701980156036900,2.284036865234375,-0.5478515625,0.29986572265625,1.168060302734375
1772701980166085600,2.294085693359375,-0.3948974609375,0.149749755859375,0.805267333984375
1772701980176135000,2.304135009765625,-0.319061279296875,0.0550689697265625,0.4306793212890625
1772701980186183700,2.31418359375,-0.323944091796875,-0.0318145751953125,0.17333984375
1772701980196232700,2.324232666015625,-0.3909912109375,-0.051910400390625,0.06817626953125
1772701980206282800,2.33428271484375,-0.4074859619140625,-0.05706787109375,0.041900634765625
1772701980216331800,2.344331787109375,-0.3150787353515625,-0.0830230712890625,-0.0134735107421875
1772701980226380800,2.354380859375,-0.21282958984375,-0.0469818115234375,-0.05364990234375
1772701980236429600,2.3644296875,-0.1973419189453125,-0.0081024169921875,-0.0052947998046875
1772701980246478800,2.374478759765625,-0.1776580810546875,0.0331573486328125,0.009246826171875
1772701980256527600,2.384527587890625,-0.1700286865234375,0.038360595703125,0.082611083984375
1772701980266576600,2.39457666015625,-0.131500244140625,0.0147705078125,0.191558837890625
1772701980276626000,2.4046259765625,-0.1118316650390625,0.0140380859375,0.30462646484375
1772701980286674700,2.4146748046875,-0.113983154296875,0.0774688720703125,0.3642120361328125
1772701980296724000,2.424723876953125,-0.142974853515625,0.168304443359375,0.37664794921875
1772701980306772700,2.434772705078125,-0.1878814697265625,0.21685791015625,0.4101715087890625
1772701980316822800,2.44482275390625,-0.2161865234375,0.2369842529296875,0.4490814208984375
1772701980326871800,2.454871826171875,-0.1974029541015625,0.2647705078125,0.44989013671875
1772701980336920800,2.4649208984375,-0.1921539306640625,0.3030242919921875,0.4634552001953125
1772701980346969900,2.474969970703125,-0.238525390625,0.345855712890625,0.5401763916015625
1772701980357018600,2.4850185546875,-0.3725738525390625,0.4079742431640625,0.7310943603515625
1772701980367068000,2.49506787109375,-0.5886383056640625,0.5242156982421875,1.0236968994140625
1772701980377116700,2.50511669921875,-0.7722320556640625,0.67254638671875,1.2235107421875
1772701980387165700,2.515165771484375,-0.889373779296875,0.7882843017578125,1.278350830078125
1772701980397214200,2.525214111328125,-0.93658447265625,0.8209075927734375,1.4248199462890625
1772701980407263000,2.535262939453125,-0.97802734375,0.695831298828125,1.4860382080078125
1772701980417312300,2.545312255859375,-0.8653106689453125,0.4775238037109375,1.3610992431640625
1772701980427362300,2.5553623046875,-0.6277618408203125,0.2834014892578125,1.162109375
1772701980437411000,2.5654111328125,-0.3685302734375,0.15789794921875,0.930572509765625
1772701980447460000,2.575460205078125,-0.2432861328125,0.1079254150390625,0.7933197021484375
1772701980457509000,2.585509033203125,-0.244873046875,0.1434783935546875,0.7059326171875
1772701980467558100,2.59555810546875,-0.3543853759765625,0.301239013671875,0.659698486328125
1772701980477607000,2.60560693359375,-0.5437164306640625,0.4333953857421875,0.58660888671875
1772701980487656200,2.61565625,-0.62957763671875,0.44488525390625,0.503387451171875
1772701980497705000,2.625705078125,-0.61859130859375,0.3921356201171875,0.4314727783203125
1772701980507754000,2.63575390625,-0.582061767578125,0.33123779296875,0.3794708251953125
1772701980517803300,2.64580322265625,-0.5509490966796875,0.2871856689453125,0.361419677734375
1772701980527852000,2.65585205078125,-0.5269927978515625,0.2949066162109375,0.4129791259765625
1772701980537902000,2.665902099609375,-0.46435546875,0.29083251953125,0.4257354736328125
1772701980547951000,2.675951171875,-0.3995361328125,0.2158966064453125,0.3413848876953125
1772701980558000000,2.686000244140625,-0.4171142578125,0.22747802734375,0.3582763671875
1772701980568049200,2.696049072265625,-0.454742431640625,0.280609130859375,0.3672027587890625
1772701980578098200,2.70609814453125,-0.553375244140625,0.35321044921875,0.4093017578125
1772701980588147200,2.716147216796875,-0.69281005859375,0.479095458984375,0.5613250732421875
1772701980598196000,2.726196044921875,-0.9432525634765625,0.626953125,0.7352142333984375
1772701980608245200,2.736245361328125,-1.2409820556640625,0.7704010009765625,0.88037109375
1772701980618294000,2.7462939453125,-1.3533477783203125,0.9049835205078125,0.949737548828125
1772701980628343000,2.756343017578125,-1.471527099609375,0.98040771484375,1.0584259033203125
1772701980638392000,2.76639208984375,-1.7435302734375,1.0129852294921875,1.2541351318359375
1772701980648442000,2.776442138671875,-2.0611419677734375,1.0859375,1.4341888427734375
1772701980658491100,2.7864912109375,-2.345550537109375,1.1615142822265625,1.7643585205078125
1772701980668540000,2.796539794921875,-2.612274169921875,1.273895263671875,2.04681396484375
1772701980678589200,2.806589111328125,-2.8114776611328125,1.4047393798828125,2.201416015625
1772701980688638000,2.816637939453125,-2.90374755859375,1.3702850341796875,2.3655548095703125
1772701980698687000,2.82668701171875,-2.8859100341796875,1.162261962890625,2.52935791015625
1772701980708736300,2.836736328125,-2.616302490234375,1.0002899169921875,2.293914794921875
1772701980718785000,2.846784912109375,-2.1352386474609375,0.8870086669921875,1.8141937255859375
1772701980728834000,2.856833984375,-1.6963653564453125,0.748992919921875,1.4476165771484375
1772701980738883000,2.866883056640625,-1.3354949951171875,0.646697998046875,1.154998779296875
1772701980748932000,2.87693212890625,-1.0128326416015625,0.4387359619140625,0.929840087890625
1772701980758982100,2.886982177734375,-0.677459716796875,0.203399658203125,0.736297607421875
1772701980769031200,2.89703125,-0.3060302734375,0.156494140625,0.515777587890625
1772701980779080200,2.907080078125,-0.0460205078125,0.114593505859375,0.385101318359375
1772701980789129000,2.91712890625,0.252288818359375,0.0710296630859375,0.280029296875
1772701980799178200,2.92717822265625,0.8325653076171875,0.0145416259765625,0.0090484619140625
1772701980809227000,2.93722705078125,1.159454345703125,-0.0587005615234375,-0.3204498291015625
1772701980819276000,2.947276123046875,1.0079193115234375,-0.1268463134765625,-0.4514923095703125
1772701980829325300,2.9573251953125,0.9125213623046875,-0.206756591796875,-0.3195343017578125
1772701980839374000,2.9673740234375,0.8325042724609375,-0.2800445556640625,-0.0976409912109375
1772701980849423000,2.977423095703125,0.748260498046875,-0.2762908935546875,-0.0594329833984375
1772701980859472100,2.98747216796875,0.6978912353515625,-0.2107086181640625,-0.01141357421875
1772701980869522200,2.997522216796875,0.6582794189453125,-0.1717071533203125,0.0191802978515625
1772701980879571200,3.0075712890625,0.605438232421875,-0.1776580810546875,0.0557403564453125
1772701980889620000,3.017619873046875,0.5159454345703125,-0.190704345703125,0.094085693359375
1772701980899669200,3.027669189453125,0.439208984375,-0.1586151123046875,0.0596466064453125
1772701980909718000,3.037718017578125,0.385467529296875,-0.1082916259765625,0.058258056640625
1772701980919767000,3.04776708984375,0.318695068359375,-0.087371826171875,0.10931396484375
1772701980929816000,3.057816162109375,0.2399444580078125,-0.0569915771484375,0.121978759765625
1772701980939865000,3.067864990234375,0.17620849609375,-0.05877685546875,0.1258392333984375
1772701980949913900,3.077913818359375,0.121734619140625,-0.0666961669921875,0.1402130126953125
1772701980959963100,3.087963134765625,0.0594482421875,-0.04583740234375,0.158111572265625
1772701980970012200,3.09801220703125,-0.0002288818359375,-0.023956298828125,0.1757049560546875
1772701980980062000,3.10806201171875,-0.0219268798828125,-0.0064697265625,0.1809844970703125
1772701980990111200,3.118111328125,-0.042022705078125,0.0172271728515625,0.1651458740234375
1772701981000160000,3.128159912109375,-0.0577545166015625,0.0302581787109375,0.1416015625
1772701981010209000,3.138208984375,-0.0569915771484375,0.0386962890625,0.1278839111328125
1772701981020258300,3.14825830078125,-0.0725555419921875,0.0747528076171875,0.12115478515625
1772701981030307000,3.15830712890625,-0.1178436279296875,0.121673583984375,0.1426239013671875
1772701981040356000,3.168356201171875,-0.2246551513671875,0.1732940673828125,0.19464111328125
1772701981050405000,3.178405029296875,-0.338470458984375,0.242218017578125,0.2536163330078125
1772701981060454100,3.1884541015625,-0.468475341796875,0.331207275390625,0.3684234619140625
1772701981070503000,3.1985029296875,-0.596923828125,0.42864990234375,0.5327606201171875
1772701981080552200,3.20855224609375,-0.69696044921875,0.549957275390625,0.6644439697265625
1772701981090602200,3.218602294921875,-0.8228607177734375,0.6864471435546875,0.829833984375
1772701981100651000,3.228651123046875,-1.041412353515625,0.7996368408203125,1.0142822265625
1772701981110700000,3.238699951171875,-1.4208831787109375,0.9210205078125,1.24847412109375
1772701981120749000,3.2487490234375,-2.002044677734375,1.1145172119140625,1.4882965087890625
1772701981130798000,3.258798095703125,-2.42919921875,1.18463134765625,1.6868133544921875
1772701981140847000,3.26884716796875,-2.70745849609375,1.1669464111328125,1.850921630859375
1772701981150896000,3.278896240234375,-2.8927001953125,1.1418304443359375,1.9846343994140625
1772701981160945200,3.288945068359375,-2.9948883056640625,1.008758544921875,1.9391632080078125
1772701981170994000,3.298993896484375,-2.694366455078125,0.774139404296875,1.7200775146484375
1772701981181043200,3.309043212890625,-2.266357421875,0.6253204345703125,1.4641265869140625
1772701981191092000,3.319092041015625,-1.954315185546875,0.5566864013671875,1.1884613037109375
1772701981201142000,3.32914208984375,-1.7173919677734375,0.5188751220703125,0.94049072265625
1772701981211191300,3.33919140625,-1.451019287109375,0.4567413330078125,0.7359466552734375
1772701981221240000,3.349239990234375,-1.1983184814453125,0.3441009521484375,0.464202880859375
1772701981231289000,3.3592890625,-0.982574462890625,0.18878173828125,0.29425048828125
1772701981241338000,3.369338134765625,-0.7590484619140625,0.0391693115234375,0.2507476806640625
1772701981251387100,3.37938720703125,-0.5697021484375,-0.044036865234375,0.218841552734375
1772701981261436000,3.389435791015625,-0.43780517578125,-0.0316009521484375,0.1953125
1772701981271485200,3.399485107421875,-0.3780059814453125,0.0111846923828125,0.1866912841796875
1772701981281534200,3.4095341796875,-0.3171539306640625,0.05224609375,0.1734161376953125
1772701981291583000,3.4195830078125,-0.2648468017578125,0.0589752197265625,0.1895599365234375
1772701981301632300,3.42963232421875,-0.28607177734375,0.0619659423828125,0.120147705078125
1772701981311682000,3.43968212890625,-0.2750396728515625,0.1290283203125,0.0340118408203125
1772701981321731000,3.44973095703125,-0.2185211181640625,0.163055419921875,0.0384979248046875
1772701981331780000,3.459780029296875,-0.1799468994140625,0.18060302734375,0.070404052734375
1772701981341829000,3.4698291015625,-0.15478515625,0.1816864013671875,0.1214141845703125
1772701981351878100,3.479878173828125,-0.1500244140625,0.1642913818359375,0.179107666015625
1772701981361927000,3.489927001953125,-0.177978515625,0.149139404296875,0.2161865234375
1772701981371976200,3.49997607421875,-0.2190704345703125,0.1470489501953125,0.240509033203125
1772701981382025000,3.51002490234375,-0.2191619873046875,0.206268310546875,0.264373779296875
1772701981392074200,3.52007421875,-0.2232208251953125,0.2826995849609375,0.3194122314453125
1772701981402123500,3.53012353515625,-0.2403411865234375,0.35076904296875,0.37896728515625
1772701981412172300,3.54017236328125,-0.3040771484375,0.42144775390625,0.4532623291015625
1772701981422222300,3.550222412109375,-0.398651123046875,0.4827423095703125,0.551300048828125
1772701981432271400,3.560271240234375,-0.4662628173828125,0.5266571044921875,0.650421142578125
1772701981442320400,3.5703203125,-0.4858856201171875,0.5284271240234375,0.77801513671875
1772701981452369400,3.580369384765625,-0.586883544921875,0.47027587890625,0.915985107421875
1772701981462418400,3.59041845703125,-0.79571533203125,0.3204193115234375,1.0123443603515625
1772701981472467500,3.600467529296875,-1.00823974609375,0.1737213134765625,1.0117340087890625
1772701981482516200,3.61051611328125,-1.070343017578125,0.1386260986328125,0.8786773681640625
1772701981492565500,3.6205654296875,-1.016876220703125,0.238800048828125,0.71307373046875
1772701981502614300,3.6306142578125,-0.9384765625,0.3701629638671875,0.6045684814453125
1772701981512663300,3.640663330078125,-0.896087646484375,0.3838348388671875,0.5661163330078125
1772701981522712300,3.65071240234375,-0.819305419921875,0.2783355712890625,0.6011962890625
1772701981532762400,3.660762451171875,-0.738372802734375,0.2210540771484375,0.6757049560546875
1772701981542811400,3.670811279296875,-0.6857757568359375,0.19549560546875,0.721466064453125
1772701981552860200,3.680860107421875,-0.6675262451171875,0.1543731689453125,0.71710205078125
1772701981562909400,3.690909423828125,-0.6378936767578125,0.12957763671875,0.700286865234375
1772701981572958200,3.700958251953125,-0.61279296875,0.112091064453125,0.6564788818359375
1772701981583007200,3.71100732421875,-0.6229400634765625,0.1001739501953125,0.609954833984375
1772701981593056500,3.721056396484375,-0.6907196044921875,0.1213226318359375,0.583984375
1772701981603105300,3.731105224609375,-0.7761077880859375,0.082305908203125,0.61474609375
1772701981613154300,3.741154296875,-0.8088836669921875,-0.0126800537109375,0.6347198486328125
1772701981623203300,3.751203369140625,-0.787628173828125,-0.094757080078125,0.6380157470703125
1772701981633252400,3.76125244140625,-0.837799072265625,-0.0324249267578125,0.6233062744140625
1772701981643302400,3.771302490234375,-0.972625732421875,0.1300201416015625,0.7301483154296875
1772701981653351400,3.781351318359375,-1.295379638671875,0.4708251953125,0.817840576171875
1772701981663400400,3.791400390625,-1.840667724609375,0.725311279296875,1.07952880859375
1772701981673449200,3.80144921875,-2.285491943359375,0.875762939453125,1.3609771728515625
1772701981683498500,3.81149853515625,-2.6060791015625,0.78936767578125,1.5042572021484375
1772701981693547300,3.82154736328125,-2.6959228515625,0.61187744140625,1.52386474609375
1772701981703596300,3.83159619140625,-2.6428375244140625,0.58270263671875,1.4981689453125
1772701981713645300,3.841645263671875,-2.6233978271484375,0.5438385009765625,1.47760009765625
1772701981723694300,3.8516943359375,-2.6819305419921875,0.39984130859375,1.5325775146484375
1772701981733743400,3.861743408203125,-2.6038970947265625,0.2893829345703125,1.5790863037109375
1772701981743793200,3.871793212890625,-2.3296051025390625,0.2073211669921875,1.5069580078125
1772701981753842400,3.881842529296875,-1.9401397705078125,0.14471435546875,1.3675537109375
1772701981763891200,3.89189111328125,-1.508758544921875,0.11181640625,1.1771087646484375
1772701981773940200,3.901940185546875,-1.0984954833984375,0.0937652587890625,0.936614990234375
1772701981783989500,3.911989501953125,-0.73321533203125,0.07904052734375,0.7212982177734375
1772701981794038300,3.922038330078125,-0.4134521484375,0.0723114013671875,0.5506591796875
1772701981804087300,3.93208740234375,-0.1553192138671875,0.0680389404296875,0.4045257568359375
1772701981814136300,3.94213623046875,0.123809814453125,0.0618896484375,0.2898406982421875
1772701981824185300,3.952185302734375,0.384246826171875,0.0361480712890625,0.23046875
1772701981834234000,3.962234130859375,0.538726806640625,0.0075836181640625,0.1547088623046875
1772701981844283400,3.972283447265625,0.6431884765625,-0.0213165283203125,0.1340789794921875
1772701981854333400,3.98233349609375,0.6923065185546875,-0.035308837890625,0.1029815673828125
1772701981864382200,3.99238232421875,0.70751953125,-0.06866455078125,0.053741455078125
1772701981874431500,4.002431396484375,0.6909942626953125,-0.0932464599609375,0.0471038818359375
1772701981884480300,4.012480224609375,0.6587066650390625,-0.1031646728515625,0.00445556640625
1772701981894529300,4.022529296875,0.59527587890625,-0.1157379150390625,-0.0443267822265625
1772701981904578600,4.03257861328125,0.5155487060546875,-0.1103057861328125,-0.0502166748046875
1772701981914627300,4.04262744140625,0.429412841796875,-0.109405517578125,-0.0517425537109375
1772701981924676400,4.05267626953125,0.354522705078125,-0.1082611083984375,-0.024658203125
1772701981934725400,4.062725341796875,0.273193359375,-0.09063720703125,-0.01336669921875
1772701981944774400,4.0727744140625,0.1985626220703125,-0.0858306884765625,-0.0156097412109375
1772701981954823200,4.0828232421875,0.1180877685546875,-0.0671234130859375,-0.0272979736328125
1772701981964873200,4.092873291015625,0.03680419921875,-0.0305938720703125,-0.0156707763671875
1772701981974922500,4.102922607421875,-0.0526580810546875,0.0103912353515625,0.00848388671875
1772701981984971300,4.11297119140625,-0.156158447265625,0.03680419921875,0.0320281982421875
1772701981995020300,4.123020263671875,-0.270111083984375,0.080169677734375,0.070098876953125
1772701982005069300,4.1330693359375,-0.38397216796875,0.1363983154296875,0.1151580810546875
1772701982015118300,4.143118408203125,-0.4981689453125,0.1951904296875,0.1749114990234375
1772701982025167000,4.1531669921875,-0.5815277099609375,0.2402191162109375,0.2291412353515625
1772701982035216400,4.16321630859375,-0.662017822265625,0.254364013671875,0.2970733642578125
1772701982045265400,4.173265380859375,-0.739654541015625,0.2693634033203125,0.3558502197265625
1772701982055314200,4.183314208984375,-0.8334808349609375,0.2464141845703125,0.407928466796875
1772701982065363500,4.193363525390625,-0.9995574951171875,0.2203216552734375,0.51824951171875
1772701982075413200,4.203413330078125,-1.2265625,0.247344970703125,0.6596832275390625
1772701982085462300,4.213462158203125,-1.470245361328125,0.29742431640625,0.7988739013671875
1772701982095511600,4.223511474609375,-1.7668304443359375,0.3737945556640625,0.954010009765625
1772701982105560300,4.233560302734375,-2.081756591796875,0.4919891357421875,1.196929931640625
1772701982115609300,4.243609375,-2.26153564453125,0.6061248779296875,1.390106201171875
1772701982125658400,4.253658447265625,-2.3147430419921875,0.6641845703125,1.450347900390625
1772701982135707400,4.263707275390625,-2.2285614013671875,0.5746002197265625,1.4145355224609375
1772701982145756200,4.273756103515625,-2.0505828857421875,0.4232940673828125,1.293212890625
1772701982155805400,4.283805419921875,-1.9356231689453125,0.277008056640625,1.165069580078125
1772701982165854500,4.2938544921875,-1.7879486083984375,0.1594085693359375,0.9850921630859375
1772701982175903200,4.3039033203125,-1.6823272705078125,0.160186767578125,0.74884033203125
1772701982185953300,4.313953369140625,-1.5699005126953125,0.143890380859375,0.59954833984375
1772701982196002300,4.324002197265625,-1.4138946533203125,0.0832672119140625,0.4857177734375
1772701982206051300,4.33405126953125,-1.195526123046875,0.055816650390625,0.37994384765625
1772701982216100400,4.344100341796875,-0.9962005615234375,0.0093231201171875,0.337249755859375
1772701982226149400,4.3541494140625,-0.80377197265625,-0.019317626953125,0.2685546875
1772701982236198400,4.364198486328125,-0.644500732421875,-0.0402984619140625,0.1876678466796875
1772701982246247200,4.3742470703125,-0.537353515625,-0.0681304931640625,0.1442413330078125
1772701982256296400,4.38429638671875,-0.428985595703125,-0.0653076171875,0.1317596435546875
1772701982266345200,4.39434521484375,-0.3531341552734375,-0.053314208984375,0.1125030517578125
1772701982276394200,4.404394287109375,-0.30670166015625,-0.0136566162109375,0.143218994140625
1772701982286444500,4.414444580078125,-0.3040008544921875,0.0610504150390625,0.2151947021484375
1772701982296493300,4.424493408203125,-0.33935546875,0.118133544921875,0.2606353759765625
1772701982306542300,4.434542236328125,-0.4107208251953125,0.1520538330078125,0.301788330078125
1772701982316591400,4.44459130859375,-0.484710693359375,0.1780548095703125,0.3597412109375
1772701982326640400,4.454640380859375,-0.5583038330078125,0.2028961181640625,0.4083251953125
1772701982336689200,4.464689208984375,-0.64849853515625,0.221221923828125,0.4623565673828125
1772701982346738400,4.474738525390625,-0.7071075439453125,0.2415618896484375,0.493621826171875
1772701982356787500,4.484787353515625,-0.72802734375,0.24407958984375,0.4865570068359375
1772701982366836200,4.494836181640625,-0.7638397216796875,0.2451629638671875,0.489837646484375
1772701982376885500,4.504885498046875,-0.816650390625,0.23870849609375,0.52490234375
1772701982386934300,4.514934326171875,-0.9004974365234375,0.221893310546875,0.5785675048828125
1772701982396983800,4.52498388671875,-0.9747314453125,0.243499755859375,0.624969482421875
1772701982407033000,4.535033203125,-1.045684814453125,0.25848388671875,0.6445770263671875
1772701982417082000,4.54508203125,-1.09326171875,0.2396697998046875,0.6420440673828125
1772701982427131000,4.555130859375,-1.0975189208984375,0.213714599609375,0.6124267578125
1772701982437180200,4.56518017578125,-1.0747833251953125,0.18341064453125,0.57476806640625
1772701982447229000,4.57522900390625,-1.041748046875,0.16436767578125,0.540557861328125
1772701982457278000,4.58527783203125,-1.007080078125,0.1552581787109375,0.513824462890625
1772701982467327000,4.595326904296875,-0.970428466796875,0.14324951171875,0.4925079345703125
1772701982477376000,4.6053759765625,-0.9359130859375,0.1379241943359375,0.4713287353515625
1772701982487424800,4.6154248046875,-0.910736083984375,0.1346435546875,0.454498291015625
1772701982497474000,4.62547412109375,-0.887451171875,0.1222381591796875,0.4342041015625
1772701982507524000,4.635524169921875,-0.8659515380859375,0.11541748046875,0.41217041015625
1772701982517572900,4.64557275390625,-0.84552001953125,0.1043853759765625,0.4034423828125
1772701982527622000,4.655621826171875,-0.8206329345703125,0.09381103515625,0.40216064453125
1772701982537671000,4.6656708984375,-0.807403564453125,0.0938262939453125,0.39764404296875
1772701982547720000,4.675719970703125,-0.8060455322265625,0.107421875,0.3889923095703125
1772701982557769000,4.68576904296875,-0.8175048828125,0.1161041259765625,0.38726806640625
1772701982567818000,4.69581787109375,-0.8368682861328125,0.1233062744140625,0.397796630859375
1772701982577867000,4.705866943359375,-0.8579559326171875,0.13824462890625,0.41180419921875
1772701982587915800,4.715915771484375,-0.8665771484375,0.1477203369140625,0.4254608154296875
1772701982597965000,4.725965087890625,-0.8746185302734375,0.144622802734375,0.4460296630859375
1772701982608013800,4.736013916015625,-0.8850555419921875,0.1422576904296875,0.46905517578125
1772701982618064000,4.74606396484375,-0.8878631591796875,0.148223876953125,0.4781036376953125
1772701982628113200,4.756113037109375,-0.8901519775390625,0.15362548828125,0.4721527099609375
1772701982638162000,4.766161865234375,-0.8971710205078125,0.1622772216796875,0.46234130859375
1772701982648211000,4.7762109375,-0.86468505859375,0.1678009033203125,0.4610595703125
1772701982658260000,4.786260009765625,-0.8487701416015625,0.1733245849609375,0.4681396484375
1772701982668309000,4.79630908203125,-0.9040679931640625,0.123504638671875,0.474334716796875
1772701982678358000,4.80635791015625,-0.9303741455078125,0.062530517578125,0.51812744140625
1772701982688407000,4.816406982421875,-0.97564697265625,0.0652618408203125,0.533111572265625
1772701982698456000,4.8264560546875,-0.9828033447265625,0.101715087890625,0.483734130859375
1772701982708504800,4.8365048828125,-0.9553070068359375,0.1212615966796875,0.469818115234375
1772701982718554000,4.84655419921875,-0.9114837646484375,0.1429443359375,0.4782257080078125
