time,seconds_elapsed,z,y,x
1772701663928632000,0.017632080078125,-0.4056549072265625,0.39947509765625,0.8429718017578125
1772701663938679800,0.0276796875,-0.4091339111328125,0.4048309326171875,0.835479736328125
1772701663948728000,0.03772802734375,-0.41265869140625,0.40240478515625,0.8394775390625
1772701663958776000,0.047776123046875,-0.414886474609375,0.3983001708984375,0.8426666259765625
1772701663968824000,0.057823974609375,-0.4145355224609375,0.39739990234375,0.8363494873046875
1772701663978872000,0.0678720703125,-0.411590576171875,0.39697265625,0.8293609619140625
1772701663988920000,0.077920166015625,-0.404388427734375,0.39764404296875,0.8311004638671875
1772701663998968000,0.087968017578125,-0.4019317626953125,0.4072113037109375,0.8282012939453125
1772701664009016000,0.09801611328125,-0.3986053466796875,0.4083404541015625,0.828369140625
1772701664019064000,0.10806396484375,-0.392791748046875,0.4065093994140625,0.8386077880859375
1772701664029112000,0.118112060546875,-0.39447021484375,0.40606689453125,0.852783203125
1772701664039160000,0.12816015625,-0.3928680419921875,0.4064788818359375,0.855865478515625
1772701664049209000,0.138208984375,-0.393768310546875,0.4223480224609375,0.841339111328125
1772701664059256000,0.148256103515625,-0.4102630615234375,0.429473876953125,0.8333892822265625
1772701664069304800,0.158304931640625,-0.4206390380859375,0.4310760498046875,0.8208160400390625
1772701664079353000,0.16835302734375,-0.41119384765625,0.432769775390625,0.8087921142578125
1772701664089401000,0.178401123046875,-0.39483642578125,0.4296417236328125,0.8046875
1772701664099449000,0.188448974609375,-0.3807220458984375,0.4371795654296875,0.802398681640625
1772701664109497000,0.1984970703125,-0.3779296875,0.4453887939453125,0.8066253662109375
1772701664119545000,0.208545166015625,-0.3806304931640625,0.4455413818359375,0.821746826171875
1772701664129593000,0.218593017578125,-0.3814239501953125,0.4439239501953125,0.830169677734375
1772701664139640800,0.228640869140625,-0.3848114013671875,0.44482421875,0.823211669921875
1772701664149688800,0.238688720703125,-0.390106201171875,0.44622802734375,0.80975341796875
1772701664159736800,0.24873681640625,-0.3831024169921875,0.4522552490234375,0.784393310546875
1772701664169784800,0.258784912109375,-0.37762451171875,0.4639892578125,0.7527923583984375
1772701664179832600,0.26883251953125,-0.3906097412109375,0.4590301513671875,0.736114501953125
1772701664189880800,0.278880859375,-0.4123687744140625,0.4581146240234375,0.7317352294921875
1772701664199928800,0.2889287109375,-0.4282073974609375,0.4521331787109375,0.72943115234375
1772701664209976800,0.298976806640625,-0.4538421630859375,0.4308013916015625,0.740631103515625
1772701664220024800,0.30902490234375,-0.485443115234375,0.398773193359375,0.750244140625
1772701664230072800,0.31907275390625,-0.505645751953125,0.3654632568359375,0.7544403076171875
1772701664240120800,0.329120849609375,-0.5042572021484375,0.3459014892578125,0.7577056884765625
1772701664250168800,0.3391689453125,-0.4891357421875,0.356414794921875,0.76080322265625
1772701664260216800,0.349216796875,-0.4578857421875,0.37091064453125,0.7812652587890625
1772701664270264800,0.359264892578125,-0.426025390625,0.4025115966796875,0.786529541015625
1772701664280312800,0.369312744140625,-0.4143829345703125,0.4390869140625,0.781951904296875
1772701664290360600,0.379360595703125,-0.4116973876953125,0.47430419921875,0.791351318359375
1772701664300408800,0.389408935546875,-0.4068603515625,0.4955291748046875,0.7986602783203125
1772701664310456800,0.399456787109375,-0.3967132568359375,0.501800537109375,0.8042144775390625
1772701664320504800,0.4095048828125,-0.3913116455078125,0.4993438720703125,0.8041534423828125
1772701664330552800,0.419552734375,-0.3875732421875,0.4992523193359375,0.8126373291015625
1772701664340600800,0.429600830078125,-0.3772430419921875,0.4888916015625,0.836669921875
1772701664350648800,0.43964892578125,-0.3771209716796875,0.47216796875,0.8512725830078125
1772701664360696800,0.44969677734375,-0.373046875,0.4666290283203125,0.833404541015625
1772701664370744800,0.459744873046875,-0.360931396484375,0.4696197509765625,0.820068359375
1772701664380792800,0.469792724609375,-0.360565185546875,0.4735870361328125,0.8132781982421875
1772701664390840800,0.4798408203125,-0.356781005859375,0.4767913818359375,0.7938995361328125
1772701664400888800,0.489888916015625,-0.365478515625,0.4693603515625,0.7841033935546875
1772701664410936800,0.499936767578125,-0.377105712890625,0.448486328125,0.7811126708984375
1772701664420984800,0.50998486328125,-0.3778839111328125,0.4142608642578125,0.794464111328125
1772701664431032800,0.52003271484375,-0.378204345703125,0.3894195556640625,0.8052978515625
1772701664441080800,0.530080810546875,-0.377777099609375,0.37408447265625,0.806732177734375
1772701664451129900,0.5401298828125,-0.3726348876953125,0.3571319580078125,0.8131866455078125
1772701664461177900,0.550177734375,-0.36077880859375,0.3419189453125,0.8135528564453125
1772701664471225900,0.560225830078125,-0.34100341796875,0.326995849609375,0.79595947265625
1772701664481273900,0.57027392578125,-0.3305511474609375,0.311859130859375,0.7941741943359375
1772701664491321900,0.58032177734375,-0.330718994140625,0.296417236328125,0.785919189453125
1772701664501369600,0.59036962890625,-0.3349761962890625,0.28826904296875,0.76068115234375
1772701664511417900,0.60041796875,-0.355010986328125,0.29364013671875,0.7508697509765625
1772701664521465900,0.6104658203125,-0.3821258544921875,0.305511474609375,0.7614593505859375
1772701664531513600,0.620513671875,-0.41259765625,0.3246917724609375,0.797027587890625
1772701664541561900,0.630561767578125,-0.44976806640625,0.354827880859375,0.837188720703125
1772701664551609900,0.64060986328125,-0.484893798828125,0.393310546875,0.872100830078125
1772701664561657900,0.650657958984375,-0.5020294189453125,0.4380645751953125,0.8940582275390625
1772701664571705900,0.660705810546875,-0.503509521484375,0.4553070068359375,0.925811767578125
1772701664581753900,0.67075390625,-0.4986419677734375,0.445098876953125,0.936798095703125
1772701664591801900,0.6808017578125,-0.524322509765625,0.4326019287109375,0.9363555908203125
1772701664601849900,0.690849853515625,-0.5544891357421875,0.4015350341796875,0.931182861328125
1772701664611897600,0.700897705078125,-0.541656494140625,0.3916015625,0.927642822265625
1772701664621945900,0.71094580078125,-0.5127716064453125,0.4066162109375,0.9253997802734375
1772701664631993900,0.720993896484375,-0.5005035400390625,0.408660888671875,0.9305267333984375
1772701664642041600,0.73104150390625,-0.476715087890625,0.4036102294921875,0.921630859375
1772701664652089900,0.74108984375,-0.4559326171875,0.3997344970703125,0.904052734375
1772701664662137900,0.751137939453125,-0.4408416748046875,0.3774871826171875,0.87738037109375
1772701664672185900,0.761185791015625,-0.4346466064453125,0.3474273681640625,0.840789794921875
1772701664682233900,0.77123388671875,-0.4317626953125,0.33251953125,0.79876708984375
1772701664692281600,0.781281494140625,-0.4253997802734375,0.3289794921875,0.7632904052734375
1772701664702329900,0.791329833984375,-0.4240570068359375,0.3371124267578125,0.742034912109375
1772701664712377900,0.8013779296875,-0.42041015625,0.3513946533203125,0.7299041748046875
1772701664722425600,0.811425537109375,-0.4180145263671875,0.3535308837890625,0.732818603515625
1772701664732473900,0.821473876953125,-0.4191436767578125,0.350311279296875,0.7474822998046875
1772701664742521900,0.83152197265625,-0.4181060791015625,0.3437347412109375,0.7617034912109375
1772701664752569900,0.84156982421875,-0.4161376953125,0.3416595458984375,0.772247314453125
1772701664762617900,0.851617919921875,-0.4146728515625,0.3486175537109375,0.781768798828125
1772701664772665900,0.861665771484375,-0.416595458984375,0.3497772216796875,0.789886474609375
1772701664782713900,0.8717138671875,-0.4243927001953125,0.34912109375,0.7894744873046875
1772701664792761900,0.881761962890625,-0.4322509765625,0.36328125,0.7871246337890625
1772701664802809600,0.8918095703125,-0.437652587890625,0.3602447509765625,0.7867889404296875
1772701664812859000,0.90185888671875,-0.4378204345703125,0.357208251953125,0.7900390625
1772701664822906600,0.91190673828125,-0.4372406005859375,0.355804443359375,0.8004302978515625
1772701664832955000,0.921954833984375,-0.4303131103515625,0.349639892578125,0.812591552734375
1772701664843003000,0.9320029296875,-0.4351654052734375,0.3499603271484375,0.8205718994140625
1772701664853050600,0.942050537109375,-0.43450927734375,0.349395751953125,0.8186492919921875
1772701664863099000,0.952098876953125,-0.431365966796875,0.34906005859375,0.8111114501953125
1772701664873147000,0.96214697265625,-0.4390716552734375,0.3509521484375,0.7973175048828125
1772701664883194600,0.972194580078125,-0.4428253173828125,0.3488616943359375,0.7868804931640625
1772701664893243000,0.982242919921875,-0.4484405517578125,0.35162353515625,0.77838134765625
1772701664903290600,0.99229052734375,-0.4565887451171875,0.3570098876953125,0.7806854248046875
1772701664913339000,1.0023388671875,-0.4651031494140625,0.36578369140625,0.7865447998046875
1772701664923387000,1.012386962890625,-0.480377197265625,0.3684539794921875,0.7855377197265625
1772701664933434600,1.0224345703125,-0.495513916015625,0.369537353515625,0.7868804931640625
1772701664943483000,1.03248291015625,-0.493621826171875,0.3694610595703125,0.7966156005859375
1772701664953531000,1.04253076171875,-0.4902801513671875,0.376129150390625,0.8113861083984375
1772701664963578600,1.05257861328125,-0.4900970458984375,0.38458251953125,0.82550048828125
1772701664973627000,1.062626953125,-0.487945556640625,0.392974853515625,0.8377685546875
1772701664983675000,1.0726748046875,-0.4862060546875,0.3892974853515625,0.850067138671875
1772701664993723000,1.082722900390625,-0.4884796142578125,0.39178466796875,0.8444976806640625
1772701665003771000,1.09277099609375,-0.5015411376953125,0.400146484375,0.83526611328125
1772701665013818600,1.102818603515625,-0.50933837890625,0.401397705078125,0.8255615234375
1772701665023867000,1.112866943359375,-0.512420654296875,0.3873748779296875,0.819610595703125
1772701665033915000,1.122914794921875,-0.514495849609375,0.3696136474609375,0.82037353515625
1772701665043962600,1.132962646484375,-0.531646728515625,0.3631134033203125,0.814849853515625
1772701665054011000,1.143010986328125,-0.5565643310546875,0.363616943359375,0.8069000244140625
1772701665064059000,1.153058837890625,-0.5740509033203125,0.365997314453125,0.80596923828125
1772701665074106600,1.163106689453125,-0.578399658203125,0.3583221435546875,0.8090972900390625
1772701665084155000,1.17315478515625,-0.5917510986328125,0.3453521728515625,0.8004608154296875
1772701665094203000,1.183202880859375,-0.6185455322265625,0.329925537109375,0.7841796875
1772701665104251000,1.1932509765625,-0.6478118896484375,0.3154449462890625,0.7865447998046875
1772701665114299000,1.203298828125,-0.647247314453125,0.3263397216796875,0.813507080078125
1772701665124346600,1.2133466796875,-0.6021728515625,0.377655029296875,0.8929901123046875
1772701665134395000,1.223394775390625,-0.5880126953125,0.44439697265625,0.9748382568359375
1772701665144443000,1.23344287109375,-0.595062255859375,0.43218994140625,0.947021484375
1772701665154492000,1.243491943359375,-0.5290985107421875,0.3850250244140625,0.95086669921875
1772701665164540000,1.253539794921875,-0.4703826904296875,0.3743896484375,1.0073089599609375
1772701665174587600,1.263587646484375,-0.45263671875,0.3941497802734375,1.0402679443359375
1772701665184636000,1.273635986328125,-0.451019287109375,0.4072723388671875,1.0175018310546875
1772701665194684000,1.283683837890625,-0.4585418701171875,0.4077606201171875,0.997314453125
1772701665204731600,1.293731689453125,-0.4603118896484375,0.4150238037109375,0.96514892578125
1772701665214780000,1.30377978515625,-0.4629974365234375,0.424285888671875,0.90087890625
1772701665224827600,1.31382763671875,-0.4537811279296875,0.433807373046875,0.8258819580078125
1772701665234876000,1.3238759765625,-0.446075439453125,0.4500732421875,0.8087310791015625
1772701665244924000,1.333923828125,-0.439208984375,0.4421844482421875,0.8333282470703125
1772701665254971600,1.3439716796875,-0.4266204833984375,0.417327880859375,0.8351593017578125
1772701665265020000,1.35402001953125,-0.40509033203125,0.4025115966796875,0.8297882080078125
1772701665275068000,1.36406787109375,-0.3845367431640625,0.399261474609375,0.8289031982421875
1772701665285115600,1.37411572265625,-0.3779449462890625,0.39862060546875,0.8277587890625
1772701665295164000,1.384163818359375,-0.375335693359375,0.398651123046875,0.8157196044921875
1772701665305212000,1.3942119140625,-0.3697052001953125,0.3931732177734375,0.78759765625
1772701665315259600,1.404259765625,-0.351959228515625,0.40777587890625,0.752410888671875
1772701665325308000,1.414307861328125,-0.3312835693359375,0.4156646728515625,0.7297515869140625
1772701665335355600,1.424355712890625,-0.3232421875,0.43389892578125,0.71240234375
1772701665345404000,1.43440380859375,-0.343017578125,0.4355926513671875,0.6651611328125
1772701665355452000,1.444451904296875,-0.3798980712890625,0.4291839599609375,0.590728759765625
1772701665365499600,1.454499755859375,-0.45416259765625,0.4402923583984375,0.546112060546875
1772701665375548000,1.4645478515625,-0.53741455078125,0.466796875,0.5466156005859375
1772701665385596000,1.474595947265625,-0.5961456298828125,0.491851806640625,0.5855560302734375
1772701665395643600,1.4846435546875,-0.620635986328125,0.5188751220703125,0.6197967529296875
1772701665405692000,1.49469189453125,-0.6319580078125,0.5420684814453125,0.6445770263671875
1772701665415739600,1.50473974609375,-0.6074371337890625,0.524810791015625,0.6409454345703125
1772701665425787600,1.51478759765625,-0.579132080078125,0.4673004150390625,0.6300506591796875
1772701665435836000,1.5248359375,-0.577972412109375,0.43658447265625,0.6617889404296875
1772701665445883600,1.534883544921875,-0.5774383544921875,0.4448699951171875,0.6715850830078125
1772701665455932000,1.544931884765625,-0.58544921875,0.46014404296875,0.684173583984375
1772701665465980000,1.55497998046875,-0.6202850341796875,0.471466064453125,0.6975860595703125
1772701665476027600,1.565027587890625,-0.6688079833984375,0.4786376953125,0.6885833740234375
1772701665486076000,1.575075927734375,-0.6863555908203125,0.4796600341796875,0.6658782958984375
1772701665496124000,1.5851240234375,-0.6792144775390625,0.479278564453125,0.6366119384765625
1772701665506171600,1.595171630859375,-0.6627197265625,0.4801025390625,0.6309051513671875
1772701665516221000,1.605220947265625,-0.6425018310546875,0.457550048828125,0.6336822509765625
1772701665526268700,1.6152685546875,-0.62945556640625,0.4440460205078125,0.620941162109375
1772701665536317000,1.62531689453125,-0.611297607421875,0.4381561279296875,0.5990447998046875
1772701665546364700,1.63536474609375,-0.5845489501953125,0.436859130859375,0.5850982666015625
1772701665556412700,1.64541259765625,-0.5537109375,0.432708740234375,0.586181640625
1772701665566461000,1.6554609375,-0.5343017578125,0.4353179931640625,0.5921173095703125
1772701665576508700,1.6655087890625,-0.5281524658203125,0.443267822265625,0.597320556640625
1772701665586557000,1.675556884765625,-0.534637451171875,0.4597930908203125,0.6044464111328125
1772701665596605000,1.68560498046875,-0.5468597412109375,0.474334716796875,0.6231689453125
1772701665606652700,1.695652587890625,-0.559906005859375,0.477447509765625,0.636993408203125
1772701665616701000,1.705700927734375,-0.5784759521484375,0.4742584228515625,0.6458587646484375
1772701665626749000,1.7157490234375,-0.5908660888671875,0.464935302734375,0.6593475341796875
1772701665636796700,1.725796630859375,-0.5970458984375,0.4494781494140625,0.6723175048828125
1772701665646845000,1.735844970703125,-0.593109130859375,0.4386138916015625,0.6760101318359375
1772701665656892700,1.745892578125,-0.5910186767578125,0.445556640625,0.6720733642578125
1772701665666940700,1.755940673828125,-0.6029510498046875,0.4559783935546875,0.669586181640625
1772701665676989000,1.765989013671875,-0.61376953125,0.4631500244140625,0.6685638427734375
1772701665687036700,1.77603662109375,-0.6211090087890625,0.4663848876953125,0.673248291015625
1772701665697085000,1.7860849609375,-0.6195526123046875,0.4680938720703125,0.6758575439453125
1772701665707133000,1.7961328125,-0.6139373779296875,0.4640960693359375,0.6719512939453125
1772701665717180700,1.8061806640625,-0.6103363037109375,0.4579315185546875,0.6676025390625
1772701665727229000,1.81622900390625,-0.6076507568359375,0.4543914794921875,0.6620941162109375
1772701665737276700,1.826276611328125,-0.6044158935546875,0.4506683349609375,0.6565093994140625
1772701665747324700,1.83632470703125,-0.60626220703125,0.4445037841796875,0.65069580078125
1772701665757373000,1.846373046875,-0.6136474609375,0.43609619140625,0.6432952880859375
1772701665767420700,1.856420654296875,-0.623382568359375,0.428253173828125,0.6331939697265625
1772701665777469000,1.866468994140625,-0.6238250732421875,0.4239501953125,0.6254119873046875
1772701665787517000,1.876516845703125,-0.61090087890625,0.419189453125,0.625213623046875
1772701665797564700,1.886564697265625,-0.595733642578125,0.4147796630859375,0.626251220703125
1772701665807613000,1.896613037109375,-0.5901947021484375,0.4130096435546875,0.62359619140625
1772701665817661000,1.906660888671875,-0.593780517578125,0.41448974609375,0.6248016357421875
1772701665827708700,1.916708740234375,-0.5865020751953125,0.413330078125,0.6258697509765625
1772701665837757000,1.9267568359375,-0.581756591796875,0.4071502685546875,0.62518310546875
1772701665847804700,1.9368046875,-0.5865631103515625,0.4022674560546875,0.6250152587890625
1772701665857852700,1.946852783203125,-0.5941619873046875,0.4033203125,0.6223602294921875
1772701665867901700,1.956901611328125,-0.6055908203125,0.4080963134765625,0.6179351806640625
1772701665877949700,1.96694970703125,-0.6157379150390625,0.414093017578125,0.622344970703125
1772701665887998000,1.976998046875,-0.6180419921875,0.424652099609375,0.6324920654296875
1772701665898045700,1.987045654296875,-0.6162872314453125,0.433380126953125,0.64117431640625
1772701665908093700,1.99709375,-0.612213134765625,0.439056396484375,0.6538848876953125
1772701665918142000,2.007141845703125,-0.6094818115234375,0.4404144287109375,0.661895751953125
1772701665928189700,2.017189697265625,-0.6124420166015625,0.4381256103515625,0.6671295166015625
1772701665938238000,2.027238037109375,-0.6186676025390625,0.439239501953125,0.6725616455078125
1772701665948285700,2.03728564453125,-0.6222076416015625,0.442718505859375,0.67572021484375
1772701665958333700,2.047333740234375,-0.62615966796875,0.444366455078125,0.6759490966796875
1772701665968382000,2.0573818359375,-0.6306610107421875,0.447998046875,0.67864990234375
1772701665978429700,2.0674296875,-0.6359710693359375,0.442718505859375,0.6783294677734375
1772701665988477700,2.077477783203125,-0.6409912109375,0.4343109130859375,0.677764892578125
1772701665998526000,2.08752587890625,-0.6417999267578125,0.42962646484375,0.6759033203125
1772701666008573700,2.09757373046875,-0.638092041015625,0.42547607421875,0.67498779296875
1772701666018621700,2.10762158203125,-0.640655517578125,0.42877197265625,0.675140380859375
1772701666028670000,2.117669921875,-0.64349365234375,0.426727294921875,0.669952392578125
1772701666038717700,2.1277177734375,-0.64520263671875,0.4244232177734375,0.6624755859375
1772701666048766000,2.137765869140625,-0.6396484375,0.422088623046875,0.6585693359375
1772701666058813700,2.147813720703125,-0.632781982421875,0.4224853515625,0.653717041015625
1772701666068861700,2.15786181640625,-0.63226318359375,0.4208526611328125,0.655670166015625
1772701666078910000,2.167909912109375,-0.629638671875,0.4237060546875,0.6529541015625
1772701666088957700,2.177957763671875,-0.6360015869140625,0.42669677734375,0.6431884765625
1772701666099005700,2.188005615234375,-0.6385955810546875,0.4271087646484375,0.6367645263671875
1772701666109054000,2.198053955078125,-0.629486083984375,0.4268798828125,0.629364013671875
1772701666119101700,2.208101806640625,-0.6352081298828125,0.423309326171875,0.6263275146484375
1772701666129150000,2.21814990234375,-0.638092041015625,0.417083740234375,0.6253662109375
1772701666139198000,2.228197998046875,-0.63134765625,0.424774169921875,0.6485595703125
1772701666149245400,2.238245361328125,-0.562591552734375,0.470123291015625,0.7400054931640625
1772701666159293400,2.24829345703125,-0.546356201171875,0.5490264892578125,0.797088623046875
1772701666169341400,2.258341552734375,-0.6023406982421875,0.5774078369140625,0.7588043212890625
1772701666179389400,2.268389404296875,-0.579742431640625,0.5621185302734375,0.7552642822265625
1772701666189437400,2.2784375,-0.567047119140625,0.5475921630859375,0.7631072998046875
1772701666199485400,2.2884853515625,-0.575714111328125,0.5514068603515625,0.7509002685546875
1772701666209533400,2.298533447265625,-0.5525360107421875,0.56561279296875,0.7586822509765625
1772701666219582200,2.308582275390625,-0.5113677978515625,0.5705108642578125,0.7864532470703125
1772701666229630500,2.31863037109375,-0.495025634765625,0.5611724853515625,0.802825927734375
1772701666239678500,2.328678466796875,-0.505218505859375,0.5272674560546875,0.8031005859375
1772701666249726500,2.3387265625,-0.5155792236328125,0.489776611328125,0.790435791015625
1772701666259774500,2.3487744140625,-0.5348663330078125,0.46630859375,0.7693328857421875
1772701666269822500,2.358822509765625,-0.563201904296875,0.449127197265625,0.7380828857421875
1772701666279870500,2.368870361328125,-0.5717926025390625,0.423736572265625,0.70452880859375
1772701666289918500,2.37891845703125,-0.560577392578125,0.3760223388671875,0.684783935546875
1772701666299966200,2.38896630859375,-0.5540618896484375,0.29754638671875,0.645050048828125
1772701666310014500,2.399014404296875,-0.5831146240234375,0.23065185546875,0.6106109619140625
1772701666320062500,2.4090625,-0.6081390380859375,0.1908111572265625,0.5777740478515625
1772701666330110200,2.419110107421875,-0.6077728271484375,0.1761474609375,0.56146240234375
1772701666340158500,2.429158447265625,-0.599822998046875,0.1877288818359375,0.578033447265625
1772701666350206500,2.43920654296875,-0.59515380859375,0.21966552734375,0.61944580078125
1772701666360254500,2.44925439453125,-0.6007232666015625,0.2689666748046875,0.6634521484375
1772701666370302500,2.459302490234375,-0.614776611328125,0.318878173828125,0.6952362060546875
1772701666380350500,2.4693505859375,-0.638946533203125,0.3652801513671875,0.7362823486328125
1772701666390398500,2.4793984375,-0.6410980224609375,0.3928680419921875,0.784759521484375
1772701666400446500,2.489446533203125,-0.629974365234375,0.4094085693359375,0.8353729248046875
1772701666410494200,2.499494140625,-0.6112823486328125,0.4089202880859375,0.888702392578125
1772701666420542500,2.50954248046875,-0.5888671875,0.4302978515625,0.904022216796875
1772701666430590500,2.519590576171875,-0.558258056640625,0.4203338623046875,0.914764404296875
1772701666440638500,2.529638427734375,-0.5246734619140625,0.43109130859375,0.9182281494140625
1772701666450686500,2.5396865234375,-0.476165771484375,0.43658447265625,0.9227294921875
1772701666460734500,2.549734375,-0.4372406005859375,0.4298553466796875,0.9193572998046875
1772701666470782500,2.559782470703125,-0.388824462890625,0.4424285888671875,0.900360107421875
1772701666480830500,2.56983056640625,-0.3427734375,0.460540771484375,0.8737335205078125
1772701666490878500,2.57987841796875,-0.308807373046875,0.47650146484375,0.845733642578125
1772701666500926500,2.589926513671875,-0.2826385498046875,0.4633026123046875,0.83660888671875
1772701666510974500,2.599974365234375,-0.2682647705078125,0.4274749755859375,0.8311767578125
1772701666521022200,2.610022216796875,-0.2613067626953125,0.3919219970703125,0.81982421875
1772701666531070500,2.620070556640625,-0.265045166015625,0.358551025390625,0.818267822265625
1772701666541119200,2.630119140625,-0.2687225341796875,0.3295745849609375,0.8129119873046875
1772701666551167500,2.64016748046875,-0.2993316650390625,0.30218505859375,0.806365966796875
1772701666561214500,2.65021435546875,-0.3373565673828125,0.270782470703125,0.808746337890625
1772701666571263200,2.66026318359375,-0.3592529296875,0.263641357421875,0.81268310546875
1772701666581311500,2.6703115234375,-0.3864898681640625,0.2612762451171875,0.82354736328125
1772701666591359500,2.680359375,-0.4188995361328125,0.2663421630859375,0.83587646484375
1772701666601407500,2.690407470703125,-0.43157958984375,0.27459716796875,0.8526458740234375
1772701666611455500,2.70045556640625,-0.4453125,0.281494140625,0.8505706787109375
1772701666621503200,2.710503173828125,-0.4918365478515625,0.2766265869140625,0.8376312255859375
1772701666631551500,2.720551513671875,-0.536865234375,0.26141357421875,0.8497467041015625
1772701666641599500,2.730599609375,-0.550750732421875,0.2582855224609375,0.870025634765625
1772701666651647200,2.740647216796875,-0.553253173828125,0.265472412109375,0.879180908203125
1772701666661695500,2.750695556640625,-0.5572662353515625,0.2817840576171875,0.8860321044921875
1772701666671743500,2.760743408203125,-0.5608367919921875,0.29779052734375,0.879150390625
1772701666681791500,2.77079150390625,-0.55657958984375,0.303497314453125,0.8629608154296875
1772701666691839500,2.780839599609375,-0.55621337890625,0.2942047119140625,0.848480224609375
1772701666701887500,2.790887451171875,-0.5563201904296875,0.2881622314453125,0.837890625
1772701666711935500,2.800935546875,-0.54376220703125,0.2778472900390625,0.8228759765625
1772701666721983500,2.8109833984375,-0.5209503173828125,0.2609405517578125,0.8077545166015625
1772701666732031200,2.82103125,-0.500091552734375,0.254638671875,0.796630859375
1772701666742079500,2.83107958984375,-0.4810333251953125,0.2497406005859375,0.7892913818359375
1772701666752127500,2.84112744140625,-0.45880126953125,0.2451324462890625,0.788238525390625
1772701666762175200,2.85117529296875,-0.4406280517578125,0.2462158203125,0.7944183349609375
1772701666772223500,2.861223388671875,-0.42333984375,0.2421417236328125,0.8020172119140625
1772701666782271500,2.871271484375,-0.419189453125,0.240570068359375,0.8070831298828125
1772701666792319500,2.881319580078125,-0.43170166015625,0.2384490966796875,0.811126708984375
1772701666802367500,2.891367431640625,-0.444000244140625,0.22320556640625,0.8138885498046875
1772701666812415500,2.90141552734375,-0.4411163330078125,0.214324951171875,0.8209228515625
1772701666822463500,2.91146337890625,-0.4510955810546875,0.2206268310546875,0.8298797607421875
1772701666832511500,2.921511474609375,-0.4778289794921875,0.2283172607421875,0.848175048828125
1772701666842559200,2.931559326171875,-0.5012969970703125,0.2425384521484375,0.856109619140625
1772701666852607500,2.941607421875,-0.5223541259765625,0.254669189453125,0.8682861328125
1772701666862655500,2.951655517578125,-0.5493621826171875,0.260009765625,0.8784027099609375
1772701666872703200,2.961703125,-0.5796051025390625,0.267608642578125,0.890380859375
1772701666882751500,2.97175146484375,-0.6118621826171875,0.2764739990234375,0.8892364501953125
1772701666892800300,2.98180029296875,-0.6351470947265625,0.2776336669921875,0.8895721435546875
1772701666902848500,2.9918486328125,-0.63897705078125,0.26611328125,0.888275146484375
1772701666912896500,3.001896484375,-0.6307830810546875,0.2578582763671875,0.8740234375
1772701666922944500,3.011944580078125,-0.6303863525390625,0.254058837890625,0.8574676513671875
1772701666932992500,3.021992431640625,-0.62860107421875,0.2501220703125,0.8369293212890625
1772701666943040300,3.032040283203125,-0.6190185546875,0.248291015625,0.81561279296875
1772701666953088500,3.042088623046875,-0.6151123046875,0.24591064453125,0.8007965087890625
1772701666963136500,3.052136474609375,-0.6060638427734375,0.241851806640625,0.7845916748046875
1772701666973184300,3.062184326171875,-0.58306884765625,0.239501953125,0.7664642333984375
1772701666983232500,3.072232421875,-0.561767578125,0.2366180419921875,0.747406005859375
1772701666993280500,3.082280517578125,-0.5464935302734375,0.224853515625,0.7360076904296875
1772701667003328300,3.092328369140625,-0.53521728515625,0.210540771484375,0.7261199951171875
1772701667013376500,3.10237646484375,-0.525787353515625,0.20263671875,0.7147216796875
1772701667023424500,3.112424560546875,-0.5274200439453125,0.2046661376953125,0.7030029296875
1772701667033472500,3.122472412109375,-0.532623291015625,0.2104949951171875,0.70220947265625
1772701667043520500,3.1325205078125,-0.5443878173828125,0.218017578125,0.69500732421875
1772701667053568300,3.142568359375,-0.552093505859375,0.225341796875,0.6890716552734375
1772701667063616500,3.152616455078125,-0.55877685546875,0.229248046875,0.6881256103515625
1772701667073664500,3.16266455078125,-0.56805419921875,0.2283477783203125,0.6825103759765625
1772701667083712300,3.172712158203125,-0.572021484375,0.229888916015625,0.6808013916015625
1772701667093760500,3.182760498046875,-0.5838775634765625,0.2409210205078125,0.679595947265625
1772701667103808500,3.19280859375,-0.601104736328125,0.24456787109375,0.679046630859375
1772701667113856300,3.202856201171875,-0.60992431640625,0.2374114990234375,0.6934051513671875
1772701667123904500,3.212904541015625,-0.6108551025390625,0.2356109619140625,0.7117767333984375
1772701667133952300,3.2229521484375,-0.6136474609375,0.2450408935546875,0.7236175537109375
1772701667144001500,3.23300146484375,-0.6240386962890625,0.25897216796875,0.7399444580078125
1772701667154049300,3.24304931640625,-0.6346282958984375,0.2747039794921875,0.7554168701171875
1772701667164097300,3.25309716796875,-0.635955810546875,0.291046142578125,0.7685394287109375
1772701667174145500,3.2631455078125,-0.6368255615234375,0.3079071044921875,0.7801055908203125
1772701667184193300,3.273193359375,-0.63641357421875,0.3187713623046875,0.78802490234375
1772701667194241300,3.2832412109375,-0.636993408203125,0.3213653564453125,0.792938232421875
1772701667204289500,3.29328955078125,-0.6466827392578125,0.335113525390625,0.786834716796875
1772701667214337300,3.303337158203125,-0.6654510498046875,0.339263916015625,0.7776031494140625
1772701667224386600,3.313386474609375,-0.67950439453125,0.3254547119140625,0.7660980224609375
1772701667234434300,3.323434326171875,-0.687896728515625,0.3040008544921875,0.75970458984375
1772701667244482300,3.333482421875,-0.6916351318359375,0.2840576171875,0.752532958984375
1772701667254530300,3.3435302734375,-0.6981353759765625,0.254150390625,0.7476806640625
1772701667264578300,3.353578369140625,-0.702056884765625,0.22198486328125,0.737030029296875
1772701667274626600,3.36362646484375,-0.70843505859375,0.2106170654296875,0.73504638671875
1772701667284674300,3.37367431640625,-0.6988067626953125,0.234771728515625,0.782012939453125
1772701667294722300,3.383722412109375,-0.653472900390625,0.2891693115234375,0.9068450927734375
1772701667304770600,3.3937705078125,-0.64630126953125,0.331756591796875,0.960174560546875
1772701667314818300,3.403818359375,-0.644073486328125,0.3189239501953125,0.90679931640625
1772701667324866300,3.4138662109375,-0.634033203125,0.2944183349609375,0.8879241943359375
1772701667334914600,3.42391455078125,-0.618560791015625,0.282440185546875,0.9084014892578125
1772701667344962300,3.43396240234375,-0.59332275390625,0.288360595703125,0.9072265625
1772701667355010300,3.44401025390625,-0.5527496337890625,0.295928955078125,0.896270751953125
1772701667365058300,3.454058349609375,-0.512786865234375,0.2954559326171875,0.8827667236328125
1772701667375106300,3.464106201171875,-0.50811767578125,0.300537109375,0.8774261474609375
1772701667385154600,3.474154541015625,-0.5201873779296875,0.303619384765625,0.8545074462890625
1772701667395202300,3.484202392578125,-0.532196044921875,0.2830963134765625,0.7780303955078125
1772701667405250300,3.494250244140625,-0.547515869140625,0.26043701171875,0.6895751953125
1772701667415298600,3.504298583984375,-0.5693817138671875,0.2411956787109375,0.6217193603515625
1772701667425346300,3.51434619140625,-0.5829925537109375,0.2200927734375,0.5711669921875
1772701667435394300,3.524394287109375,-0.5848846435546875,0.2175750732421875,0.55035400390625
1772701667445442600,3.534442626953125,-0.61419677734375,0.2183074951171875,0.5320281982421875
1772701667455490300,3.544490234375,-0.63812255859375,0.219207763671875,0.535858154296875
1772701667465538600,3.55453857421875,-0.6278076171875,0.2367095947265625,0.5707855224609375
1772701667475586300,3.56458642578125,-0.6107177734375,0.285919189453125,0.6431121826171875
1772701667485634300,3.57463427734375,-0.6190643310546875,0.3365325927734375,0.71514892578125
1772701667495682600,3.5846826171875,-0.6475830078125,0.3768768310546875,0.7611846923828125
1772701667505730300,3.594730224609375,-0.6685028076171875,0.4039764404296875,0.78497314453125
1772701667515778300,3.6047783203125,-0.6361541748046875,0.4125823974609375,0.8003082275390625
1772701667525827300,3.614827392578125,-0.565093994140625,0.409637451171875,0.7958221435546875
1772701667535875300,3.624875244140625,-0.5247955322265625,0.409881591796875,0.761383056640625
1772701667545923600,3.634923583984375,-0.51336669921875,0.3996734619140625,0.7421112060546875
1772701667555971300,3.644971435546875,-0.516204833984375,0.3614501953125,0.730865478515625
1772701667566019300,3.655019287109375,-0.5168304443359375,0.3441619873046875,0.7045135498046875
1772701667576067300,3.6650673828125,-0.515716552734375,0.3538970947265625,0.69281005859375
1772701667586115300,3.675115234375,-0.513397216796875,0.368377685546875,0.7006072998046875
1772701667596163300,3.685163330078125,-0.514190673828125,0.3740997314453125,0.733367919921875
1772701667606211300,3.69521142578125,-0.524322509765625,0.3805389404296875,0.7625732421875
1772701667616259300,3.70525927734375,-0.545257568359375,0.376220703125,0.7755126953125
1772701667626307600,3.7153076171875,-0.578826904296875,0.36712646484375,0.7864837646484375
1772701667636355300,3.725355224609375,-0.612030029296875,0.36212158203125,0.8063201904296875
1772701667646403300,3.7354033203125,-0.6258087158203125,0.35186767578125,0.8139495849609375
1772701667656451600,3.74545166015625,-0.61859130859375,0.336029052734375,0.80584716796875
1772701667666499300,3.755499267578125,-0.62420654296875,0.312042236328125,0.78582763671875
1772701667676547300,3.76554736328125,-0.6364288330078125,0.29266357421875,0.778656005859375
1772701667686595300,3.77559521484375,-0.64422607421875,0.2939910888671875,0.7786712646484375
1772701667696643300,3.785643310546875,-0.6464385986328125,0.306915283203125,0.7936859130859375
1772701667706691600,3.795691650390625,-0.63165283203125,0.32537841796875,0.8007659912109375
1772701667716739300,3.8057392578125,-0.6113739013671875,0.335205078125,0.7690887451171875
1772701667726787300,3.815787353515625,-0.594451904296875,0.3395538330078125,0.721954345703125
1772701667736835600,3.825835693359375,-0.57275390625,0.3477935791015625,0.6778411865234375
1772701667746883300,3.83588330078125,-0.551055908203125,0.3477325439453125,0.6448211669921875
1772701667756931300,3.845931396484375,-0.5326080322265625,0.346832275390625,0.621795654296875
1772701667766979300,3.855979248046875,-0.5083465576171875,0.3654022216796875,0.61407470703125
1772701667777027300,3.86602734375,-0.4898223876953125,0.38262939453125,0.63067626953125
1772701667787075300,3.876075439453125,-0.4873809814453125,0.386444091796875,0.6660003662109375
1772701667797123300,3.886123291015625,-0.492401123046875,0.3927764892578125,0.680877685546875
1772701667807171300,3.89617138671875,-0.493865966796875,0.39288330078125,0.6937103271484375
1772701667817219600,3.906219482421875,-0.5057220458984375,0.3884429931640625,0.70556640625
1772701667827267300,3.916267333984375,-0.5262451171875,0.3778839111328125,0.7100372314453125
1772701667837316400,3.92631640625,-0.549163818359375,0.3715057373046875,0.716156005859375
1772701667847364400,3.9363642578125,-0.5588226318359375,0.36383056640625,0.7165069580078125
1772701667857412400,3.946412353515625,-0.576385498046875,0.3460235595703125,0.724578857421875
1772701667867460600,3.956460693359375,-0.5947418212890625,0.341339111328125,0.72894287109375
1772701667877508400,3.96650830078125,-0.5987091064453125,0.34033203125,0.741180419921875
1772701667887556400,3.976556396484375,-0.587432861328125,0.32672119140625,0.7481689453125
1772701667897604400,3.986604248046875,-0.5982666015625,0.3088836669921875,0.746185302734375
1772701667907652400,3.99665234375,-0.6271514892578125,0.287567138671875,0.7432708740234375
1772701667917700400,4.006700439453125,-0.6516265869140625,0.27886962890625,0.7563018798828125
1772701667927748400,4.016748291015625,-0.65130615234375,0.27142333984375,0.7642059326171875
1772701667937796400,4.02679638671875,-0.6422271728515625,0.25531005859375,0.7572021484375
1772701667947844400,4.03684423828125,-0.638336181640625,0.247406005859375,0.7479705810546875
1772701667957892400,4.046892333984375,-0.6316680908203125,0.23834228515625,0.7423858642578125
1772701667967940400,4.0569404296875,-0.6319732666015625,0.2375640869140625,0.737823486328125
1772701667977988600,4.066988525390625,-0.639862060546875,0.2373046875,0.7262115478515625
1772701667988036400,4.077036376953125,-0.64599609375,0.2348480224609375,0.721405029296875
1772701667998084400,4.08708447265625,-0.6381988525390625,0.2398681640625,0.7312774658203125
1772701668008132400,4.09713232421875,-0.6246185302734375,0.2471466064453125,0.7452850341796875
1772701668018180400,4.107180419921875,-0.60748291015625,0.254302978515625,0.7520751953125
1772701668028228400,4.117228271484375,-0.6009674072265625,0.2742156982421875,0.743072509765625
1772701668038276400,4.1272763671875,-0.5891265869140625,0.3077850341796875,0.742340087890625
1772701668048324400,4.137324462890625,-0.566650390625,0.34088134765625,0.7503509521484375
1772701668058372600,4.14737255859375,-0.5580902099609375,0.3725738525390625,0.75396728515625
1772701668068420400,4.15742041015625,-0.5619354248046875,0.385894775390625,0.7616119384765625
1772701668078468400,4.16746826171875,-0.554473876953125,0.3902740478515625,0.768707275390625
1772701668088516400,4.177516357421875,-0.549560546875,0.394317626953125,0.77630615234375
1772701668098564400,4.187564453125,-0.544647216796875,0.400726318359375,0.775390625
1772701668108612400,4.1976123046875,-0.54644775390625,0.408355712890625,0.767608642578125
1772701668118660400,4.207660400390625,-0.5438690185546875,0.4027862548828125,0.75640869140625
1772701668128709400,4.21770947265625,-0.54620361328125,0.386749267578125,0.741943359375
1772701668138757400,4.22775732421875,-0.5616302490234375,0.37274169921875,0.7329864501953125
1772701668148805000,4.23780517578125,-0.57525634765625,0.359649658203125,0.714935302734375
1772701668158853000,4.24785302734375,-0.5977935791015625,0.3485260009765625,0.692657470703125
1772701668168901000,4.257901123046875,-0.6181640625,0.335205078125,0.6751556396484375
1772701668178949000,4.26794921875,-0.62841796875,0.33233642578125,0.7011260986328125
1772701668188997000,4.2779970703125,-0.5427703857421875,0.359375,0.828155517578125
1772701668199045000,4.288045166015625,-0.482574462890625,0.4319915771484375,0.9771728515625
1772701668209093000,4.298093017578125,-0.5423431396484375,0.483673095703125,0.9791107177734375
1772701668219141000,4.30814111328125,-0.5035400390625,0.4971466064453125,0.974945068359375
1772701668229189000,4.318189208984375,-0.4722900390625,0.502960205078125,0.9970703125
1772701668239237000,4.328237060546875,-0.4552154541015625,0.4950714111328125,1.0092620849609375
1772701668249285000,4.33828515625,-0.452117919921875,0.4858551025390625,0.9849395751953125
1772701668259333000,4.3483330078125,-0.4554595947265625,0.47308349609375,0.9329986572265625
1772701668269381000,4.358381103515625,-0.469757080078125,0.441497802734375,0.8870697021484375
1772701668279429000,4.36842919921875,-0.497161865234375,0.39208984375,0.8554534912109375
1772701668289477000,4.37847705078125,-0.5147247314453125,0.3439483642578125,0.8392333984375
1772701668299525000,4.388525146484375,-0.499603271484375,0.2920684814453125,0.80731201171875
1772701668309573000,4.398572998046875,-0.4698638916015625,0.262054443359375,0.7957916259765625
1772701668319621000,4.40862109375,-0.451568603515625,0.28857421875,0.818878173828125
1772701668329669000,4.418669189453125,-0.4329681396484375,0.33251953125,0.8297882080078125
1772701668339717000,4.428717041015625,-0.417083740234375,0.3635406494140625,0.837249755859375
1772701668349765000,4.43876513671875,-0.4073638916015625,0.36285400390625,0.8592071533203125
1772701668359813000,4.448813232421875,-0.3912506103515625,0.347198486328125,0.8885955810546875
1772701668369861000,4.458861083984375,-0.3728790283203125,0.344573974609375,0.8992767333984375
1772701668379909000,4.4689091796875,-0.35784912109375,0.349517822265625,0.8944854736328125
1772701668389957000,4.47895703125,-0.350738525390625,0.358489990234375,0.876983642578125
1772701668400005000,4.489005126953125,-0.3440093994140625,0.368072509765625,0.8516082763671875
1772701668410054100,4.49905419921875,-0.3353729248046875,0.3792877197265625,0.847137451171875
1772701668420102100,4.50910205078125,-0.32989501953125,0.37957763671875,0.8591461181640625
1772701668430150100,4.519150146484375,-0.3175048828125,0.385833740234375,0.84686279296875
1772701668440198100,4.5291982421875,-0.3084564208984375,0.39080810546875,0.8326416015625
1772701668450246100,4.53924609375,-0.304534912109375,0.3858184814453125,0.8157196044921875
1772701668460294100,4.549294189453125,-0.3168487548828125,0.3675994873046875,0.812744140625
1772701668470342100,4.559342041015625,-0.3177490234375,0.3390045166015625,0.818084716796875
1772701668480390100,4.56939013671875,-0.293670654296875,0.3341522216796875,0.8068695068359375
1772701668490438100,4.579438232421875,-0.2913055419921875,0.3298797607421875,0.8038177490234375
1772701668500486100,4.589486083984375,-0.302825927734375,0.322235107421875,0.801727294921875
1772701668510534100,4.5995341796875,-0.31475830078125,0.3130035400390625,0.8131561279296875
1772701668520582100,4.60958203125,-0.3239898681640625,0.311248779296875,0.8331298828125
1772701668530630100,4.619630126953125,-0.346466064453125,0.3033447265625,0.8520355224609375
1772701668540678100,4.62967822265625,-0.3750762939453125,0.2989044189453125,0.868988037109375
1772701668550726100,4.63972607421875,-0.410858154296875,0.299346923828125,0.8771514892578125
1772701668560774100,4.649774169921875,-0.4323883056640625,0.314788818359375,0.88018798828125
1772701668570822100,4.659822265625,-0.457977294921875,0.3304443359375,0.892578125
1772701668580870100,4.6698701171875,-0.488555908203125,0.335723876953125,0.9128265380859375
1772701668590918100,4.679918212890625,-0.501312255859375,0.3336639404296875,0.9229888916015625
1772701668600966100,4.689966064453125,-0.4865875244140625,0.3351898193359375,0.92230224609375
1772701668611014100,4.70001416015625,-0.4673004150390625,0.332916259765625,0.910186767578125
1772701668621062100,4.710062255859375,-0.446746826171875,0.3203277587890625,0.89764404296875
1772701668631110100,4.720110107421875,-0.4185943603515625,0.2977447509765625,0.882232666015625
1772701668641158100,4.730158203125,-0.3896484375,0.2725982666015625,0.8680572509765625
1772701668651206100,4.7402060546875,-0.3718414306640625,0.266937255859375,0.8532257080078125
1772701668661254100,4.750254150390625,-0.3650054931640625,0.26922607421875,0.834442138671875
1772701668671302100,4.76030224609375,-0.35845947265625,0.27203369140625,0.808380126953125
1772701668681350100,4.77035009765625,-0.360809326171875,0.2743377685546875,0.790374755859375
1772701668691398100,4.780398193359375,-0.364349365234375,0.2698211669921875,0.775482177734375
1772701668701447200,4.790447265625,-0.3741455078125,0.267913818359375,0.7675323486328125
1772701668711495200,4.8004951171875,-0.3832855224609375,0.263214111328125,0.765899658203125
1772701668721543200,4.810543212890625,-0.3922271728515625,0.254486083984375,0.7752532958984375
1772701668731591200,4.820591064453125,-0.397674560546875,0.2520904541015625,0.7884063720703125
1772701668741639200,4.83063916015625,-0.397857666015625,0.25396728515625,0.8078155517578125
1772701668751687200,4.840687255859375,-0.4024200439453125,0.2606201171875,0.8233795166015625
1772701668761735200,4.850735107421875,-0.4104766845703125,0.2672576904296875,0.83489990234375
1772701668771783200,4.860783203125,-0.4140472412109375,0.27301025390625,0.8497161865234375
1772701668781831000,4.870830810546875,-0.420745849609375,0.275299072265625,0.8594512939453125
1772701668791879200,4.880879150390625,-0.433624267578125,0.2772674560546875,0.8573150634765625
1772701668801927200,4.89092724609375,-0.44793701171875,0.28363037109375,0.84503173828125
1772701668811975200,4.90097509765625,-0.463653564453125,0.292633056640625,0.8328094482421875
1772701668822023200,4.911023193359375,-0.482452392578125,0.291717529296875,0.828460693359375
1772701668832071200,4.9210712890625,-0.5032196044921875,0.2906036376953125,0.824249267578125
1772701668842119200,4.931119140625,-0.52447509765625,0.2871246337890625,0.8214111328125
1772701668852167200,4.941167236328125,-0.5396881103515625,0.2900390625,0.8179931640625
1772701668862215200,4.951215087890625,-0.55108642578125,0.292724609375,0.813018798828125
1772701668872263200,4.96126318359375,-0.55389404296875,0.287139892578125,0.807220458984375
1772701668882311200,4.971311279296875,-0.5526580810546875,0.286224365234375,0.8005828857421875
1772701668892359000,4.98135888671875,-0.5489349365234375,0.283660888671875,0.7955474853515625
1772701668902407200,4.9914072265625,-0.5427093505859375,0.2830047607421875,0.7926177978515625
1772701668912455200,5.001455078125,-0.5338897705078125,0.2820892333984375,0.7885589599609375
1772701668922503200,5.011503173828125,-0.5257415771484375,0.2722930908203125,0.784423828125
1772701668932551200,5.02155126953125,-0.518951416015625,0.2686004638671875,0.775665283203125
1772701668942599200,5.03159912109375,-0.5144500732421875,0.2698211669921875,0.763214111328125
1772701668952647200,5.041647216796875,-0.5153045654296875,0.2736358642578125,0.7628936767578125
1772701668962695200,5.051695068359375,-0.5187835693359375,0.2720794677734375,0.770751953125
1772701668972744200,5.061744140625,-0.5158843994140625,0.2753753662109375,0.7755584716796875
1772701668982792200,5.071792236328125,-0.5111083984375,0.279541015625,0.7810211181640625
1772701668992840000,5.08183984375,-0.5089111328125,0.2834320068359375,0.78826904296875
1772701669002888200,5.09188818359375,-0.504913330078125,0.277435302734375,0.80645751953125
1772701669012936200,5.101936279296875,-0.5034332275390625,0.2673187255859375,0.826263427734375
1772701669022984000,5.11198388671875,-0.4998626708984375,0.276885986328125,0.827392578125
1772701669033032200,5.1220322265625,-0.5108489990234375,0.297607421875,0.820587158203125
1772701669043080200,5.132080078125,-0.5428466796875,0.306610107421875,0.8079681396484375
1772701669053128200,5.142128173828125,-0.57122802734375,0.316314697265625,0.8009796142578125
1772701669063176200,5.15217626953125,-0.595489501953125,0.3236541748046875,0.78973388671875
1772701669073224200,5.16222412109375,-0.6158599853515625,0.3236846923828125,0.781890869140625
1772701669083272200,5.172272216796875,-0.6269989013671875,0.3185882568359375,0.7731475830078125
1772701669093320200,5.1823203125,-0.6318206787109375,0.314605712890625,0.7624359130859375
1772701669103368000,5.192367919921875,-0.631805419921875,0.2996063232421875,0.753387451171875
1772701669113416200,5.202416259765625,-0.63555908203125,0.283416748046875,0.7538604736328125
1772701669123464200,5.212464111328125,-0.6404876708984375,0.26507568359375,0.7512054443359375
1772701669133512000,5.222511962890625,-0.64453125,0.2478485107421875,0.753326416015625
1772701669143559400,5.232559326171875,-0.6537017822265625,0.23223876953125,0.7624359130859375
1772701669153607400,5.242607421875,-0.6612548828125,0.2277374267578125,0.761383056640625
1772701669163655400,5.252655517578125,-0.672821044921875,0.229888916015625,0.756866455078125
1772701669173703400,5.262703369140625,-0.6847686767578125,0.2278594970703125,0.7364044189453125
1772701669183751400,5.27275146484375,-0.668701171875,0.2285003662109375,0.782440185546875
1772701669193799400,5.28279931640625,-0.595916748046875,0.236114501953125,0.9491424560546875
1772701669203847400,5.292847412109375,-0.5544586181640625,0.2755889892578125,1.056182861328125
1772701669213895400,5.3028955078125,-0.6072845458984375,0.33978271484375,1.0259246826171875
1772701669223943400,5.312943359375,-0.62493896484375,0.3776092529296875,1.006622314453125
1772701669233992400,5.322992431640625,-0.6004638671875,0.36029052734375,1.0399322509765625
1772701669244040400,5.33304052734375,-0.5508880615234375,0.3371124267578125,1.06585693359375
1772701669254088400,5.34308837890625,-0.519256591796875,0.3145599365234375,1.05364990234375
1772701669264136200,5.35313623046875,-0.52935791015625,0.295623779296875,0.9911041259765625
1772701669274184400,5.363184326171875,-0.559417724609375,0.29498291015625,0.921783447265625
1772701669284232400,5.373232421875,-0.583648681640625,0.2939300537109375,0.9071197509765625
1772701669294280400,5.383280517578125,-0.5903778076171875,0.267120361328125,0.8935089111328125
1772701669304328400,5.393328369140625,-0.57452392578125,0.2108917236328125,0.857666015625
1772701669314376400,5.40337646484375,-0.520599365234375,0.1494140625,0.837158203125
1772701669324424400,5.413424560546875,-0.46124267578125,0.113555908203125,0.83050537109375
1772701669334472400,5.423472412109375,-0.4178619384765625,0.1112213134765625,0.8196563720703125
1772701669344520400,5.4335205078125,-0.3944244384765625,0.1241302490234375,0.790863037109375
1772701669354568400,5.443568359375,-0.378326416015625,0.136566162109375,0.7645263671875
1772701669364616400,5.453616455078125,-0.3571929931640625,0.167694091796875,0.741455078125
1772701669374664400,5.46366455078125,-0.34918212890625,0.2009429931640625,0.722442626953125
1772701669384712400,5.47371240234375,-0.35491943359375,0.2158050537109375,0.70269775390625
1772701669394760400,5.483760498046875,-0.357513427734375,0.23358154296875,0.6789093017578125
1772701669404808400,5.493808349609375,-0.3712310791015625,0.251007080078125,0.686370849609375
1772701669414856400,5.5038564453125,-0.382904052734375,0.2628631591796875,0.68115234375
1772701669424904400,5.513904541015625,-0.3983001708984375,0.280120849609375,0.669769287109375
1772701669434952400,5.523952392578125,-0.447601318359375,0.302947998046875,0.6699676513671875
1772701669445000400,5.53400048828125,-0.5303802490234375,0.3187255859375,0.6609649658203125
1772701669455048400,5.54404833984375,-0.6329193115234375,0.2807464599609375,0.6448516845703125
1772701669465096400,5.554096435546875,-0.69757080078125,0.242767333984375,0.6569061279296875
1772701669475144400,5.56414453125,-0.7086029052734375,0.2450103759765625,0.7015228271484375
1772701669485193500,5.574193359375,-0.7053375244140625,0.263641357421875,0.7641754150390625
1772701669495241500,5.584241455078125,-0.706695556640625,0.2811431884765625,0.84100341796875
1772701669505289200,5.594289306640625,-0.708953857421875,0.29034423828125,0.893646240234375
1772701669515337500,5.60433740234375,-0.712890625,0.2938079833984375,0.891693115234375
1772701669525385500,5.614385498046875,-0.708831787109375,0.2823028564453125,0.857574462890625
1772701669535433500,5.62443359375,-0.70538330078125,0.262908935546875,0.8309478759765625
1772701669545481500,5.6344814453125,-0.710052490234375,0.241973876953125,0.82611083984375
1772701669555529500,5.644529541015625,-0.7152557373046875,0.225860595703125,0.8215179443359375
1772701669565577500,5.654577392578125,-0.71728515625,0.22137451171875,0.7957916259765625
1772701669575625500,5.66462548828125,-0.701934814453125,0.2276611328125,0.7611236572265625
1772701669585673200,5.674673095703125,-0.663421630859375,0.2372894287109375,0.7318572998046875
1772701669595721500,5.684721435546875,-0.6299896240234375,0.2486114501953125,0.711883544921875
1772701669605769500,5.69476953125,-0.6023101806640625,0.263092041015625,0.6967315673828125
1772701669615817200,5.704817138671875,-0.56317138671875,0.279266357421875,0.697296142578125
1772701669625865500,5.714865478515625,-0.5185394287109375,0.29498291015625,0.7042236328125
1772701669635913500,5.72491357421875,-0.487579345703125,0.311248779296875,0.71197509765625
1772701669645961500,5.73496142578125,-0.473388671875,0.324127197265625,0.7105560302734375
1772701669656009500,5.745009521484375,-0.4651641845703125,0.3461761474609375,0.7184906005859375
1772701669666057500,5.755057373046875,-0.4554595947265625,0.3647003173828125,0.7501068115234375
1772701669676105500,5.76510546875,-0.4583892822265625,0.3703155517578125,0.7942047119140625
1772701669686153500,5.775153564453125,-0.4509735107421875,0.371246337890625,0.821533203125
1772701669696201200,5.785201171875,-0.4525604248046875,0.3642730712890625,0.82666015625
1772701669706249500,5.79524951171875,-0.4723968505859375,0.350189208984375,0.7988739013671875
1772701669716297500,5.80529736328125,-0.5135498046875,0.31439208984375,0.78070068359375
1772701669726345500,5.815345458984375,-0.5495147705078125,0.27734375,0.7935943603515625
1772701669736394500,5.82539453125,-0.5799713134765625,0.267547607421875,0.81378173828125
1772701669746442200,5.835442138671875,-0.5959930419921875,0.2742156982421875,0.834503173828125
1772701669756490500,5.845490478515625,-0.5990447998046875,0.2824859619140625,0.8504791259765625
1772701669766538500,5.85553857421875,-0.595123291015625,0.292877197265625,0.8731231689453125
1772701669776586500,5.86558642578125,-0.5929718017578125,0.3015899658203125,0.8811492919921875
1772701669786634500,5.875634521484375,-0.6007232666015625,0.2963714599609375,0.87969970703125
1772701669796682200,5.88568212890625,-0.6053009033203125,0.289886474609375,0.8800506591796875
1772701669806730500,5.89573046875,-0.6082305908203125,0.2835540771484375,0.8748931884765625
1772701669816778500,5.905778564453125,-0.602142333984375,0.2770233154296875,0.8631744384765625
1772701669826826200,5.915826171875,-0.5835723876953125,0.2742767333984375,0.8597259521484375
1772701669836874500,5.92587451171875,-0.5623016357421875,0.2769927978515625,0.8583221435546875
1772701669846922500,5.935922607421875,-0.5376739501953125,0.272705078125,0.8472442626953125
1772701669856970200,5.94597021484375,-0.5148162841796875,0.2688751220703125,0.8352508544921875
1772701669867018500,5.9560185546875,-0.4912261962890625,0.2701263427734375,0.8295440673828125
1772701669877066500,5.96606640625,-0.470733642578125,0.274261474609375,0.8180084228515625
1772701669887114500,5.976114501953125,-0.455963134765625,0.28045654296875,0.808837890625
1772701669897162500,5.98616259765625,-0.439178466796875,0.284210205078125,0.785858154296875
1772701669907210200,5.996210205078125,-0.431243896484375,0.2846527099609375,0.7631378173828125
1772701669917258500,6.006258544921875,-0.4364776611328125,0.2877197265625,0.74566650390625
1772701669927306500,6.016306396484375,-0.4423980712890625,0.283599853515625,0.734130859375
1772701669937354200,6.026354248046875,-0.446502685546875,0.2752532958984375,0.720458984375
1772701669947402500,6.036402587890625,-0.448333740234375,0.2701416015625,0.7042388916015625
1772701669957450500,6.046450439453125,-0.455596923828125,0.261566162109375,0.6934814453125
1772701669967499500,6.05649951171875,-0.4698333740234375,0.2545013427734375,0.6894683837890625
1772701669977547500,6.066547607421875,-0.4932098388671875,0.25811767578125,0.6933746337890625
1772701669987595300,6.07659521484375,-0.5189666748046875,0.2660980224609375,0.708343505859375
1772701669997643500,6.0866435546875,-0.547454833984375,0.2723541259765625,0.720367431640625
1772701670007691300,6.096691162109375,-0.5780792236328125,0.272003173828125,0.73297119140625
1772701670017739500,6.106739501953125,-0.60333251953125,0.2712554931640625,0.7437591552734375
1772701670027787500,6.11678759765625,-0.6147308349609375,0.266021728515625,0.7490081787109375
1772701670037835300,6.126835205078125,-0.6206512451171875,0.2676849365234375,0.750274658203125
1772701670047883500,6.136883544921875,-0.6356658935546875,0.2684478759765625,0.7491912841796875
1772701670057931500,6.146931640625,-0.6557769775390625,0.260589599609375,0.7480316162109375
1772701670067979300,6.156979248046875,-0.6781005859375,0.2493438720703125,0.7474212646484375
1772701670078027500,6.167027587890625,-0.6976165771484375,0.24188232421875,0.7490692138671875
1772701670088075500,6.177075439453125,-0.706939697265625,0.230926513671875,0.74713134765625
1772701670098123300,6.187123291015625,-0.70904541015625,0.2216339111328125,0.7514495849609375
1772701670108171500,6.197171630859375,-0.706207275390625,0.21343994140625,0.74932861328125
1772701670118219300,6.20721923828125,-0.69921875,0.2129058837890625,0.7392730712890625
1772701670128267500,6.217267578125,-0.695343017578125,0.211700439453125,0.7315673828125
1772701670138315500,6.2273154296875,-0.698516845703125,0.2086029052734375,0.7229461669921875
1772701670148364300,6.2373642578125,-0.704071044921875,0.207611083984375,0.716796875
1772701670158412500,6.24741259765625,-0.7034759521484375,0.220977783203125,0.7248687744140625
1772701670168460300,6.257460205078125,-0.6956634521484375,0.243865966796875,0.78326416015625
1772701670178508300,6.26750830078125,-0.6095428466796875,0.272125244140625,0.91033935546875
1772701670188556500,6.277556640625,-0.5916290283203125,0.3256378173828125,0.95306396484375
1772701670198604300,6.287604248046875,-0.621978759765625,0.3564910888671875,0.95953369140625
1772701670208653600,6.297653564453125,-0.6076812744140625,0.3728790283203125,1.004669189453125
1772701670218701300,6.307701416015625,-0.5922698974609375,0.3768310546875,1.0341339111328125
1772701670228749300,6.317749267578125,-0.56573486328125,0.3643798828125,1.0139923095703125
1772701670238797300,6.32779736328125,-0.564117431640625,0.3193206787109375,0.9898834228515625
1772701670248845300,6.33784521484375,-0.5934906005859375,0.2477874755859375,0.952667236328125
1772701670258893600,6.3478935546875,-0.594329833984375,0.174896240234375,0.9004364013671875
1772701670268941300,6.35794140625,-0.5322265625,0.1247711181640625,0.8590240478515625
1772701670278989300,6.3679892578125,-0.487091064453125,0.103729248046875,0.826812744140625
1772701670289037600,6.37803759765625,-0.47064208984375,0.1100921630859375,0.813812255859375
1772701670299085300,6.388085205078125,-0.443939208984375,0.1515655517578125,0.8044586181640625
1772701670309133300,6.39813330078125,-0.4420013427734375,0.1975555419921875,0.7928924560546875
1772701670319181600,6.408181640625,-0.4414520263671875,0.2423858642578125,0.79229736328125
1772701670329229300,6.418229248046875,-0.4409027099609375,0.2761688232421875,0.8103790283203125
1772701670339277300,6.42827734375,-0.4182891845703125,0.285888671875,0.8240966796875
1772701670349325300,6.4383251953125,-0.3933868408203125,0.2441864013671875,0.82720947265625
1772701670359373300,6.448373291015625,-0.3910675048828125,0.201507568359375,0.8509368896484375
1772701670369421600,6.458421630859375,-0.3965301513671875,0.1881103515625,0.8791656494140625
1772701670379469300,6.46846923828125,-0.387298583984375,0.163848876953125,0.86700439453125
1772701670389517300,6.478517333984375,-0.3872222900390625,0.1376190185546875,0.8522491455078125
1772701670399565600,6.488565673828125,-0.4010772705078125,0.1204376220703125,0.8389739990234375
1772701670409613300,6.49861328125,-0.414031982421875,0.120391845703125,0.8150787353515625
1772701670419661300,6.508661376953125,-0.4416656494140625,0.1359710693359375,0.8001861572265625
1772701670429710300,6.51871044921875,-0.4766998291015625,0.178497314453125,0.812103271484375
1772701670439758300,6.52875830078125,-0.4840545654296875,0.225738525390625,0.8254241943359375
1772701670449806300,6.538806396484375,-0.4640960693359375,0.22991943359375,0.832000732421875
1772701670459854300,6.548854248046875,-0.443634033203125,0.2233123779296875,0.85723876953125
1772701670469902300,6.55890234375,-0.437957763671875,0.2266845703125,0.87738037109375
1772701670479950300,6.568950439453125,-0.450653076171875,0.23126220703125,0.8818511962890625
1772701670489998300,6.578998291015625,-0.4821624755859375,0.223846435546875,0.8935089111328125
1772701670500046600,6.589046630859375,-0.50836181640625,0.2162017822265625,0.8966827392578125
1772701670510094300,6.59909423828125,-0.5211639404296875,0.2119903564453125,0.88189697265625
1772701670520142300,6.609142333984375,-0.52642822265625,0.208831787109375,0.8638763427734375
1772701670530190600,6.619190673828125,-0.5529632568359375,0.21160888671875,0.84112548828125
1772701670540238300,6.62923828125,-0.583831787109375,0.2178192138671875,0.808502197265625
1772701670550286300,6.639286376953125,-0.5841827392578125,0.2191009521484375,0.78472900390625
1772701670560334300,6.649334228515625,-0.5743865966796875,0.2065582275390625,0.7605743408203125
1772701670570382300,6.65938232421875,-0.5867767333984375,0.1759185791015625,0.7343292236328125
1772701670580430300,6.669430419921875,-0.5902862548828125,0.153656005859375,0.7317047119140625
1772701670590478300,6.679478271484375,-0.59918212890625,0.1266021728515625,0.7564697265625
1772701670600526300,6.6895263671875,-0.613189697265625,0.10675048828125,0.773651123046875
1772701670610574600,6.69957470703125,-0.602447509765625,0.1150054931640625,0.7863922119140625
1772701670620622300,6.709622314453125,-0.5955352783203125,0.13323974609375,0.80645751953125
1772701670630670300,6.71967041015625,-0.587188720703125,0.160980224609375,0.8260040283203125
1772701670640718300,6.72971826171875,-0.5698089599609375,0.1888275146484375,0.8342132568359375
1772701670650766300,6.739766357421875,-0.55352783203125,0.2124786376953125,0.8335113525390625
1772701670660815400,6.7498154296875,-0.538360595703125,0.2306671142578125,0.8364410400390625
1772701670670863400,6.75986328125,-0.532470703125,0.2403564453125,0.8428955078125
1772701670680911400,6.769911376953125,-0.540863037109375,0.245269775390625,0.849029541015625
1772701670690959400,6.77995947265625,-0.53948974609375,0.2458343505859375,0.8431243896484375
1772701670701007400,6.79000732421875,-0.5401153564453125,0.23614501953125,0.82470703125
1772701670711055400,6.800055419921875,-0.55023193359375,0.2213592529296875,0.799774169921875
1772701670721103400,6.810103271484375,-0.5576324462890625,0.218353271484375,0.7811737060546875
1772701670731151400,6.8201513671875,-0.5626373291015625,0.2177734375,0.7697296142578125
1772701670741199600,6.83019970703125,-0.5676116943359375,0.2199554443359375,0.761444091796875
1772701670751247400,6.840247314453125,-0.5751190185546875,0.2149200439453125,0.7480316162109375
1772701670761295400,6.85029541015625,-0.5862884521484375,0.2069549560546875,0.725616455078125
1772701670771343400,6.86034326171875,-0.596160888671875,0.1955718994140625,0.710296630859375
1772701670781391400,6.870391357421875,-0.5977935791015625,0.177825927734375,0.7096405029296875
1772701670791439400,6.880439453125,-0.6055450439453125,0.1685791015625,0.708221435546875
1772701670801487400,6.8904873046875,-0.6185302734375,0.1564178466796875,0.7068939208984375
1772701670811535400,6.900535400390625,-0.6252288818359375,0.1355133056640625,0.721954345703125
1772701670821583400,6.910583251953125,-0.6094512939453125,0.1214599609375,0.740631103515625
1772701670831631400,6.92063134765625,-0.60162353515625,0.1268463134765625,0.7465362548828125
1772701670841679400,6.930679443359375,-0.5958709716796875,0.1231231689453125,0.74468994140625
1772701670851727400,6.940727294921875,-0.5938262939453125,0.1321258544921875,0.74603271484375
1772701670861775400,6.950775390625,-0.597991943359375,0.1441802978515625,0.7413330078125
1772701670871824400,6.960824462890625,-0.6114349365234375,0.162353515625,0.7339324951171875
1772701670881872400,6.970872314453125,-0.618377685546875,0.1778717041015625,0.7310943603515625
1772701670891920400,6.98092041015625,-0.6297607421875,0.1917572021484375,0.7299346923828125
1772701670901968400,6.990968505859375,-0.6410064697265625,0.1983642578125,0.727020263671875
1772701670912016400,7.001016357421875,-0.65643310546875,0.2020263671875,0.723236083984375
1772701670922064400,7.011064453125,-0.6674957275390625,0.2075958251953125,0.7173004150390625
1772701670932112400,7.0211123046875,-0.679107666015625,0.22113037109375,0.7003173828125
1772701670942160400,7.031160400390625,-0.6943359375,0.2344818115234375,0.678741455078125
1772701670952208400,7.04120849609375,-0.702911376953125,0.2402191162109375,0.668243408203125
1772701670962256400,7.05125634765625,-0.7093658447265625,0.2442169189453125,0.6636505126953125
1772701670972304400,7.061304443359375,-0.7086181640625,0.2428436279296875,0.663665771484375
1772701670982352400,7.071352294921875,-0.71173095703125,0.23858642578125,0.6616973876953125
1772701670992400400,7.081400390625,-0.7190093994140625,0.23590087890625,0.6657562255859375
1772701671002448400,7.091448486328125,-0.72607421875,0.239776611328125,0.6959228515625
1772701671012496400,7.101496337890625,-0.69384765625,0.2539520263671875,0.8094482421875
1772701671022544400,7.11154443359375,-0.628204345703125,0.269317626953125,0.9837493896484375
1772701671032592400,7.12159228515625,-0.6148681640625,0.2989044189453125,1.02056884765625
1772701671042640400,7.131640380859375,-0.620208740234375,0.345458984375,0.9685821533203125
1772701671052688400,7.1416884765625,-0.591156005859375,0.3558502197265625,0.9684600830078125
1772701671062736400,7.151736328125,-0.5428314208984375,0.3115081787109375,1.0028228759765625
1772701671072784400,7.161784423828125,-0.535919189453125,0.270355224609375,1.00274658203125
1772701671082832400,7.171832275390625,-0.5481719970703125,0.2454071044921875,0.9659576416015625
1772701671092880400,7.18188037109375,-0.5710601806640625,0.2462310791015625,0.9327392578125
1772701671102929400,7.191929443359375,-0.5652313232421875,0.2485504150390625,0.9155120849609375
1772701671112977200,7.20197705078125,-0.53436279296875,0.203948974609375,0.872528076171875
1772701671123025400,7.212025390625,-0.5308837890625,0.1252288818359375,0.8075408935546875
1772701671133073400,7.222073486328125,-0.5458526611328125,0.06072998046875,0.746368408203125
1772701671143121400,7.232121337890625,-0.560577392578125,0.0430450439453125,0.6778106689453125
1772701671153169000,7.2421689453125,-0.571441650390625,0.065673828125,0.6325531005859375
1772701671163217000,7.252216796875,-0.59283447265625,0.073760986328125,0.6145477294921875
1772701671173265000,7.262264892578125,-0.618499755859375,0.07611083984375,0.628143310546875
1772701671183313000,7.27231298828125,-0.6366424560546875,0.0898895263671875,0.6856231689453125
1772701671193361000,7.28236083984375,-0.631317138671875,0.1183929443359375,0.7489776611328125
1772701671203409000,7.292408935546875,-0.611480712890625,0.161956787109375,0.805755615234375
1772701671213457000,7.302456787109375,-0.5948638916015625,0.2239837646484375,0.865997314453125
1772701671223505000,7.3125048828125,-0.6000823974609375,0.298492431640625,0.915985107421875
1772701671233553000,7.322552978515625,-0.5835723876953125,0.3500823974609375,0.929534912109375
1772701671243601000,7.332600830078125,-0.551544189453125,0.3766632080078125,0.9447174072265625
1772701671253649000,7.34264892578125,-0.5164947509765625,0.38031005859375,0.96124267578125
1772701671263697000,7.35269677734375,-0.4949951171875,0.3726806640625,0.96051025390625
1772701671273745000,7.362744873046875,-0.4857940673828125,0.376129150390625,0.929656982421875
1772701671283793000,7.37279296875,-0.480804443359375,0.3806610107421875,0.875335693359375
1772701671293842000,7.382842041015625,-0.474334716796875,0.3748321533203125,0.8376617431640625
1772701671303890000,7.392889892578125,-0.4805450439453125,0.36541748046875,0.8009796142578125
1772701671313938000,7.40293798828125,-0.4969940185546875,0.3630828857421875,0.7466278076171875
1772701671323986000,7.41298583984375,-0.518280029296875,0.371185302734375,0.692047119140625
1772701671334034000,7.423033935546875,-0.5400390625,0.375640869140625,0.6485137939453125
1772701671344082000,7.43308203125,-0.5401153564453125,0.378143310546875,0.626739501953125
1772701671354129700,7.443129638671875,-0.519989013671875,0.3779144287109375,0.6375579833984375
1772701671364178000,7.453177978515625,-0.5038299560546875,0.3692626953125,0.6741180419921875
1772701671374226000,7.463225830078125,-0.5124969482421875,0.3690643310546875,0.714569091796875
1772701671384273700,7.473273681640625,-0.5485992431640625,0.382049560546875,0.7483062744140625
1772701671394322000,7.483322021484375,-0.5863189697265625,0.4086761474609375,0.767181396484375
1772701671404370000,7.493369873046875,-0.6171112060546875,0.43438720703125,0.758636474609375
1772701671414418000,7.50341796875,-0.637237548828125,0.4483795166015625,0.7483978271484375
1772701671424466000,7.5134658203125,-0.65142822265625,0.44195556640625,0.7362823486328125
1772701671434514000,7.523513916015625,-0.65850830078125,0.419677734375,0.7250518798828125
1772701671444562000,7.53356201171875,-0.662384033203125,0.3875732421875,0.7131195068359375
1772701671454610000,7.54360986328125,-0.66259765625,0.365631103515625,0.703826904296875
1772701671464657700,7.55365771484375,-0.6548004150390625,0.3581085205078125,0.6869049072265625
1772701671474706000,7.563705810546875,-0.6364288330078125,0.35009765625,0.6703033447265625
1772701671484754000,7.57375390625,-0.612518310546875,0.3462677001953125,0.6573333740234375
1772701671494802000,7.583802001953125,-0.5942840576171875,0.3480224609375,0.6502227783203125
1772701671504851000,7.593850830078125,-0.5690765380859375,0.3561248779296875,0.6407318115234375
1772701671514898700,7.603898681640625,-0.5389556884765625,0.370849609375,0.6403350830078125
1772701671524947000,7.613947021484375,-0.51971435546875,0.3865509033203125,0.6482086181640625
1772701671534995000,7.623994873046875,-0.5122528076171875,0.4040679931640625,0.6598968505859375
1772701671545043000,7.63404296875,-0.5010986328125,0.407867431640625,0.665069580078125
1772701671555091000,7.644091064453125,-0.431732177734375,0.4165496826171875,0.6962127685546875
1772701671565139000,7.654138916015625,-0.5105743408203125,0.3986968994140625,0.7090911865234375
1772701671575187000,7.66418701171875,-0.591522216796875,0.3674468994140625,0.71527099609375
1772701671585235000,7.67423486328125,-0.6132354736328125,0.3852996826171875,0.717010498046875
1772701671595282700,7.68428271484375,-0.638275146484375,0.4002227783203125,0.704864501953125
1772701671605331000,7.6943310546875,-0.6653900146484375,0.411407470703125,0.7112274169921875
1772701671615379000,7.70437890625,-0.6837310791015625,0.4234161376953125,0.7360992431640625
1772701671625426700,7.7144267578125,-0.67816162109375,0.3871307373046875,0.744415283203125
1772701671635475000,7.724474853515625,-0.6443328857421875,0.370513916015625,0.735504150390625
