time,seconds_elapsed,z,y,x
1772701663946216200,0.03521630859375,-0.15614216334819792,0.013533727572858333,0.12583353432416916
1772701663956264000,0.045263916015625,-0.20101415525376795,-0.038059389281272886,0.16491934404373168
1772701663966312200,0.055312255859375,-0.20208324579000472,-0.05260375520139932,0.11047171454131603
1772701663976360200,0.065360107421875,-0.1766553745448589,-0.06943126362264156,0.03439560607671738
1772701663986408000,0.075407958984375,-0.12624854486584663,-0.07598112365752459,0.05864625023603439
1772701663996456200,0.085456298828125,-0.08694237039387226,0.00867138223350048,0.04453063112199306
1772701664006504000,0.09550390625,-0.05724105961322784,0.02541764211207628,0.029577976661920545
1772701664016552000,0.105552001953125,0.0005868599772453308,-0.0016474749460816383,0.12820786224007605
1772701664026600200,0.11560009765625,-0.008883271418511867,-0.00177636202275753,0.2643319044321775
1772701664036648000,0.12564794921875,-0.008331775015592575,-0.027130583509802818,0.31092648234665393
1772701664046696000,0.135696044921875,-0.014814707294106482,0.11751783366054296,0.18507658140957353
1772701664056744200,0.145744140625,-0.1746732608169317,0.19614538017362354,0.09626198740303515
1772701664066793000,0.15579296875,-0.2975567131638527,0.199714178571105,-0.011304653346538542
1772701664076841200,0.16584130859375,-0.2290934177905321,0.22068711623400447,-0.1368289755910635
1772701664086889000,0.175888916015625,-0.06644435676634311,0.17460457949489355,-0.17405483665764332
1772701664096937000,0.18593701171875,0.07321195120513439,0.23021102364361284,-0.20436638829112053
1772701664106985200,0.195985107421875,0.11480915922373533,0.31291268772780895,-0.1753752716064453
1772701664117033000,0.206032958984375,0.09810703074783086,0.3228504366353154,-0.02428454642891884
1772701664127081200,0.216081298828125,0.07433423323333263,0.3005591098502278,0.06839139918088913
1772701664137129000,0.22612890625,0.05561199710667133,0.3040390609204769,0.016729601004719732
1772701664147176700,0.2361767578125,-0.0027080899149179456,0.31632191164940593,-0.11207388904094695
1772701664157225000,0.246224853515625,0.04311170423477888,0.3570598724901676,-0.3401894017100334
1772701664167272700,0.256272705078125,0.11288345185816287,0.4766831539973616,-0.6583125175625085
1772701664177320700,0.26632080078125,0.008035422417521476,0.4433426099315285,-0.8375503098160028
1772701664187369000,0.276368896484375,-0.20303601647019384,0.43660804097950456,-0.8952882130354642
1772701664197416700,0.286416748046875,-0.3604746493697166,0.3958466992631554,-0.9112444915801287
1772701664207464700,0.296464599609375,-0.5894190140783786,0.22266776865720747,-0.8368243336290121
1772701664217513000,0.306512939453125,-0.9040946198254823,-0.07285305476486682,-0.7327396897763013
1772701664227560700,0.316560791015625,-1.1207955890327692,-0.3973182331204414,-0.6935533422917127
1772701664237609000,0.32660888671875,-1.1448317136585713,-0.6299605755642056,-0.6643886226058006
1772701664247656700,0.33665673828125,-1.0398141728699206,-0.5508943453729153,-0.6506336534976959
1772701664257704700,0.34670458984375,-0.7649293102413416,-0.4160699876025319,-0.46895898948609827
1772701664267753000,0.3567529296875,-0.45262920145392416,-0.1452683026343584,-0.3857511294454336
1772701664277800700,0.36680078125,-0.3358911199942231,0.19600567944198846,-0.4308399789720773
1772701664287848700,0.3768486328125,-0.3080930124863982,0.5456958999469876,-0.3533224395275116
1772701664297897000,0.38689697265625,-0.27945816189348693,0.7678162638545036,-0.2831792282432318
1772701664307944700,0.39694482421875,-0.18905746773928403,0.8471578038558364,-0.22030337761342525
1772701664317992700,0.40699267578125,-0.1260094754129648,0.8209384899720549,-0.21998539770543574
1772701664328041000,0.417041015625,-0.09471008178591728,0.8339844340279697,-0.16539689842760563
1772701664338088700,0.427088623046875,0.016228373484313486,0.7590662634268402,0.05239654219150543
1772701664348137000,0.437136962890625,0.04271890552490949,0.6098322720319033,0.23412089056372642
1772701664358184700,0.447184814453125,0.07689473137110471,0.5611906984597445,0.08724339916706085
1772701664368232700,0.457232666015625,0.20968787557482718,0.5997697277009487,-0.07535130132138729
1772701664378281000,0.467281005859375,0.2360536121919751,0.6554574203923345,-0.13746084375381468
1772701664388328700,0.47732861328125,0.2759416782051325,0.7140636308789253,-0.33217443755865095
1772701664398376700,0.487376708984375,0.20982406917512417,0.665661711281538,-0.4462538212031126
1772701664408425000,0.497425048828125,0.07276011578440665,0.49264936941415066,-0.49871115367114544
1772701664418472700,0.50747265625,0.04481792363077402,0.1595391123101115,-0.396679350695014
1772701664428521000,0.51752099609375,0.020823592320084572,-0.088319211705029,-0.2772942618578672
1772701664438568700,0.527568603515625,0.015051730920374392,-0.24982114852070808,-0.2676888136446476
1772701664448616700,0.53761669921875,0.040347792479395864,-0.4184387625604868,-0.21978373765349388
1772701664458665700,0.547665771484375,0.1317652624607086,-0.5776940894931555,-0.187026546433568
1772701664468713700,0.557713623046875,0.31772534870654345,-0.7371788412675261,-0.3537573238134384
1772701664478762000,0.567761962890625,0.42557372900694607,-0.9024813394099473,-0.39643268245756624
1772701664488809700,0.577809814453125,0.415002942892909,-1.0663254554376005,-0.44590603067874907
1772701664498857700,0.587857666015625,0.3729138597041368,-1.1932353868216274,-0.6855670197129249
1772701664508906000,0.597906005859375,0.1842953679040074,-1.168741289295256,-0.7973416335463523
1772701664518953700,0.60795361328125,-0.09562924245744943,-1.0960884332776069,-0.7161433597624302
1772701664529001700,0.618001708984375,-0.4090712147563696,-0.9638795187026262,-0.3750251527696848
1772701664539050000,0.628050048828125,-0.7908461340472102,-0.7085588959828019,0.024442367339134213
1772701664549097700,0.63809765625,-1.1995388708800077,-0.3844078981429338,0.38445115276277064
1772701664559145700,0.648145751953125,-1.444499135366082,0.031221652215719223,0.5880184996306896
1772701664569193700,0.65819384765625,-1.5573302725151181,0.21971154920011757,0.8790572092026472
1772701664579241700,0.66824169921875,-1.5524804943963884,0.10472995601892471,1.0051602081179618
1772701664589290000,0.6782900390625,-1.8190870657622813,0.01916179658770561,0.9715396780669688
1772701664599337700,0.688337646484375,-2.1631518476009366,-0.2621212426453829,0.9028747226417064
1772701664609385700,0.6983857421875,-2.106134075349569,-0.372223539352417,0.8604320037096739
1772701664619434000,0.70843408203125,-1.7838678683429956,-0.1924286977380514,0.8015425923675298
1772701664629481700,0.718481689453125,-1.6279478233128786,-0.09667992055416107,0.8675064721405505
1772701664639529700,0.72852978515625,-1.3515072556748986,-0.12619944502711294,0.7875941465139389
1772701664649578000,0.738577880859375,-1.0959954942971468,-0.12483633998036384,0.6440133585751057
1772701664659625700,0.748625732421875,-0.9006427258059382,-0.2857540471673012,0.3837649240642786
1772701664669674000,0.758674072265625,-0.7866738167986274,-0.5613908972069621,0.042698739519715305
1772701664679721700,0.7687216796875,-0.7258914313167333,-0.6924491804420948,-0.36970658809542656
1772701664689769700,0.778769775390625,-0.626196254594624,-0.7194719196632504,-0.7222621349036693
1772701664699818000,0.78881787109375,-0.5807695514157414,-0.6280331146329641,-0.9502823705047369
1772701664709865700,0.79886572265625,-0.5080924377396703,-0.4544502794012427,-1.0699094514042138
1772701664719913700,0.808913818359375,-0.4470727363705635,-0.39543081193864343,-1.0713684180408716
1772701664729962000,0.8189619140625,-0.41655777111947534,-0.39111557908803224,-0.915149097803235
1772701664740009700,0.829009765625,-0.3808274093076586,-0.4317173463284969,-0.7782634235888719
1772701664750057700,0.8390576171875,-0.3414782724767923,-0.4411705265894532,-0.6715969465494156
1772701664760105700,0.849105712890625,-0.331197116959095,-0.36738574393242596,-0.5880535709440707
1772701664770153700,0.85915380859375,-0.3380325159370899,-0.32498481831550596,-0.5039765268534422
1772701664780202000,0.869201904296875,-0.42224136971384285,-0.34512539680749177,-0.5072621243953704
1772701664790249700,0.879249755859375,-0.5068684489026666,-0.18605770140141248,-0.5423416210830211
1772701664800297700,0.889297607421875,-0.5759150971218944,-0.20295476792752742,-0.5488929424226283
1772701664810346000,0.899345947265625,-0.5955339898273349,-0.23177403517663478,-0.5380249269276857
1772701664820394800,0.909394775390625,-0.6135001468896866,-0.23909137245267628,-0.4434253197789192
1772701664830443000,0.919443115234375,-0.569973724374175,-0.30227409707456826,-0.3445359064817428
1772701664840490800,0.92949072265625,-0.6138020524457096,-0.3153691409692168,-0.2523123808145523
1772701664850538800,0.939538818359375,-0.6334294207185507,-0.31498803269714115,-0.2689174786567688
1772701664860587000,0.9495869140625,-0.618644816301763,-0.3458440664708614,-0.34358956554234027
1772701664870634800,0.959634765625,-0.6834831991761923,-0.3248687907204032,-0.47098844948709007
1772701664880682800,0.969682861328125,-0.7287637718826532,-0.3564496316373348,-0.565648846912384
1772701664890730800,0.979730712890625,-0.7819882893308997,-0.3569973286479711,-0.650275341579318
1772701664900778800,0.98977880859375,-0.8610144797727465,-0.32202976790219545,-0.6224731424182653
1772701664910826800,0.99982666015625,-0.9367720238074659,-0.2579617848783731,-0.5639630857825279
1772701664920874800,1.009874755859375,-1.0758177986651658,-0.2613032042607665,-0.5427122079610824
1772701664930922800,1.0199228515625,-1.2199211491733788,-0.26162498356103897,-0.5313257215499878
1772701664940971000,1.029970947265625,-1.2154352359309792,-0.2939917141586542,-0.4310778793811798
1772701664951018800,1.040018798828125,-1.1579974847018717,-0.260979671394825,-0.2736906844079494
1772701664961066800,1.050066650390625,-1.1427686436489224,-0.19880173990130423,-0.10243278499245644
1772701664971114800,1.06011474609375,-1.0973019007205962,-0.13547580741643905,0.03312894714176655
1772701664981162800,1.070162841796875,-1.054260046851635,-0.19682868626266717,0.18552549422085285
1772701664991210800,1.080210693359375,-1.0321768098592758,-0.19318390001952648,0.17702771498858927
1772701665001258800,1.0902587890625,-1.1399743367552757,-0.1406304137006402,0.09990765042901038
1772701665011306800,1.100306640625,-1.19873223067224,-0.13907675451785326,0.02976210105717182
1772701665021355000,1.11035498046875,-1.2222370249003172,-0.2636231716409325,-0.027290157985687253
1772701665031402800,1.12040283203125,-1.2221072610408068,-0.4618316218242049,0.00481061515212059
1772701665041450800,1.13045068359375,-1.3424971430063246,-0.5562690241485834,-0.01939794343113899
1772701665051499000,1.1404990234375,-1.5705761230573057,-0.5781733974426985,-0.08836977284848689
1772701665061546800,1.150546630859375,-1.7380758389830588,-0.5805784127578139,-0.07974222975671291
1772701665071594800,1.1605947265625,-1.7765104913175105,-0.6620055268615483,-0.037191374275088306
1772701665081642800,1.170642822265625,-1.873831340123713,-0.8110317207247019,-0.07652969745099544
1772701665091690800,1.180690673828125,-2.113803587064147,-0.9759873051255941,-0.21897592840194702
1772701665101738800,1.19073876953125,-2.3885350126966833,-1.1581579359605907,-0.20612404561340808
1772701665111786800,1.200786865234375,-2.419552959033847,-1.1114628202810883,0.033307226318120955
1772701665121834800,1.210834716796875,-1.9710317774206398,-0.6754600517183542,0.764628281468153
1772701665131883000,1.220883056640625,-1.7126354005172848,0.022567221117019653,1.6794792731076478
1772701665141930800,1.2309306640625,-1.7738140918403862,0.008440203826129436,1.5170020615190267
1772701665151978800,1.240978759765625,-1.1405378158569335,-0.454326653021574,1.485542508894205
1772701665162027000,1.251027099609375,-0.4486240574657917,-0.6174152745068073,2.039746417206526
1772701665172075800,1.26107568359375,-0.1914098760843277,-0.44395022043585775,2.4745541307657954
1772701665182123800,1.271123779296875,-0.07337912446558476,-0.29655455038398504,2.328438271391392
1772701665192171800,1.281171875,-0.08154255717694758,-0.2887240028887987,2.1539356909662484
1772701665202219800,1.2912197265625,-0.045514381462335586,-0.22978169231563805,1.919783236220479
1772701665212267800,1.301267822265625,-0.03262041309773922,-0.15642974811792373,1.3514333136558532
1772701665222315800,1.311315673828125,0.08402735973000526,-0.09131810126006602,0.6377770945340394
1772701665232363800,1.32136376953125,0.1907934977516532,0.07044248649179935,0.39446284368932244
1772701665242411800,1.331411865234375,0.27997312567830085,0.015982289768755435,0.6502952153235674
1772701665252459800,1.341459716796875,0.4274772245407104,-0.22227146281599997,0.7243003627330065
1772701665262508000,1.351508056640625,0.6795847304329276,-0.3856666660323739,0.6883493439078331
1772701665272555800,1.3615556640625,0.9549743277132511,-0.39424744737297296,0.7107435465455055
1772701665282603800,1.371603759765625,1.1136655910223723,-0.400232074740529,0.7459212429106236
1772701665292651800,1.38165185546875,1.236390637937188,-0.3606336393237114,0.7067325573384762
1772701665302699800,1.39169970703125,1.4031886353343725,-0.4175567190289497,0.5187263522177934
1772701665312747800,1.401747802734375,1.7170061629474163,-0.2583998840346932,0.2579594467908144
1772701665322795800,1.411795654296875,2.0952257278442383,-0.17015227626115081,0.13935352563261985
1772701665332843800,1.42184375,2.412002689784765,0.013123977728188038,0.13337912739813326
1772701665342891800,1.431891845703125,2.4623329470962285,0.07349690562635659,-0.09924597164988518
1772701665352939800,1.441939697265625,2.3428292003154754,0.012193418879806994,-0.6234627379775047
1772701665362987800,1.45198779296875,1.876591160225868,0.0836421598047018,-0.9300725261688232
1772701665373036000,1.4620361328125,1.2179407890111207,0.3323930487453937,-0.7848404638916253
1772701665383083800,1.472083740234375,0.742432816272974,0.5769330419927835,-0.29440614017844197
1772701665393131800,1.4821318359375,0.544137856850028,0.8370359305530786,0.1522919176608324
1772701665403179800,1.4921796875,0.4628010513782501,1.073066746391356,0.4701245261341333
1772701665413227800,1.502227783203125,0.641912586903572,0.9558364975005388,0.48823593688607214
1772701665423275800,1.51227587890625,0.9250129046916961,0.38296091420501466,0.3153156572163105
1772701665433323800,1.52232373046875,0.901247413700819,0.002403554010391235,0.5784095442861318
1772701665443371800,1.532371826171875,0.8504723352313042,0.011734569196403026,0.6611731676906347
1772701665453419800,1.542419677734375,0.7386942142665386,0.12942922072857618,0.7342255444198846
1772701665463467800,1.5524677734375,0.36126843009591103,0.20943127046525478,0.8349719837605952
1772701665473515800,1.562515869140625,-0.1910088940680027,0.26320845336019993,0.718055330863595
1772701665483563800,1.572563720703125,-0.4693605560243129,0.26649931159913537,0.4612766182899475
1772701665493611800,1.58261181640625,-0.4601952527940273,0.22504531144350765,0.13409341314733028
1772701665503659800,1.59265966796875,-0.3483236083269119,0.27739918353706594,0.0019610709398984907
1772701665513708800,1.602708740234375,-0.1535989086061716,0.07016425407230853,0.019086393263936043
1772701665523756800,1.6127568359375,-0.022761866906285285,-0.05094342077374458,-0.10980828219652175
1772701665533804800,1.6228046875,0.14512100311815737,-0.08215952003151178,-0.3423556398332119
1772701665543852800,1.632852783203125,0.40713703182339667,-0.05447130263894796,-0.5093202259689569
1772701665553900800,1.64290087890625,0.7131658052563666,-0.07143529692143201,-0.5444365475356578
1772701665563948800,1.65294873046875,0.9040069415420293,-0.033650925189256664,-0.5097995339185
1772701665573996800,1.662996826171875,0.9670774379611015,0.03929302272945642,-0.4741980591833591
1772701665584044800,1.673044921875,0.8927198238521814,0.2078556917116046,-0.4493026873797178
1772701665594092800,1.6830927734375,0.7424065127879381,0.36124651052504775,-0.3047796501547098
1772701665604140800,1.693140869140625,0.5953221006423235,0.40658611994236704,-0.1739507917612791
1772701665614188800,1.703188720703125,0.39559155545830726,0.3799456580370664,-0.11747604034543037
1772701665624236800,1.71323681640625,0.24797113673985002,0.3052075201779604,-0.0023123685956001282
1772701665634284800,1.723284912109375,0.15996552102863787,0.15015169076174498,0.11460545334517955
1772701665644332800,1.733332763671875,0.1769657556682825,0.025038579666614533,0.15259762260913848
1772701665654380800,1.743380859375,0.18962007005810735,0.07058744792044162,0.11221008264124392
1772701665664428800,1.7534287109375,0.06003215163648128,0.16219664108157156,0.07325111417174339
1772701665674476800,1.763476806640625,-0.06801496708393097,0.23378099108487366,0.04652560433149337
1772701665684524800,1.77352490234375,-0.1671715068846941,0.26457185066789385,0.0676560706436634
1772701665694572800,1.78357275390625,-0.18124504042267797,0.27325813820958134,0.0920335560530424
1772701665704620800,1.793620849609375,-0.14316636191904544,0.2443383331954479,0.038087446331977845
1772701665714668800,1.803668701171875,-0.11948971825540065,0.18658669371157882,-0.008683657193183899
1772701665724716800,1.813716796875,-0.10472001914680004,0.1406581784904003,-0.07393383573889732
1772701665734764800,1.823764892578125,-0.07366729375720024,0.12247165667563677,-0.13744447714090346
1772701665744812800,1.833812744140625,-0.08590425951778888,0.07316109780073166,-0.2084755771756172
1772701665754860800,1.84386083984375,-0.14855799182951449,-0.0013996376648545265,-0.2743932797193527
1772701665764908800,1.85390869140625,-0.24030162502527236,-0.08108750688582658,-0.37414194019436836
1772701665774956800,1.863956787109375,-0.27000468937158584,-0.12270371186584234,-0.4606698845684528
1772701665785004800,1.8740048828125,-0.1491372530221939,-0.16415011323690412,-0.4657242453485727
1772701665795052800,1.884052734375,-0.0018821604847908018,-0.20813246282637118,-0.4652116196513176
1772701665805100800,1.894100830078125,0.06207797825038433,-0.22981764041185376,-0.4849129299432039
1772701665815148800,1.904148681640625,0.02270633732676506,-0.22414076381921766,-0.4766811081707477
1772701665825196800,1.91419677734375,0.08718962315320967,-0.22068536266833544,-0.46651276537775993
1772701665835244800,1.924244873046875,0.1424234345972538,-0.28027707706093785,-0.4802998831897974
1772701665845292800,1.934292724609375,0.10197101269960403,-0.32894699994474647,-0.4841594812273979
1772701665855340800,1.9443408203125,0.02834521999657154,-0.31613369560092686,-0.5067968449711799
1772701665865389800,1.954389892578125,-0.07330138305425643,-0.25675766978561876,-0.5638455968827009
1772701665875437800,1.964437744140625,-0.18402268844246863,-0.19834347473978994,-0.542992778468132
1772701665885485800,1.97448583984375,-0.2211421665251255,-0.09007190059125422,-0.452155738723278
1772701665895533800,1.984533935546875,-0.20618717397749423,0.011046586932241916,-0.36540158437788484
1772701665905581800,1.994581787109375,-0.17552257112264633,0.07157207504361868,-0.2532142980903387
1772701665915629800,2.0046298828125,-0.14884382303357124,0.09933101958483458,-0.17320611087381838
1772701665925677800,2.014677734375,-0.18997896649837492,0.08663286605328321,-0.14717968921363353
1772701665935725600,2.0247255859375,-0.2540191847324371,0.10463526347279548,-0.10754209083020687
1772701665945773800,2.03477392578125,-0.31639000844955445,0.14847849685251713,-0.08850830453634262
1772701665955821800,2.04482177734375,-0.3590560147434473,0.16991320680826902,-0.09735445881485938
1772701665965869800,2.054869873046875,-0.40936873639822,0.22224749741852282,-0.0874111569494009
1772701665975917800,2.064917724609375,-0.4770493569612503,0.1792638034775853,-0.11270517268180846
1772701665985965800,2.0749658203125,-0.5378115764379501,0.11017740776985883,-0.125203419727087
1772701665996013800,2.085013916015625,-0.5684837780773639,0.06558686315417289,-0.16456395473480223
1772701666006061800,2.095061767578125,-0.553274518507719,0.032661037369072436,-0.19121581481695174
1772701666016109800,2.10510986328125,-0.5917676230311394,0.07950754421800374,-0.20895254703760147
1772701666026157800,2.11515771484375,-0.6320253991395235,0.06999035881012677,-0.27252164062857626
1772701666036205800,2.125205810546875,-0.6777846952736377,0.053717853923141955,-0.36664661600291726
1772701666046253800,2.13525390625,-0.6512123301684856,0.036053017894923683,-0.4365951814979315
1772701666056301800,2.1453017578125,-0.6019722061812878,0.04356909261345863,-0.5081728094995022
1772701666066349800,2.155349853515625,-0.6143816058993339,0.03888824132084846,-0.5242378091156482
1772701666076397800,2.165397705078125,-0.6163216340512037,0.06633738926053047,-0.5636632260531187
1772701666086445800,2.17544580078125,-0.6960860756397247,0.10860738197416067,-0.6774117703080177
1772701666096493800,2.185493896484375,-0.7570470325589179,0.11468757867068051,-0.7680705308765172
1772701666106541800,2.195541748046875,-0.6905699425667524,0.1274567516118288,-0.8571516668647527
1772701666116589800,2.20558984375,-0.7535562678337097,0.1038455743998289,-0.9169073396474122
1772701666126637800,2.215637939453125,-0.818264010065794,0.03971943144798278,-0.9500251808732747
1772701666136685800,2.225685791015625,-0.8217705568820237,0.10166063157618045,-0.8157283541083336
1772701666146733600,2.235733642578125,-0.24694646986722946,0.48720571705549953,-0.023891747719049453
1772701666156781300,2.24578125,0.06576748041808604,1.2728896460339427,0.6713958710193634
1772701666166829300,2.255829345703125,-0.5391308423429727,1.629560226945579,0.3174234431505203
1772701666176877600,2.265877685546875,-0.4031196128755808,1.5173095200330018,0.19659692333340645
1772701666186925300,2.27592529296875,-0.2270540209174156,1.3655799124300478,0.2960831334799528
1772701666196973300,2.285973388671875,-0.325699104064703,1.4061661898404358,0.17415946607589722
1772701666207021600,2.296021484375,-0.13766659545898435,1.5667325993716716,0.19972879161834717
1772701666217069300,2.3060693359375,0.2839642411410808,1.6675038808926939,0.4495645531862974
1772701666227118600,2.31611865234375,0.5151502472966909,1.6214453095510601,0.6403443146735429
1772701666237166300,2.326166259765625,0.4497247121840715,1.3666849510625003,0.6614385406285525
1772701666247214300,2.33621435546875,0.36583763770759103,1.0113435729280114,0.5465484251230954
1772701666257262600,2.3462626953125,0.21309797627925872,0.7863771719396114,0.35101357806324957
1772701666267310300,2.356310302734375,-0.05026245277225971,0.6426371017858385,0.0523018496453762
1772701666277358600,2.366358642578125,-0.16466390797793864,0.425831210899353,-0.287969969651103
1772701666287406300,2.37640625,-0.08302665825486183,-0.001115267765522003,-0.49139177056849
1772701666297454300,2.386454345703125,0.004178162467479705,-0.7367135618433356,-0.8751040876626968
1772701666307502600,2.396502685546875,-0.28547113857269285,-1.4516861242607235,-1.242265667450428
1772701666317550300,2.40655029296875,-0.601736643859744,-1.8756518335491417,-1.602366807332635
1772701666327598300,2.416598388671875,-0.6987012265741824,-2.0646429580539465,-1.8366870198607443
1772701666337646600,2.426646484375,-0.6958727251499891,-1.9935554516568779,-1.773808831143379
1772701666347694300,2.4366943359375,-0.7367541861146688,-1.714317362254858,-1.433604231864214
1772701666357742300,2.446742431640625,-0.8615513631284236,-1.244007834942639,-1.0545499697089196
1772701666367790300,2.456790283203125,-1.0592542018771172,-0.7440817525237798,-0.7844254533499478
1772701666377838300,2.46683837890625,-1.3527116630285978,-0.2594549460455775,-0.44564182678461073
1772701666387886600,2.476886474609375,-1.449704302793741,0.07092120991945267,-0.02267185053527355
1772701666397934300,2.486934326171875,-1.4007318898320198,0.2609776255682111,0.42872576329708095
1772701666407982300,2.496982421875,-1.2533832737922668,0.31375001533478497,0.9178975197285413
1772701666418030600,2.507030517578125,-1.0756474105343221,0.527617806942761,1.086382447299361
1772701666428078300,2.517078369140625,-0.8031602566972375,0.5027803028061986,1.1651572933286427
1772701666438126300,2.527126220703125,-0.488515922871232,0.6063564126148819,1.1837374906361102
1772701666448174600,2.537174560546875,-0.004349719642102718,0.7413742471307516,1.212114274814725
1772701666458222300,2.547222412109375,0.41594226956963537,0.7132008765697478,1.191908522132039
1772701666468270600,2.5572705078125,0.9260252966046333,0.8829451565518974,1.0387269621551036
1772701666478318300,2.567318359375,1.4482204939767718,1.1187795730352401,0.778541071486473
1772701666488366300,2.577366455078125,1.8594032940596341,1.3798872547239065,0.5123498029232025
1772701666498414600,2.58741455078125,2.1953215943217277,1.3673638732373714,0.3946528133034706
1772701666508462300,2.59746240234375,2.41576116553545,1.1213085069909692,0.36720366536378857
1772701666518510300,2.60751025390625,2.5708804155766964,0.875939369443059,0.2480254972755909
1772701666528558600,2.61755859375,2.6215263147085905,0.6484186077967286,0.2551689392894506
1772701666538606300,2.6276064453125,2.6716087347388267,0.45736470554322,0.21952654802203178
1772701666548654300,2.637654296875,2.4675661715745925,0.29009499898105856,0.1551245107382536
1772701666558703400,2.647703369140625,2.133947380426526,0.04069119908958673,0.18722353031039238
1772701666568751400,2.65775146484375,1.9294488901883362,-0.007469312967360019,0.21779753227233886
1772701666578799400,2.66779931640625,1.6818576926767825,-0.013785364246368408,0.3110229284584522
1772701666588847400,2.677847412109375,1.3450690393209457,0.03973579806089401,0.4177010959357023
1772701666598895400,2.687895263671875,1.1453905165851115,0.12139058344066142,0.565423221462965
1772701666608943400,2.697943359375,1.0088976410806179,0.16419190655201674,0.550995467659831
1772701666618991400,2.707991455078125,0.5329512769252062,0.12559095773994922,0.38268648117780685
1772701666629039600,2.71803955078125,0.003161094379425049,-0.03300853563249111,0.43797582220137116
1772701666639087400,2.72808740234375,-0.21620880177617072,-0.09509878884255886,0.6076350542485713
1772701666649135400,2.73813525390625,-0.28656653259396553,-0.04749211127609014,0.6823322755753993
1772701666659183600,2.74818359375,-0.36326632591485974,0.09814648597538471,0.7258838325321674
1772701666669231400,2.7582314453125,-0.43059974047541616,0.2753834598004818,0.6746364603757858
1772701666679279400,2.768279296875,-0.3977110318303108,0.3513268817961216,0.5096913973689079
1772701666689327400,2.778327392578125,-0.3828098152965307,0.29668986720144747,0.352514045754075
1772701666699375400,2.788375244140625,-0.35636429144144055,0.24102234051525592,0.2611614577025175
1772701666709423600,2.798423583984375,-0.23375322629511355,0.18204262054115533,0.13132394843399525
1772701666719471400,2.808471435546875,0.02032031897306442,0.032872926554083824,-0.00013677812218666077
1772701666729519400,2.818519287109375,0.26691023048758505,-0.025448037250339985,-0.10139642768204211
1772701666739567600,2.828567626953125,0.4849427405595779,-0.06366524744182825,-0.1639513757944107
1772701666749615400,2.838615478515625,0.7408323953390121,-0.10383885239809751,-0.16115151594281196
1772701666759663400,2.848663330078125,0.9429846147119998,-0.08560293848365545,-0.0873024358779192
1772701666769711600,2.858711669921875,1.1424807666182517,-0.12616934214979408,0.015182371562719343
1772701666779759400,2.86875927734375,1.2432903343230486,-0.15064765758514403,0.07891103962957859
1772701666789807400,2.878807373046875,1.1444354078173637,-0.15798048469126225,0.12466741315424441
1772701666799855400,2.88885546875,1.0200047260284424,-0.3069137395739555,0.1608972489207983
1772701666809903400,2.8989033203125,1.0274421825528144,-0.41296617636829613,0.22798867141902446
1772701666819951600,2.90895166015625,0.9506243158102035,-0.3775309981107712,0.3065145111232996
1772701666829999400,2.918999267578125,0.684708941578865,-0.3093225542813539,0.4673457090705633
1772701666840047400,2.92904736328125,0.41229134584665295,-0.1846954731374979,0.5482774408727884
1772701666850095600,2.939095703125,0.18953589890599248,-0.0733855542063713,0.6338678121358156
1772701666860143400,2.949143310546875,-0.10390870276391506,-0.023620529562234878,0.7314876438885927
1772701666870191400,2.95919140625,-0.41942134385704993,0.02975216418504715,0.8273702765852212
1772701666880240400,2.969240478515625,-0.7661170587211847,0.12196341489255427,0.8276631220519542
1772701666890288400,2.979288330078125,-1.031316393637657,0.12933657400906085,0.8016419610887765
1772701666900336400,2.98933642578125,-1.1183996338069437,0.021158523362874982,0.7845581398189068
1772701666910384400,2.99938427734375,-1.0571171898484228,-0.0644122664168477,0.6509352667927741
1772701666920432400,3.009432373046875,-1.0497457842975855,-0.10321078362762927,0.4730851295053959
1772701666930480400,3.01948046875,-1.0619745667517184,-0.13920418028980494,0.283743876388669
1772701666940528400,3.0295283203125,-0.955550666296482,-0.16256985830813644,0.07077098779380321
1772701666950576600,3.03957666015625,-0.911312880641222,-0.1681058651253581,-0.07406009246706963
1772701666960624400,3.049624267578125,-0.8221504961103201,-0.21454086856395005,-0.21344109062850475
1772701666970672400,3.05967236328125,-0.5762281085938215,-0.23374153585731983,-0.3906377324432134
1772701666980720600,3.069720703125,-0.3478454694211483,-0.25024141975939274,-0.5627542945146561
1772701666990768400,3.079768310546875,-0.1680734241604805,-0.3663558163627982,-0.6713210522174835
1772701667000816400,3.08981640625,-0.028756723406910895,-0.5101315423518419,-0.7447492765218019
1772701667010864400,3.099864501953125,0.08598433901667595,-0.6200090903922915,-0.8466741119921207
1772701667020912400,3.109912353515625,0.09148819712996482,-0.6284215294286608,-0.9481032728999853
1772701667030960400,3.11996044921875,0.04983984344601631,-0.6083975630536675,-0.9460714748114347
1772701667041008400,3.13000830078125,-0.05951075811088085,-0.5746683119311928,-0.9935527724325657
1772701667051056400,3.140056396484375,-0.14140636650919913,-0.5269730792984366,-1.0495990693032742
1772701667061104600,3.150104736328125,-0.20449556762874124,-0.5052665666639805,-1.0489759689688682
1772701667071152400,3.16015234375,-0.30610242319107056,-0.5492948012217879,-1.0989555131465196
1772701667081200400,3.170200439453125,-0.3661795830130577,-0.5767696681246162,-1.1156062036961316
1772701667091248600,3.18024853515625,-0.4768552956938743,-0.5018362999543547,-1.1238736813038588
1772701667101296400,3.19029638671875,-0.6580857230693101,-0.4862900635153055,-1.1336585777372121
1772701667111344400,3.200344482421875,-0.7715256397664546,-0.5783256653949618,-1.0102724365651607
1772701667121392400,3.210392333984375,-0.7944032420068978,-0.6344710387259721,-0.8195160559535026
1772701667131440400,3.2204404296875,-0.8255179267168045,-0.5832166523069143,-0.6917611981779337
1772701667141488400,3.23048828125,-0.915598595136404,-0.4647910561516881,-0.5359568884819745
1772701667151537400,3.240537353515625,-1.018858478602767,-0.34616613803207874,-0.3649468263477087
1772701667161585400,3.25058544921875,-1.0380652833759785,-0.20100889455676077,-0.21942191860377788
1772701667171633400,3.26063330078125,-1.026284829211235,-0.055521980735659594,-0.07847089464664458
1772701667181681400,3.270681396484375,-0.996605145740509,0.04760580078363418,0.030437808361649513
1772701667191729400,3.2807294921875,-0.9644611179828643,0.06403788014650344,0.10715922899246215
1772701667201777400,3.29077734375,-0.998613562953472,0.19072715451717376,0.09510404953956604
1772701667211825400,3.300825439453125,-1.1349112081468105,0.23394144234359263,0.045156654065847394
1772701667221874400,3.31087451171875,-1.2394430112451313,0.11277502304762602,-0.04160860619544983
1772701667231922400,3.32092236328125,-1.272901628732681,-0.09617752398997545,-0.07006839248239993
1772701667241970200,3.33097021484375,-1.2835633080005644,-0.298221899074316,-0.10918401281833648
1772701667252018400,3.341018310546875,-1.3034662783443927,-0.5905556168928742,-0.12715104666352273
1772701667262066400,3.35106640625,-1.3132652033030987,-0.9290855609580874,-0.20031331350803375
1772701667272114200,3.3611142578125,-1.330133335995674,-1.0876143271818757,-0.20864041234850883
1772701667282162400,3.371162353515625,-1.2487497687727211,-0.9132201755672693,0.1863292118191719
1772701667292210400,3.38121044921875,-0.7661731728225946,-0.40769671153277154,1.4204916523128748
1772701667302258400,3.391258544921875,-0.5761164649128914,0.06544482433497906,2.148513081395626
1772701667312306400,3.401306396484375,-0.4898924719214439,-0.005417641134560108,1.747894637686014
1772701667322354400,3.4113544921875,-0.32812603895068165,-0.25940643072873354,1.549597924697399
1772701667332402400,3.42140234375,-0.10072072037756442,-0.406129316085577,1.797759615573287
1772701667342450400,3.431450439453125,0.1890735420912504,-0.38247283842712637,1.8855027809560299
1772701667352498200,3.441498291015625,0.6359492945849895,-0.3389265421673655,1.8483166673779488
1772701667362546400,3.45154638671875,1.1058744987547398,-0.35843466797471046,1.776211216109991
1772701667372594400,3.461594482421875,1.2348790643304586,-0.36545185326039786,1.7862462879121304
1772701667382642200,3.47164208984375,1.166652500322461,-0.3515215275853872,1.66515205706954
1772701667392690400,3.4816904296875,1.0719266364455222,-0.5859665355369448,1.0167372486650943
1772701667402738400,3.491738525390625,0.9520838669687509,-0.8589984637752175,0.17136895857453346
1772701667412786400,3.501786376953125,0.7316448802769183,-1.0954469205036759,-0.4945283150285482
1772701667422834400,3.51183447265625,0.5573223325937986,-1.3544330799937248,-1.0067536147892475
1772701667432882400,3.52188232421875,0.5088011705309152,-1.4615861715063452,-1.250085401290655
1772701667442930400,3.531930419921875,0.19766542934775352,-1.4822683095291256,-1.4564339033097027
1772701667452978400,3.541978515625,-0.13352818048000334,-1.516540873748064,-1.5038912355333567
1772701667463026200,3.552026123046875,-0.1563268722653389,-1.3923121442720294,-1.2805471750497817
1772701667473074400,3.562074462890625,-0.06430676021575928,-0.938040144047141,-0.6769868228942155
1772701667483122400,3.572122314453125,-0.19249474871158598,-0.4180892184704542,-0.01885609163939953
1772701667493170400,3.58217041015625,-0.5200052861124277,0.00154021517932415,0.39553427231311794
1772701667503218400,3.592218505859375,-0.7928940064877271,0.323091844175756,0.6092822369337082
1772701667513266400,3.602266357421875,-0.545935846182704,0.4710311195850372,0.7499182035923003
1772701667523314400,3.612314453125,0.18090134155154228,0.4832429509043693,0.7591548184931278
1772701667533363500,3.622363525390625,0.6884218246221542,0.5260165092259645,0.46794835113883015
1772701667543411500,3.632411376953125,0.8948445609211921,0.48861003089547156,0.2871557306587696
1772701667553459500,3.64245947265625,0.9573872340738773,0.1676394166573882,0.24531390022933483
1772701667563507200,3.652507080078125,1.0305758044034241,-0.014491758950054645,0.04907879594564438
1772701667573555500,3.662555419921875,1.1170447120666502,0.09965075305849314,-0.03090367230772972
1772701667583603500,3.672603515625,1.2064338910907506,0.2595844176441431,0.04833645314574241
1772701667593651200,3.682651123046875,1.248766719907522,0.33183103094846006,0.40278994252979755
1772701667603699500,3.692699462890625,1.2039724694132805,0.41051498382389545,0.731587597131729
1772701667613747500,3.70274755859375,1.027830889609456,0.37199177642315623,0.8935311402350664
1772701667623795200,3.712795166015625,0.7033563589036465,0.28100334550887346,0.9807996738433837
1772701667633843500,3.722843505859375,0.33581717797517774,0.21318507004082202,1.1612649620652198
1772701667643891500,3.732891357421875,0.12494213844239711,0.1253553954184055,1.2113415368765592
1772701667653939500,3.742939453125,0.12011281858980655,-0.03542494912445545,1.109290444678068
1772701667663987500,3.752987548828125,0.025170681613683698,-0.2751782926172018,0.8365104453742503
1772701667674035200,3.76303515625,-0.1928513070642948,-0.4831842064544558,0.6904670667141676
1772701667684083500,3.77308349609375,-0.33693361478447914,-0.501736931233108,0.6242261235654354
1772701667694131500,3.78313134765625,-0.4521136531472206,-0.3795572432413697,0.687711630526185
1772701667704179200,3.79317919921875,-0.37590544273555276,-0.19469255101680755,0.7468202375769615
1772701667714227500,3.8032275390625,-0.1968248868703842,-0.06641571519374848,0.44705227810442444
1772701667724275500,3.813275390625,-0.03640694589912891,-0.014943302109837532,-0.022742577683925628
1772701667734323500,3.823323486328125,0.16098668076992034,0.07173866378217936,-0.4672457558274269
1772701667744371500,3.833371337890625,0.37881577722430226,0.10715163020789623,-0.8182365375369787
1772701667754419200,3.843419189453125,0.5759837784439324,0.08064940772950649,-1.049541786158085
1772701667764467500,3.853467529296875,0.8195370987415314,0.25156799218803644,-1.1337456714987755
1772701667774515500,3.863515380859375,1.0416408037751912,0.4565829075157642,-0.9955535908609628
1772701667784563200,3.873563232421875,1.0973153447240591,0.4888312724307179,-0.6363824253052472
1772701667794611500,3.883611572265625,1.0608008467972279,0.5673764013573527,-0.4591664942681789
1772701667804659500,3.893659423828125,1.0674749177336693,0.5814455509811639,-0.3421411202996969
1772701667814707200,3.903707275390625,0.963521791306138,0.5548793233558535,-0.20631167713999746
1772701667824755500,3.91375537109375,0.7650099742621183,0.4700888702988624,-0.17889292433857917
1772701667834804200,3.92380419921875,0.5239087232917546,0.4145835484370589,-0.12519289833307265
1772701667844852500,3.9338525390625,0.38553894799947735,0.3564750583395362,-0.15285656580626963
1772701667854900500,3.943900390625,0.19112579844594,0.1986421654254198,-0.11674012728631496
1772701667864948200,3.9539482421875,-0.03626315351426601,0.11632540900558233,-0.10892390057742594
1772701667874996500,3.96399658203125,-0.17921967207491396,0.1521475407540798,-0.044860301467776295
1772701667885044200,3.974044189453125,-0.10516133317351341,0.006917816564440727,-0.010630699607729912
1772701667895092500,3.984092529296875,-0.24201368964016437,-0.1402531048208475,-0.06864683524668216
1772701667905140500,3.994140380859375,-0.5822136127442121,-0.3683151337370276,-0.14269582179784773
1772701667915188200,4.004188232421875,-0.8777040410280227,-0.47186844719201326,-0.07694879964590072
1772701667925236500,4.014236572265625,-0.9734580789089202,-0.5333145572796464,-0.01552373234629631
1772701667935284500,4.024284423828125,-0.9429436981797218,-0.6872673938900232,-0.11228840857446193
1772701667945332200,4.034332275390625,-0.9515244795203208,-0.7811784342527389,-0.255278244882822
1772701667955380500,4.04438037109375,-0.9468249235272407,-0.8678817351937294,-0.3480670032173395
1772701667965428500,4.054428466796875,-0.9953899247318506,-0.8886915912494063,-0.42426410771310324
1772701667975476500,4.0644765625,-1.1319453440785407,-0.8952660012036562,-0.5639028800278901
1772701667985524500,4.0745244140625,-1.260990241664648,-0.9404910443305968,-0.6649567778825759
1772701667995572200,4.084572265625,-1.2546703909933565,-0.919673589490354,-0.6133043320566416
1772701668005620500,4.094620361328125,-1.1834522439539432,-0.8617623755306005,-0.504599627187848
1772701668015668500,4.10466845703125,-1.0622948847472666,-0.8021224380820989,-0.4452548732936382
1772701668025716200,4.11471630859375,-1.033036057037115,-0.644400604327023,-0.5495493605047465
1772701668035764500,4.124764404296875,-0.966888052868843,-0.32238077329695225,-0.6037222647190094
1772701668045812500,4.1348125,-0.7757701454684138,0.008788871133327483,-0.532722144344449
1772701668055860200,4.144860107421875,-0.6659259151756763,0.33339024308919907,-0.5056634570270776
1772701668065908500,4.154908447265625,-0.726117641288042,0.5081503054067492,-0.44669045905470844
1772701668075956200,4.164956298828125,-0.6462672749817371,0.5716553938508033,-0.3812175776690244
1772701668086004500,4.17500439453125,-0.5939964049965143,0.6263549522876739,-0.3085813805252313
1772701668096052500,4.185052490234375,-0.5300824434906244,0.708029026889801,-0.29770342815816403
1772701668106100200,4.195100341796875,-0.5310290766909718,0.8048094852089881,-0.3819254336774349
1772701668116148500,4.2051484375,-0.5114525618225336,0.7924901018619537,-0.49578211448192594
1772701668126197200,4.215197265625,-0.5177729970157147,0.64610331659168,-0.6337631827175617
1772701668136245500,4.22524560546875,-0.6802817727863788,0.5110580095469951,-0.7440753227829933
1772701668146293200,4.235293212890625,-0.8283525656208396,0.3996890539050102,-0.920490458831191
1772701668156341000,4.245341064453125,-1.0774015607252716,0.2938859156966209,-1.1584878985673188
1772701668166389200,4.25538916015625,-1.3049623621210455,0.1613368093818426,-1.3567723365962505
1772701668176437200,4.265437255859375,-1.4929460631489753,0.12162643802314996,-1.2303285614192485
1772701668186485000,4.275485107421875,-0.8494657885372638,0.32419132985025645,-0.13669453555643557
1772701668196533200,4.285533203125,-0.07158288869857787,0.999134079696238,1.4236778811335562
1772701668206581000,4.2955810546875,-0.6853998464524745,1.5705106566056608,1.5627181030333042
1772701668216629000,4.30562890625,-0.41622576268613337,1.7233613771930336,1.4543027364999055
1772701668226677200,4.31567724609375,-0.06709492962956429,1.7999594637051224,1.6774673487633465
1772701668236725000,4.32572509765625,0.1287225337639451,1.7369672932192681,1.81851131170094
1772701668246773200,4.335773193359375,0.18151158240437507,1.6592969013005494,1.637137676462531
1772701668256821200,4.3458212890625,0.1635132766380906,1.5463067741975187,1.147601762893796
1772701668266869000,4.355868896484375,0.03564648292064666,1.2511124062508343,0.688670246425271
1772701668276917200,4.365917236328125,-0.23174627038687468,0.7702858688384294,0.34464345850944517
1772701668286965200,4.37596533203125,-0.4631605323404073,0.2691299523636699,0.18131342948377133
1772701668297013000,4.386012939453125,-0.37469548242390155,-0.2535930682748556,-0.11986381226480007
1772701668307061200,4.396061279296875,-0.1214478665858507,-0.637725656607747,-0.2953197478920221
1772701668317109000,4.40610888671875,0.04151829756349325,-0.44621845762878654,-0.09833762463331222
1772701668327157000,4.416156982421875,0.1911716834142804,-0.022487433879077433,0.019117957445979116
1772701668337205200,4.426205322265625,0.3486071014434099,0.3287041310995817,0.07575988212227822
1772701668347253000,4.4362529296875,0.42981940375268457,0.37160716101974245,0.25129765081405636
1772701668357301200,4.44630126953125,0.586798017925024,0.24995412725061178,0.538386161455512
1772701668367349200,4.456349365234375,0.7559832027196883,0.23651684578955173,0.658932695287466
1772701668377397000,4.46639697265625,0.8992518559694289,0.3038286330401897,0.6063415073066949
1772701668387445200,4.4764453125,0.972585679988563,0.3956020768523216,0.43674306553602216
1772701668397493200,4.4864931640625,1.0116437249183654,0.5089394099578262,0.17373393414020538
1772701668407541000,4.496541015625,1.0852221713483332,0.6392348921269178,0.07865677260756491
1772701668417590000,4.506590087890625,1.126284249576926,0.666840399672091,0.1927911013096571
1772701668427638000,4.516637939453125,1.237424072638154,0.7270511227458715,0.09865852715075016
1772701668437686300,4.526686279296875,1.3324381058067083,0.8077966843262314,-0.06717559365034104
1772701668447734000,4.536734130859375,1.3664236697778105,0.7569511709690093,-0.2229810723900795
1772701668457782000,4.546781982421875,1.2545619621828197,0.6171615920066833,-0.30827450653314586
1772701668467830300,4.556830322265625,1.1785948670506476,0.31431232539266346,-0.2459814242273569
1772701668477878000,4.5668779296875,1.3726441517278551,0.254655436809361,-0.3691957159638405
1772701668487926300,4.57692626953125,1.4033563931167126,0.21512626723647116,-0.41894905017018313
1772701668497974300,4.586974365234375,1.283010350292921,0.14886018964648245,-0.45366146711111066
1772701668508022000,4.59702197265625,1.121851235565543,0.05574760618507862,-0.3735001351594925
1772701668518070300,4.6070703125,1.0241600921422243,0.03758417298495769,-0.19414894565939902
1772701668528118000,4.617117919921875,0.7934878807276486,-0.04380523945689201,-0.00982815105319023
1772701668538166000,4.627166015625,0.5011965407460928,-0.09642448448836803,0.14538929866552353
1772701668548214300,4.63721435546875,0.12362988680005073,-0.12621435033529996,0.23145722431242466
1772701668558262000,4.647261962890625,-0.14519465287625788,0.0061138067051768295,0.2576414668828249
1772701668568310000,4.65731005859375,-0.40347734027206894,0.1466834301292896,0.3451595913380384
1772701668578358300,4.667358154296875,-0.7353337979227303,0.20611147839277982,0.5456675506353378
1772701668588406000,4.677406005859375,-0.8999088585734367,0.1906923754647374,0.6363397552073001
1772701668598454300,4.687454345703125,-0.7809522242814302,0.207343942797184,0.6525497162520885
1772701668608502300,4.697502197265625,-0.5719017698273062,0.21204963627010584,0.5396089812487364
1772701668618550000,4.707550048828125,-0.34568624556064603,0.12566899141222238,0.4215799831956625
1772701668628598300,4.717598388671875,-0.04343932875394821,-0.06335895797163248,0.29310557897388934
1772701668638646000,4.72764599609375,0.31070787115991116,-0.28804683427959676,0.1637123063415289
1772701668648694000,4.737694091796875,0.5601511262789368,-0.34801936468333006,0.044131987193226814
1772701668658742300,4.7477421875,0.6909878757178783,-0.2940700400918722,-0.10826339084208011
1772701668668790000,4.7577900390625,0.8159808675646781,-0.24375498034954068,-0.33842999082207675
1772701668678838300,4.76783837890625,0.858305513074994,-0.20925152998417615,-0.5059826059788465
1772701668688886300,4.77788623046875,0.8738160936787724,-0.22607640805691478,-0.6410813967764377
1772701668698935000,4.78793505859375,0.8262444874256849,-0.23770313296467063,-0.695986706918478
1772701668708983300,4.7979833984375,0.7573121132358909,-0.2627306067153811,-0.7227069560617208
1772701668719031000,4.808031005859375,0.7000584864020347,-0.3454273023635149,-0.6291846227556467
1772701668729079300,4.818079345703125,0.6593912527099252,-0.372641180242598,-0.49621699876785275
1772701668739127000,4.828126953125,0.6674962332323193,-0.36965602695196864,-0.29149229855835435
1772701668749175000,4.838175048828125,0.6419809759646654,-0.2999111673355102,-0.13407178583741186
1772701668759223300,4.848223388671875,0.5627279910296201,-0.24474779077917336,-0.013346972829103469
1772701668769271000,4.85827099609375,0.531852960294485,-0.19603285970985887,0.12707447429597377
1772701668779319000,4.868319091796875,0.46757308808565134,-0.17619067964255808,0.2515717915803194
1772701668789367300,4.8783671875,0.349929289957881,-0.17409399962425232,0.2383867313146591
1772701668799415000,4.8884150390625,0.1968389153957367,-0.12940116367787122,0.13386018891334533
1772701668809463000,4.898463134765625,0.04681143553555012,-0.04605974038541317,0.006821954974532127
1772701668819511300,4.90851123046875,-0.14679711963683367,-0.05832388641387224,-0.04484802650809288
1772701668829559000,4.91855908203125,-0.338114349001646,-0.07199760697931051,-0.08035480869710444
1772701668839607300,4.928607177734375,-0.5549453743293881,-0.11321078411638737,-0.11867664830684661
1772701668849655000,4.938655029296875,-0.7174944821104406,-0.10310469290465116,-0.1496037014901638
1772701668859703000,4.948703125,-0.8395990590393543,-0.07150923894047737,-0.19511106868982314
1772701668869751300,4.958751220703125,-0.8656967923700809,-0.12335779186040162,-0.24410043278634547
1772701668879799000,4.968799072265625,-0.8435136021345854,-0.13797317719012497,-0.3027753245949745
1772701668889847000,4.978846923828125,-0.8139718658298254,-0.17145459103137253,-0.35282150426805015
1772701668899895300,4.988895263671875,-0.7375865452855825,-0.184894795101881,-0.3616512919336557
1772701668909943000,4.998943115234375,-0.6349298884093761,-0.20183979242295025,-0.38656478391587734
1772701668919991000,5.008990966796875,-0.5284224013239145,-0.30668080760091543,-0.41945816873610015
1772701668930039000,5.0190390625,-0.45798225291967387,-0.3620744857817888,-0.47765492163896556
1772701668940087000,5.029087158203125,-0.38903468116074796,-0.3750403503388166,-0.5822855089366435
1772701668950135300,5.03913525390625,-0.37378947349488734,-0.34843671331256626,-0.5963046819388866
1772701668960183000,5.04918310546875,-0.3929255511194467,-0.37605917199254035,-0.5043108733743429
1772701668970232300,5.059232421875,-0.3443038512915373,-0.3783069509193301,-0.43404841962456703
1772701668980280000,5.069280029296875,-0.2839841148853302,-0.3455570662230253,-0.36338966003358364
1772701668990328000,5.079328125,-0.2502183311447501,-0.3296832052648067,-0.2795528544396162
1772701669000376300,5.089376220703125,-0.1983040195122361,-0.3947776087269187,-0.11076105287671088
1772701669010424000,5.099424072265625,-0.1672451566427946,-0.5066685424163937,0.11262860031425952
1772701669020472000,5.10947216796875,-0.1317538642838597,-0.464662461335957,0.15444997247755526
1772701669030520300,5.119520263671875,-0.1912804044857621,-0.27024375882446766,0.10868950729966163
1772701669040568000,5.129568115234375,-0.48766252091228957,-0.18712679193764925,-0.007620996397733688
1772701669050616000,5.139615966796875,-0.7765721095010638,-0.09352233330607414,-0.06601181056797505
1772701669060664000,5.1496640625,-0.9837275439888238,-0.027403847493231295,-0.16809388242661952
1772701669070712000,5.159712158203125,-1.1895111056014895,-0.015084464146196842,-0.2360205867052078
1772701669080760300,5.16976025390625,-1.2838655058175326,-0.07243453709185123,-0.30154373697340486
1772701669090808000,5.17980810546875,-1.3198138942942022,-0.09842968683093786,-0.3917857334345579
1772701669100856000,5.18985595703125,-1.296548169519007,-0.23172055142372847,-0.48013504801690576
1772701669110904300,5.199904296875,-1.301518651407957,-0.3770566585972905,-0.4729349073797464
1772701669120952000,5.2099521484375,-1.319848088824749,-0.5393325023949146,-0.4744412202894687
1772701669131000000,5.22,-1.32333359285295,-0.6888721987381577,-0.44925008040964604
1772701669141048300,5.23004833984375,-1.3797212505072354,-0.8309165708899497,-0.3548924653232097
1772701669151095300,5.24009521484375,-1.4225433241456746,-0.8784890539258718,-0.33859248790740964
1772701669161143600,5.2501435546875,-1.5057155283510684,-0.8561848676592111,-0.3642664428681135
1772701669171191600,5.260191650390625,-1.485423266428709,-0.8479071609184146,-0.35430385178029533
1772701669181239300,5.2702392578125,-1.5842629953652618,-0.8483741939082742,-0.5285387211799621
1772701669191287600,5.28028759765625,-1.4602239432424307,-0.8433633800089358,-0.22156711393892764
1772701669201335600,5.29033544921875,-0.7478454889714717,-0.7452239082962274,1.3529244289964437
1772701669211383300,5.30038330078125,-0.15679156716763973,-0.39743776784688234,2.6231302427738905
1772701669221431600,5.310431640625,-0.5703735373467207,0.23163345766216514,2.4432874703645706
1772701669231480300,5.320480224609375,-0.7740572040706872,0.6895780089199542,2.220315750324726
1772701669241528600,5.330528564453125,-0.5224211150825023,0.5750125953242182,2.540001877710223
1772701669251576300,5.340576416015625,-0.010627192476391791,0.35556495775729413,2.84762171972692
1772701669261624300,5.350624267578125,0.39014439596831796,0.1383183373659849,2.8180098407953977
1772701669271672600,5.360672607421875,0.37055999005436896,-0.06344897434264421,2.279937567594647
1772701669281720300,5.37072021484375,0.11596622030436991,-0.08378098375350236,1.5949749435156584
1772701669291768300,5.380768310546875,-0.11418752019405365,-0.07198883915096521,1.3968588477909565
1772701669301816600,5.390816650390625,-0.17722352982163428,-0.285935248953104,1.3242261577785015
1772701669311864300,5.4008642578125,-0.024900632500648497,-0.7947855193227529,0.9921791459918021
1772701669321912600,5.41091259765625,0.5083505041539669,-1.3982842044189572,0.7977472917377948
1772701669331960300,5.420960205078125,1.156738424551487,-1.7783979124993086,0.7510042452633381
1772701669342008300,5.43100830078125,1.6623773316591977,-1.8285516442000864,0.7074749001383781
1772701669352056600,5.441056640625,1.9830583153009413,-1.7008432559147477,0.5025859492778778
1772701669362104300,5.451104248046875,2.2302847711533307,-1.5825518075332046,0.30022797819972036
1772701669372152300,5.46115234375,2.5480016442924738,-1.3166454933911562,0.1791091974377632
1772701669382200600,5.47120068359375,2.774771003049612,-0.9777411630555987,0.08651099323928356
1772701669392248300,5.481248291015625,2.8677976617932317,-0.8287795588612556,0.04830196635425091
1772701669402296600,5.491296630859375,3.0006799455851314,-0.680550068333745,-0.0776642544388771
1772701669412344600,5.501344482421875,3.0363556546002624,-0.5037278127893805,0.15138298612236975
1772701669422392300,5.511392333984375,3.0634096657425163,-0.3740723820894956,0.289241889283061
1772701669432440600,5.521440673828125,3.0852520797163248,-0.2251394194677472,0.3082867814928293
1772701669442488300,5.53148828125,2.7501579553186892,0.01052227079719305,0.44152737720310686
1772701669452536300,5.541536376953125,2.073707723519206,0.21249738003760574,0.45700317875444885
1772701669462584600,5.55158447265625,1.0929372757703064,-0.10027531469762324,0.33482758241593835
1772701669472632300,5.56163232421875,0.3872673792272806,-0.5204223424807191,0.40263679779469963
1772701669482680300,5.571680419921875,0.2144096433997154,-0.5597638805270194,0.7887491617679595
1772701669492729300,5.581729248046875,0.173106157630682,-0.41437545864433045,1.3353063547194004
1772701669502777300,5.59177734375,0.10658698206245898,-0.2724208106026053,2.0018682297110555
1772701669512825600,5.60182568359375,-0.026546061620116232,-0.2126104850232601,2.503769119334221
1772701669522873300,5.611873291015625,-0.16357494369745254,-0.2118266411691904,2.4403403109967705
1772701669532921300,5.62192138671875,-0.21659633978903292,-0.5457461688295007,1.7431290307193994
1772701669542969300,5.63196923828125,-0.37111353228390215,-0.7980886525213718,1.566487684699893
1772701669553017300,5.642017333984375,-0.5362006341099739,-1.0151274753808974,1.4538777890861034
1772701669563065600,5.652065673828125,-0.6658113488852977,-1.0969003341823815,1.135327972254157
1772701669573113300,5.66211328125,-0.6267343069940805,-1.0485852160856126,0.7249462594211101
1772701669583161300,5.672161376953125,-0.32517771053910255,-0.929347426764667,0.36081367206573484
1772701669593209600,5.682209716796875,-0.02608779645860195,-0.7981228470519185,0.11063538067042827
1772701669603257300,5.69225732421875,0.20457740069329738,-0.6249900936752557,-0.09197919551730155
1772701669613305300,5.702305419921875,0.547226470515132,-0.442530416765809,-0.14739187065958975
1772701669623353600,5.712353515625,0.9585083470582961,-0.25093904663473365,-0.12263619958758354
1772701669633401300,5.7224013671875,1.251073827806115,-0.0664867346033454,-0.07083119354844093
1772701669643449600,5.73244970703125,1.387456228673458,0.07465951966494322,-0.11507248633503914
1772701669653497300,5.742497314453125,1.4338099835693836,0.28565613975077864,-0.08627484639585017
1772701669663545300,5.75254541015625,1.5027631082862614,0.4867594345927238,0.1584475176811218
1772701669673593600,5.762593505859375,1.4397288522243499,0.552774752292037,0.549007508713007
1772701669683641300,5.772641357421875,1.4450918405622244,0.5706225436717272,0.8181669794321059
1772701669693689300,5.782689453125,1.3923469233244656,0.5047726456671953,0.853698896062374
1772701669703737600,5.792737548828125,1.1537199535131453,0.378920698903501,0.5585796391785145
1772701669713785300,5.802785400390625,0.702915044876933,0.035949557520449156,0.2961345714062452
1772701669723833300,5.812833251953125,0.25972587194144725,-0.3607861995369196,0.3401461470901966
1772701669733882400,5.82288232421875,-0.1262847852230072,-0.5135138782665133,0.4874035777151584
1772701669743930400,5.832930419921875,-0.37902562058269973,-0.47842356792390345,0.6441384462594986
1772701669753978400,5.842978271484375,-0.5077624751329421,-0.42498043928891416,0.7681558710724115
1772701669764026400,5.8530263671875,-0.555299886855483,-0.3591828559935093,0.9262602744042873
1772701669774074400,5.863074462890625,-0.5927963815569878,-0.3034080695405602,1.0012959339052439
1772701669784122400,5.873122314453125,-0.7332803725242615,-0.3718327864691615,0.9498509933501481
1772701669794170400,5.88317041015625,-0.8290735733717679,-0.45852936540842054,0.9434013788193464
1772701669804218600,5.893218505859375,-0.8860615350067615,-0.5410188480466603,0.8905781356483697
1772701669814266400,5.903266357421875,-0.8578238670378923,-0.6184042855441569,0.7693611552089452
1772701669824314400,5.913314453125,-0.6860176860898732,-0.6549594077423214,0.7211895372360945
1772701669834362600,5.923362548828125,-0.46968145854175086,-0.6390960681781173,0.7239052259355783
1772701669844410400,5.933410400390625,-0.20202070194780825,-0.6581973667502403,0.6339496452003717
1772701669854458400,5.943458251953125,0.03877484407424926,-0.6853773423597216,0.5316846179902553
1772701669864506400,5.95350634765625,0.30538696839809415,-0.6609764760747552,0.4834720834851265
1772701669874554400,5.963554443359375,0.5473071345359086,-0.6048235039591789,0.3895324015498161
1772701669884602400,5.973602294921875,0.7202052023738622,-0.5396951982274651,0.3117284463793039
1772701669894650400,5.983650390625,0.9167448425620793,-0.4737815873369574,0.11750000574290752
1772701669904698400,5.993698486328125,1.0527665934234858,-0.45047728411704296,-0.10531681599617004
1772701669914746600,6.00374658203125,1.0266039781630039,-0.4042228979423642,-0.2641355050772428
1772701669924794400,6.01379443359375,0.9957195950776337,-0.41272067717462774,-0.3752759126603603
1772701669934842400,6.02384228515625,0.9747370128035545,-0.48466158553063865,-0.49083998190462585
1772701669944890600,6.033890625,0.9805641115218401,-0.5181289708465338,-0.6415835010796785
1772701669954938400,6.0439384765625,0.9172107065081596,-0.5943859888359904,-0.7516805370897054
1772701669964987400,6.0539873046875,0.7964706959307193,-0.6609025340557098,-0.8020750918090342
1772701669975035400,6.064035400390625,0.5637292770266532,-0.6415598279431461,-0.7837725423991679
1772701669985083400,6.07408349609375,0.2967325372993946,-0.5610127115443349,-0.6594564269006252
1772701669995131400,6.08413134765625,0.005253098222613334,-0.47577129984945055,-0.5522089351028203
1772701670005179400,6.094179443359375,-0.316739552539587,-0.472433972120285,-0.45140813522636886
1772701670015227400,6.104227294921875,-0.6002601415663957,-0.47103638028204436,-0.3477531149625778
1772701670025275400,6.114275390625,-0.7487965060859918,-0.5101718743622302,-0.30779578310549255
1772701670035323400,6.124323486328125,-0.8204805170714855,-0.48862610524743794,-0.3116156336545944
1772701670045371600,6.13437158203125,-0.9567413373857736,-0.4630906819745898,-0.33649522336721416
1772701670055419400,6.14441943359375,-1.1469178722828626,-0.5138870954930782,-0.34834055946171283
1772701670065467400,6.15446728515625,-1.3503794206887483,-0.6129620944902301,-0.35838965978920456
1772701670075515400,6.164515380859375,-1.5248112739652395,-0.6602756343290209,-0.33139819248914715
1772701670085563400,6.1745634765625,-1.606247448158264,-0.7245400167077779,-0.35340251902639863
1772701670095611400,6.184611328125,-1.5966320630729198,-0.7854331690877675,-0.28878245507776734
1772701670105659400,6.194659423828125,-1.528756796720624,-0.8297869823381304,-0.2844832965791225
1772701670115707400,6.204707275390625,-1.4248621224820612,-0.8029547972530127,-0.3619949908047914
1772701670125755400,6.21475537109375,-1.3365204066842793,-0.7758247982650994,-0.42779286636114117
1772701670135803400,6.224803466796875,-1.3203618835657833,-0.7674807482898235,-0.49305356630086894
1772701670145852400,6.234852294921875,-1.3431038767278194,-0.7467094706788658,-0.5541010324597359
1772701670155900400,6.244900390625,-1.3088134845912456,-0.6124991531535983,-0.4934259067445993
1772701670165948400,6.254948486328125,-1.2533762595295905,-0.35284371609985826,-0.0008586626559495925
1772701670175996400,6.264996337890625,-0.44217561197876926,-0.08458002517670392,1.234980771139264
1772701670186044400,6.27504443359375,-0.061685179540514945,0.4686845564588904,1.8266753289341926
1772701670196092400,6.285092529296875,-0.33916999553442,0.8338052780687808,1.884958006554842
1772701670206141400,6.295141357421875,-0.1781295387506485,1.0395148976624011,2.3266174857050177
1772701670216189400,6.305189453125,0.04332943863868713,1.1525693221732973,2.7079613201022146
1772701670226237200,6.3152373046875,0.35893034253716466,1.102291087310016,2.5714818886011837
1772701670236285400,6.325285400390625,0.4730658402830362,0.7605844129048287,2.3790134433746335
1772701670246333400,6.33533349609375,0.26009938142895694,0.1179616319052875,2.0499895788013935
1772701670256381200,6.345381103515625,0.1852916854649782,-0.5861870464198291,1.5494757596224547
1772701670266429400,6.355429443359375,0.7589198406934737,-1.091492922180891,1.13821317230165
1772701670276477400,6.3654775390625,1.2420605002671479,-1.3280844406418502,0.7884311818599701
1772701670286525400,6.375525390625,1.4009902485072612,-1.3099638236701487,0.6367682097524404
1772701670296573400,6.385573486328125,1.644230265071988,-0.9641546823821961,0.5524281308114528
1772701670306621400,6.395621337890625,1.6772458149671554,-0.5248442505761981,0.4042763816952705
1772701670316669400,6.40566943359375,1.6365023011684416,-0.0681879855632782,0.3758808928161859
1772701670326717400,6.415717529296875,1.6217033759653567,0.2657750889778137,0.49451428650319573
1772701670336765200,6.42576513671875,1.7892653434723615,0.43878523888811466,0.6440010836154222
1772701670346813400,6.4358134765625,2.051905641555786,0.10542948259040713,0.6510159308135509
1772701670356861400,6.445861328125,2.120929493421316,-0.3034450405500829,0.8454267422795295
1772701670366909400,6.455909423828125,2.0576281108558176,-0.4082043687939644,1.163276886409521
1772701670376957400,6.46595751953125,2.1888544441342352,-0.5787479824602604,1.0880880821734666
1772701670387005400,6.47600537109375,2.259447152751684,-0.8044403596356511,0.9705857383430003
1772701670397053400,6.486053466796875,2.1726596806585787,-0.9522928335443138,0.8660393221974373
1772701670407101400,6.496101318359375,2.1146990745991467,-0.9413022145830094,0.677166855636239
1772701670417149200,6.506149169921875,1.890946433314681,-0.7921887808278203,0.5364724367886782
1772701670427198500,6.516198486328125,1.569689695611596,-0.39018034406453367,0.6364905618548393
1772701670437246200,6.52624609375,1.4567986449688672,0.10798618133589624,0.7836638213276863
1772701670447294500,6.53629443359375,1.6108213319450615,0.21587284782007335,0.8132201706796884
1772701670457342500,6.546342529296875,1.7947814765453338,0.14660685776174068,1.0157236877083777
1772701670467390200,6.55639013671875,1.8097031513452528,0.18349442678466438,1.197735036328435
1772701670477438500,6.5664384765625,1.663307305985689,0.2275995259709656,1.2060855160444974
1772701670487486500,6.576486572265625,1.2936696914732455,0.16580080305337905,1.2545529020935295
1772701670497534200,6.5865341796875,0.9386322647213935,0.07682385809198021,1.2311159124046562
1772701670507582500,6.59658251953125,0.6816729348838328,0.014749971494823693,1.0249790073096752
1772701670517630500,6.60663037109375,0.5366624064028263,-0.04525836087465286,0.7670534627884626
1772701670527678500,6.616678466796875,0.1752835016697645,-0.05530205437466502,0.4909089554876089
1772701670537726500,6.6267265625,-0.2693862652122974,-0.018885317733883855,0.09691723644137382
1772701670547774200,6.636774169921875,-0.4236263943314552,-0.029878859304636716,-0.2192027228951454
1772701670557822500,6.646822509765625,-0.407744350066781,-0.1505927125275135,-0.5034738380283117
1772701670567870500,6.656870361328125,-0.5908037464350462,-0.46092648967802524,-0.81657415728271
1772701670577918200,6.666918212890625,-0.7229477790802716,-0.7346480076156556,-0.9154290837883948
1772701670587966500,6.676966552734375,-0.8390010931462049,-0.9949752064511179,-0.7367255445420742
1772701670598014500,6.687014404296875,-1.04253804487586,-1.2479112721219658,-0.5564969876855611
1772701670608062200,6.697062255859375,-0.9785194539517164,-1.2213316004931927,-0.4596726902246475
1772701670618110500,6.7071103515625,-0.9069231212496757,-1.0614086034320294,-0.2556552615016699
1772701670628158200,6.717158203125,-0.8499941963255405,-0.8152187971509992,-0.06058803195357322
1772701670638206500,6.72720654296875,-0.6817103442847728,-0.5622681184329092,0.04578852222859859
1772701670648254500,6.73725439453125,-0.48489714785218235,-0.34204277449175713,0.056877486997842785
1772701670658303500,6.747303466796875,-0.2885579986721277,-0.18357582145780324,0.11536883893311023
1772701670668351500,6.7573515625,-0.16312544636428356,-0.08064633898958563,0.21174188549518583
1772701670678399200,6.767399169921875,-0.16699264318645,-0.03842091607004404,0.33263328724205493
1772701670688447500,6.777447509765625,-0.09840075299739837,-0.03481353922784328,0.3360784592598676
1772701670698495500,6.78749560546875,-0.010884966629743576,-0.10590689084380865,0.20836101088523865
1772701670708543200,6.797543212890625,-0.048321255576610565,-0.2516365273796022,0.009454641565680504
1772701670718591500,6.807591552734375,-0.07318447867631912,-0.2932182455681264,-0.14369652327299118
1772701670728639500,6.817639404296875,-0.07260872461497783,-0.3041086190253496,-0.2290852344840765
1772701670738687200,6.827687255859375,-0.06990531087517737,-0.2802940281957388,-0.27025135760903357
1772701670748735500,6.837735595703125,-0.09922551338374615,-0.333017318123579,-0.36334172923862934
1772701670758783200,6.847783203125,-0.17195815663933753,-0.40026656153202056,-0.5411474428623915
1772701670768831500,6.85783154296875,-0.24338673155903814,-0.5220812156036496,-0.6998106491208076
1772701670778879500,6.86787939453125,-0.24194530057907104,-0.7019181427940726,-0.6921686099350453
1772701670788927200,6.87792724609375,-0.29054420405328274,-0.8143412836641073,-0.6845470290154219
1772701670798975500,6.8879755859375,-0.4040723835557699,-0.9352437913268804,-0.6820686562031507
1772701670809023500,6.8980234375,-0.46878421744108195,-1.1607304167971015,-0.5452525400936603
1772701670819071200,6.9080712890625,-0.3229571118801832,-1.350626088926196,-0.33892800347208973
1772701670829119500,6.918119384765625,-0.22409341754615306,-1.3353241826370357,-0.2376712765216827
1772701670839167200,6.928167236328125,-0.1689572212576866,-1.4091340997353194,-0.2507131289243698
1772701670849215200,6.93821533203125,-0.14905308187007904,-1.369602884335816,-0.23626199424564837
1772701670859263500,6.948263427734375,-0.18146832778453825,-1.290207568320632,-0.2609861011356115
1772701670869312300,6.958312255859375,-0.33078152189552784,-1.151257070530951,-0.3339765185445547
1772701670879360500,6.968360595703125,-0.42785073402822016,-1.0343480164185166,-0.3765922559559345
1772701670889408300,6.978408203125,-0.5706155294090509,-0.9284531082734465,-0.39165655409693717
1772701670899456500,6.98845654296875,-0.7127543018460273,-0.8889750843659043,-0.4451724557071924
1772701670909504500,6.99850439453125,-0.8968073854267596,-0.8814712846070527,-0.4907727618873119
1772701670919552300,7.00855224609375,-1.039397993284464,-0.8629165140017867,-0.5456617054164409
1772701670929600500,7.0186005859375,-1.175408638229966,-0.7665206710860133,-0.7167337268710136
1772701670939648500,7.0286484375,-1.3640461269915103,-0.6535434034645557,-0.9408166230231523
1772701670949696300,7.0386962890625,-1.479074774184823,-0.6023182431399822,-1.0687690491974353
1772701670959744500,7.04874462890625,-1.5686936703115701,-0.5725251624226569,-1.132944291988015
1772701670969792300,7.058792236328125,-1.5751362705796956,-0.575279721827805,-1.1388654987305402
1772701670979840300,7.06884033203125,-1.595421518239379,-0.6313470614865422,-1.149957386109233
1772701670989888500,7.078888427734375,-1.6564193000376224,-0.6695917442068458,-1.1220762764930725
1772701670999936300,7.088936279296875,-1.732060524216294,-0.6416375693544745,-0.8774696477502584
1772701671009984500,7.098984619140625,-1.4641162745058536,-0.5011129541158675,0.12118541625738143
1772701671020032500,7.109032470703125,-0.7725883005619049,-0.33073359110057354,1.8610235887378452
1772701671030080300,7.119080322265625,-0.5338637155950069,-0.04347556911110878,2.468877838695049
1772701671040128500,7.12912841796875,-0.5601730458498001,0.44928076780885456,1.980129276111722
1772701671050176300,7.13917626953125,-0.293055894613266,0.6594289543718099,1.9158909049570558
1772701671060224300,7.149224365234375,0.24215806654691693,0.2817012646451592,2.2780045537054536
1772701671070272500,7.1592724609375,0.4125514580875635,-0.12730126878917217,2.358404955109954
1772701671080320300,7.1693203125,0.35125440108180045,-0.3819742412552237,2.0506161862671375
1772701671090368300,7.1793681640625,0.1593371599972248,-0.43035131867229937,1.7375304800599813
1772701671100417300,7.189417236328125,0.1973129626482725,-0.3902291516423225,1.6064947009176014
1772701671110465300,7.19946533203125,0.5400222382247447,-0.8077034530848264,1.2694979577690362
1772701671120513500,7.209513427734375,0.6351087521076202,-1.600195600773394,0.6744669490277767
1772701671130561300,7.219561279296875,0.5306488452017307,-2.306930496199429,0.10612111811637878
1772701671140609500,7.229609619140625,0.3849421511501074,-2.5930045691013333,-0.5344558362692594
1772701671150657000,7.239656982421875,0.263191502225399,-2.43940858310461,-1.0129232433348894
1772701671160704800,7.249704833984375,0.0362158072412014,-2.373402617755532,-1.2214005740761755
1772701671170753000,7.2597529296875,-0.24237960034310815,-2.388962882719934,-1.1542243959039449
1772701671180801000,7.269801025390625,-0.4895312373936176,-2.288617425395548,-0.6611228988081217
1772701671190848800,7.279848876953125,-0.514420763978362,-2.0540368083655833,-0.05680909793674945
1772701671200897000,7.28989697265625,-0.3704091834068298,-1.6697598431259393,0.4798310966342687
1772701671210944800,7.29994482421875,-0.22091946368515492,-1.113725504516065,1.0641402203530073
1772701671220992800,7.30999267578125,-0.27407705337703225,-0.42530221858918665,1.576459628137946
1772701671231041000,7.320041015625,-0.14566986917257307,0.08026508458703756,1.7710832055717705
1772701671241088800,7.3300888671875,0.17379940059185028,0.3430003674775362,1.915208183389902
1772701671251136800,7.34013671875,0.5491916331082582,0.3750678228676319,2.152958954888582
1772701671261185000,7.35018505859375,0.8301029164195061,0.2719628377020359,2.2009540472507476
1772701671271232800,7.360232666015625,0.9960153631538152,0.2790425668299198,2.0060551600068806
1772701671281281000,7.370281005859375,1.1141448989719152,0.3388391561448574,1.5379969187527893
1772701671291329800,7.380329833984375,1.2609008098155259,0.2872416553765535,1.204342471769452
1772701671301377800,7.390377685546875,1.3069599656790494,0.20404870064407585,0.9290618878215551
1772701671311426000,7.400426025390625,1.2367547950744628,0.1939589760452509,0.4928600895553827
1772701671321473800,7.410473876953125,1.123339428296685,0.2724687413975596,0.004638181194663048
1772701671331522000,7.42052197265625,0.95788583124578,0.34540888992398977,-0.3795727330714464
1772701671341569800,7.43056982421875,0.9838158067941665,0.3819786251693964,-0.6006804128050803
1772701671351617800,7.44061767578125,1.1871879233509302,0.40330929022878403,-0.5141852016568184
1772701671361666000,7.450666015625,1.3805378275871276,0.3291980520963669,-0.16494155587553977
1772701671371713800,7.4607138671875,1.322955407190323,0.29500556737631556,0.2295727257400751
1772701671381761800,7.47076171875,0.974068319761753,0.4000111254662275,0.5690121858656406
1772701671391810000,7.48081005859375,0.5827683240175247,0.632324674347043,0.762751966202259
1772701671401857800,7.49085791015625,0.2350888588130474,0.8912816077426076,0.6881231339365244
1772701671411906000,7.500906005859375,-0.013767244067788124,1.03505002720803,0.5478513244152069
1772701671421953800,7.510953857421875,-0.18377017498612402,0.9921706704244017,0.40501580188572406
1772701671432001800,7.521001708984375,-0.30088614984750744,0.7727475827768444,0.2743161228299141
1772701671442050000,7.531050048828125,-0.36352702267765996,0.46245033824443815,0.14022504777014255
1772701671452097800,7.541097900390625,-0.39057051242589946,0.215063138872385,0.034630583876371385
1772701671462145800,7.551145751953125,-0.32603637319505213,0.12807955968528986,-0.13155366553664208
1772701671472194000,7.561194091796875,-0.16733458849191665,0.046400808908045287,-0.2865051577955484
1772701671482241800,7.57124169921875,0.07927811937630176,-0.0009106851041316985,-0.41562896583676334
1772701671492289800,7.581289794921875,0.26746377271711824,0.0007946575090289115,-0.473118447253108
1772701671502338800,7.5913388671875,0.5180442151725292,0.06657675097435713,-0.5628957488119601
1772701671512386800,7.60138671875,0.8264093225985765,0.2006567201182246,-0.5689893895119428
1772701671522435000,7.61143505859375,1.0397007756233214,0.3497738071352243,-0.4739034601509571
1772701671532482800,7.62148291015625,1.1386696838974952,0.4995554955407977,-0.35891865209937096
1772701671542530800,7.63153076171875,1.1844471002101897,0.6056713529601693,-0.30646365771889683
1772701671552578800,7.641578857421875,1.9429694660186767,0.67891808321774,-0.025455928295850753
1772701671562626800,7.651626708984375,1.3218746262162924,0.607557312837243,0.13740180704295635
1772701671572675000,7.661675048828125,0.4433861568123102,0.25762568479180337,0.16352116768360137
1772701671582722800,7.671722900390625,0.15954875692129133,0.38001930779516696,0.17667466376721858
1772701671592770800,7.681770751953125,-0.10419453396797179,0.5301423569843172,0.04643500343859196
1772701671602819000,7.691819091796875,-0.43138416885137554,0.576081685860455,0.047642041140794754
1772701671612866800,7.70186669921875,-0.6586053630292416,0.7235311319261789,0.2666588860750198
1772701671622914800,7.711914794921875,-0.6872656403243541,0.34495705450326203,0.37043548689186573
1772701671632962800,7.721962890625,-0.3900444427251816,0.12713438778966665,0.27710546128749847
