time,seconds_elapsed,z,y,x
1772701663933656000,0.022656005859375,-0.08086954802274704,0.09869968146085739,-0.04271816834807396
1772701663943704000,0.0327041015625,-0.08235079795122147,0.08388451486825943,-0.05698126181960106
1772701663953752000,0.042751953125,-0.08221950381994247,0.06047026813030243,-0.0698922649025917
1772701663963800000,0.052800048828125,-0.0824727714061737,0.037159353494644165,-0.07949616014957428
1772701663973848000,0.06284814453125,-0.07437623292207718,0.012522183358669281,-0.07881864905357361
1772701663983896000,0.07289599609375,-0.04682369902729988,-0.018613630905747414,-0.08196677267551422
1772701663993944000,0.082944091796875,-0.032940372824668884,-0.02647901140153408,-0.07695124298334122
1772701664003992000,0.092991943359375,-0.024453410878777504,-0.026979153975844383,-0.07893475890159607
1772701664014040000,0.1030400390625,-0.012076636776328087,-0.0121839614585042,-0.08243415504693985
1772701664024088000,0.113088134765625,-0.02659272775053978,0.0242555383592844,-0.08299608528614044
1772701664034136000,0.123135986328125,-0.04127473384141922,0.0527644120156765,-0.09323886781930923
1772701664044184000,0.13318408203125,-0.06803125143051147,0.0464005209505558,-0.10829877853393555
1772701664054232000,0.143232177734375,-0.06591163575649261,0.026027072221040726,-0.1163306012749672
1772701664064281000,0.153281005859375,-0.06859983503818512,0.007458981592208147,-0.11174144595861435
1772701664074329000,0.1633291015625,-0.059783171862363815,-0.009958092123270035,-0.09709485620260239
1772701664084377000,0.173377197265625,-0.036137498915195465,-0.020067984238266945,-0.08374789357185364
1772701664094425000,0.183425048828125,-0.019757725298404694,-0.0313992016017437,-0.08070097118616104
1772701664104473000,0.19347314453125,-0.001817341079004109,-0.027221234515309334,-0.07844420522451401
1772701664114521000,0.20352099609375,0.01569773629307747,-0.01441169623285532,-0.07466225326061249
1772701664124568800,0.21356884765625,0.01816568709909916,-0.012227371335029602,-0.07432802766561508
1772701664134617000,0.2236171875,0.001199221471324563,0.0013113404856994748,-0.0755847692489624
1772701664144664800,0.233664794921875,-0.006807039491832256,0.021446969360113144,-0.054432082921266556
1772701664154712800,0.243712890625,-0.023309849202632904,0.03038533590734005,-0.024417191743850708
1772701664164760800,0.2537607421875,-0.02515648491680622,0.00487278588116169,0.0058080879971385
1772701664174808800,0.263808837890625,-0.0046362970024347305,-0.0014253237750381231,0.04091867059469223
1772701664184856800,0.27385693359375,0.03382427617907524,0.010723751038312912,0.07569795846939087
1772701664194904800,0.28390478515625,0.06598114967346191,0.01258024014532566,0.10248083621263504
1772701664204952800,0.293952880859375,0.08840283006429672,0.005579322576522827,0.10602284222841263
1772701664215000800,0.304000732421875,0.08602409809827805,0.019212577491998672,0.06831647455692291
1772701664225048800,0.314048828125,0.06037359684705734,0.07670782506465912,-0.008304269053041935
1772701664235096600,0.3240966796875,0.023032881319522858,0.14819613099098206,-0.09357202798128128
1772701664245144800,0.334144775390625,-0.024921327829360962,0.18046803772449493,-0.14242158830165863
1772701664255192800,0.34419287109375,-0.050324954092502594,0.1645314246416092,-0.14840225875377655
1772701664265240800,0.35424072265625,-0.07436184585094452,0.1360875368118286,-0.13272476196289062
1772701664275288800,0.364288818359375,-0.09356830269098282,0.1148911640048027,-0.10606145113706589
1772701664285336800,0.3743369140625,-0.08013584464788437,0.10314050316810608,-0.08076834678649902
1772701664295384800,0.384384765625,-0.04880082979798317,0.09593585133552551,-0.05246826633810997
1772701664305432800,0.394432861328125,-0.0008881642133928835,0.0596204549074173,-0.01570785604417324
1772701664315480800,0.404480712890625,0.04785221070051193,0.02286376990377903,0.013892912305891514
1772701664325528800,0.41452880859375,0.07279084622859955,0.005989449098706245,0.06548446416854858
1772701664335576800,0.424576904296875,0.11083224415779114,-0.03953595831990242,0.1181359589099884
1772701664345624600,0.43462451171875,0.14611539244651794,-0.0775962546467781,0.16653119027614594
1772701664355672800,0.4446728515625,0.156476691365242,-0.0762723982334137,0.18761597573757172
1772701664365720800,0.454720947265625,0.15028724074363708,-0.058212704956531525,0.16689524054527283
1772701664375768800,0.464768798828125,0.145137757062912,-0.017662616446614265,0.12969593703746796
1772701664385816800,0.47481689453125,0.1356385201215744,0.017675666138529778,0.06929758191108704
1772701664395864800,0.48486474609375,0.11692715436220169,0.07894434779882431,0.022232335060834885
1772701664405912800,0.494912841796875,0.10289735347032547,0.13369761407375336,-0.008501342497766018
1772701664415960800,0.5049609375,0.08837433904409409,0.15235891938209534,-0.03245168179273605
1772701664426008600,0.515008544921875,0.05175294354557991,0.15160684287548065,-0.055570051074028015
1772701664436056800,0.525056884765625,0.007537811063230038,0.12870950996875763,-0.08305813372135162
1772701664446104800,0.535104736328125,-0.028568528592586517,0.10671259462833405,-0.09526153653860092
1772701664456153900,0.54515380859375,-0.060979995876550674,0.10020969063043594,-0.10294076055288315
1772701664466201900,0.555201904296875,-0.09638965129852295,0.11565735936164856,-0.10901729762554169
1772701664476249600,0.56524951171875,-0.12326227873563766,0.10734482854604721,-0.12735635042190552
1772701664486297900,0.5752978515625,-0.1571749746799469,0.07762395590543747,-0.15122227370738983
1772701664496345900,0.585345947265625,-0.2132379710674286,0.05206213518977165,-0.18718773126602173
1772701664506393900,0.595393798828125,-0.2555580139160156,0.043411388993263245,-0.23570440709590912
1772701664516441900,0.60544189453125,-0.2827981412410736,0.040713872760534286,-0.30230021476745605
1772701664526489900,0.61548974609375,-0.2818330228328705,0.08081948012113571,-0.39540165662765503
1772701664536537900,0.625537841796875,-0.24289147555828094,0.1706218123435974,-0.5147972702980042
1772701664546585900,0.6355859375,-0.1794552505016327,0.3024301826953888,-0.6413259506225586
1772701664556633600,0.645633544921875,-0.09268999099731445,0.44082534313201904,-0.7371906638145447
1772701664566681900,0.655681884765625,0.03677559271454811,0.4686068892478943,-0.7903537750244141
1772701664576729900,0.665729736328125,0.227067232131958,0.3342602849006653,-0.7950497269630432
1772701664586777600,0.675777587890625,0.37685832381248474,0.2055233269929886,-0.6854074001312256
1772701664596825900,0.685825927734375,0.4811956584453583,0.03893008828163147,-0.47196194529533386
1772701664606873900,0.695873779296875,0.5295584201812744,-0.15513312816619873,-0.23605620861053467
1772701664616921900,0.705921875,0.4988691806793213,-0.3018735647201538,-0.0049098036251962185
1772701664626969900,0.715969970703125,0.4122983515262604,-0.3855314552783966,0.20955242216587067
1772701664637017600,0.726017578125,0.3027276396751404,-0.3899983763694763,0.3592468500137329
1772701664647065900,0.73606591796875,0.19192682206630707,-0.3233540952205658,0.44539186358451843
1772701664657113900,0.74611376953125,0.13324832916259766,-0.2531723380088806,0.500084638595581
1772701664667161600,0.75616162109375,0.10487448424100876,-0.19245147705078125,0.5442332029342651
1772701664677209900,0.7662099609375,0.07160068303346634,-0.14852555096149445,0.5822218656539917
1772701664687257900,0.7762578125,0.04640451818704605,-0.12342046946287155,0.6214403510093689
1772701664697305900,0.786305908203125,0.03427568078041077,-0.11918045580387115,0.6574684381484985
1772701664707353900,0.796353759765625,0.025854766368865967,-0.12379384785890579,0.687993586063385
1772701664717401900,0.80640185546875,0.011518970131874084,-0.10189361125230789,0.6971801519393921
1772701664727449900,0.816449951171875,-0.006564425770193338,-0.04772225022315979,0.6939718127250671
1772701664737497900,0.826497802734375,-0.03223250433802605,0.04807911068201065,0.6759139895439148
1772701664747545600,0.836545654296875,-0.06716039776802063,0.1552191525697708,0.640633761882782
1772701664757593900,0.84659375,-0.09974363446235657,0.24583320319652557,0.600803554058075
1772701664767641900,0.856641845703125,-0.12107369303703308,0.3015497326850891,0.5613626837730408
1772701664777689600,0.866689697265625,-0.13326245546340942,0.3245466649532318,0.5247007608413696
1772701664787737900,0.87673779296875,-0.13070102035999298,0.326659619808197,0.48528042435646057
1772701664797785900,0.886785888671875,-0.13805480301380157,0.3268771767616272,0.4420226812362671
1772701664807833900,0.896833740234375,-0.15326544642448425,0.3542795181274414,0.3950439989566803
1772701664817883000,0.9068828125,-0.16684651374816895,0.3894801139831543,0.36696016788482666
1772701664827930600,0.9169306640625,-0.19447600841522217,0.40984851121902466,0.3595733642578125
1772701664837979000,0.926978759765625,-0.2255108803510666,0.416623055934906,0.3893221914768219
1772701664848027000,0.93702685546875,-0.27271807193756104,0.3880593180656433,0.43040889501571655
1772701664858075000,0.947074951171875,-0.31931859254837036,0.3368195593357086,0.4684833288192749
1772701664868123000,0.957122802734375,-0.3658059537410736,0.2886216640472412,0.4956875145435333
1772701664878170600,0.967170654296875,-0.40185847878456116,0.2572624385356903,0.49482491612434387
1772701664888219000,0.977218994140625,-0.42553505301475525,0.23324443399906158,0.4780973196029663
1772701664898267000,0.987266845703125,-0.43354663252830505,0.20639151334762573,0.4451979696750641
1772701664908314600,0.997314697265625,-0.4434722363948822,0.16074414551258087,0.41368240118026733
1772701664918363000,1.00736279296875,-0.45848822593688965,0.11748907715082169,0.4029676914215088
1772701664928411000,1.017410888671875,-0.4712607264518738,0.09984510391950607,0.40828070044517517
1772701664938459000,1.027458984375,-0.48115330934524536,0.07886099070310593,0.4122576117515564
1772701664948507000,1.0375068359375,-0.4923798739910126,0.03592364490032196,0.42189425230026245
1772701664958554600,1.0475546875,-0.5016037225723267,-0.019573435187339783,0.4430338740348816
1772701664968603000,1.057602783203125,-0.5070999264717102,-0.04881627485156059,0.4790845811367035
1772701664978651000,1.06765087890625,-0.5101639032363892,-0.0666370838880539,0.502018392086029
1772701664988698600,1.07769873046875,-0.5188168287277222,-0.04247954860329628,0.5244933366775513
1772701664998747000,1.087746826171875,-0.5298672914505005,0.006433397997170687,0.5753253698348999
1772701665008795000,1.097794921875,-0.5385476350784302,0.08356306701898575,0.6414079666137695
1772701665018842600,1.107842529296875,-0.5498296022415161,0.1416492760181427,0.7034380435943604
1772701665028891000,1.117890869140625,-0.5549843907356262,0.15757285058498383,0.7381238341331482
1772701665038939000,1.12793896484375,-0.574725866317749,0.15151283144950867,0.7593449950218201
1772701665048987000,1.13798681640625,-0.6189375519752502,0.17130517959594727,0.7752613425254822
1772701665059035000,1.148034912109375,-0.6582695245742798,0.20556993782520294,0.8036434650421143
1772701665069082600,1.15808251953125,-0.6862223148345947,0.2575865387916565,0.8249256014823914
1772701665079131000,1.168130859375,-0.7043980956077576,0.2916150689125061,0.8523595929145813
1772701665089179000,1.178178955078125,-0.7232559323310852,0.31143245100975037,0.8806040287017822
1772701665099226600,1.1882265625,-0.7600778937339783,0.33045968413352966,0.9426237344741821
1772701665109275000,1.19827490234375,-0.7738671898841858,0.29195889830589294,1.0147958993911743
1772701665119323000,1.208322998046875,-0.6731730699539185,0.1263161301612854,1.0616651773452759
1772701665129370600,1.21837060546875,-0.5242701768875122,0.0018639464396983385,1.108428955078125
1772701665139419000,1.2284189453125,-0.5082975625991821,-0.03983636200428009,1.1356807947158813
1772701665149467000,1.238466796875,-0.5502138733863831,-0.12068141251802444,1.1021382808685303
1772701665159515000,1.248514892578125,-0.5601727366447449,-0.21697305142879486,1.0478510856628418
1772701665169563600,1.258563720703125,-0.5467091798782349,-0.3119775950908661,1.00735342502594
1772701665179611600,1.268611572265625,-0.5606617331504822,-0.3628932535648346,0.9543544054031372
1772701665189660000,1.278659912109375,-0.5765796899795532,-0.3528374135494232,0.8876249194145203
1772701665199707600,1.288707763671875,-0.5801472663879395,-0.2777879536151886,0.7818995714187622
1772701665209756000,1.298755859375,-0.5790756344795227,-0.1608022004365921,0.6785681247711182
1772701665219804000,1.308803955078125,-0.5923293828964233,-0.058823369443416595,0.6092023849487305
1772701665229851600,1.3188515625,-0.5604054927825928,-0.0021140172611922026,0.5781072974205017
1772701665239900000,1.32889990234375,-0.46381106972694397,-0.02088397555053234,0.5838155150413513
1772701665249948000,1.338947998046875,-0.35144856572151184,-0.11824621260166168,0.6153505444526672
1772701665259995600,1.34899560546875,-0.26871001720428467,-0.2720924913883209,0.6640536189079285
1772701665270044000,1.3590439453125,-0.23438000679016113,-0.4629306197166443,0.7107577323913574
1772701665280091600,1.369091552734375,-0.23709431290626526,-0.6615284085273743,0.7698072195053101
1772701665290140000,1.379139892578125,-0.2784995436668396,-0.9159761667251587,0.8557466268539429
1772701665300188000,1.38918798828125,-0.34794145822525024,-1.2374253273010254,0.9466773271560669
1772701665310235600,1.399235595703125,-0.45317894220352173,-1.586689829826355,1.0011730194091797
1772701665320284000,1.409283935546875,-0.5466436147689819,-1.9977710247039795,0.9901928305625916
1772701665330332000,1.419331787109375,-0.5976415872573853,-2.3909752368927,0.9329346418380737
1772701665340379600,1.429379638671875,-0.6155588030815125,-2.7089591026306152,0.8420718312263489
1772701665350428000,1.439427978515625,-0.6466416120529175,-2.866633653640747,0.7334843873977661
1772701665360476000,1.449475830078125,-0.6471899747848511,-2.746140718460083,0.6229040622711182
1772701665370523600,1.459523681640625,-0.5963688492774963,-2.33415150642395,0.515547513961792
1772701665380572000,1.469572021484375,-0.48899045586586,-1.761680245399475,0.3839527368545532
1772701665390619600,1.47961962890625,-0.37501248717308044,-1.0848122835159302,0.2390943467617035
1772701665400668000,1.48966796875,-0.26999926567077637,-0.400032639503479,0.10847880691289902
1772701665410716000,1.4997158203125,-0.2537819445133209,0.20028568804264069,-0.03099519945681095
1772701665420763600,1.509763671875,-0.30304935574531555,0.5528424382209778,-0.13995470106601715
1772701665430812000,1.51981201171875,-0.33134543895721436,0.7454938888549805,-0.20952419936656952
1772701665440860000,1.52985986328125,-0.345829039812088,0.852075457572937,-0.2426195591688156
1772701665450907600,1.53990771484375,-0.3428513705730438,0.907660961151123,-0.23440584540367126
1772701665460956000,1.549955810546875,-0.3199540376663208,0.9481218457221985,-0.1841953992843628
1772701665471003600,1.560003662109375,-0.3018823564052582,0.9854660034179688,-0.08067460358142853
1772701665481051600,1.5700517578125,-0.29821518063545227,0.9844452142715454,0.039740756154060364
1772701665491100000,1.580099853515625,-0.3010261356830597,0.8693735003471375,0.17164818942546844
1772701665501147600,1.590147705078125,-0.2504633665084839,0.6942756772041321,0.31418269872665405
1772701665511197000,1.600197021484375,-0.1619042158126831,0.5170327425003052,0.43587982654571533
1772701665521244700,1.61024462890625,-0.06162954121828079,0.36923903226852417,0.5171566009521484
1772701665531293000,1.62029296875,0.026381539180874825,0.2813986539840698,0.5137338638305664
1772701665541341000,1.6303408203125,0.09331823140382767,0.25555479526519775,0.43483054637908936
1772701665551388700,1.640388671875,0.1361069679260254,0.2721356451511383,0.29053622484207153
1772701665561437000,1.65043701171875,0.161577969789505,0.30917754769325256,0.1281190812587738
1772701665571485000,1.66048486328125,0.17640165984630585,0.32125285267829895,-0.009257947094738483
1772701665581532700,1.67053271484375,0.18843914568424225,0.3143555521965027,-0.09641867876052856
1772701665591581000,1.680580810546875,0.18204836547374725,0.29518023133277893,-0.13670697808265686
1772701665601628700,1.690628662109375,0.15619386732578278,0.2641142010688782,-0.1364198923110962
1772701665611676700,1.7006767578125,0.12052002549171448,0.2382301390171051,-0.12335042655467987
1772701665621725000,1.710724853515625,0.07937551289796829,0.2220170795917511,-0.11042770743370056
1772701665631772700,1.720772705078125,0.05101444944739342,0.20103217661380768,-0.10311892628669739
1772701665641821000,1.730821044921875,0.027163710445165634,0.18073728680610657,-0.11016032844781876
1772701665651869000,1.740868896484375,-0.0014016216155141592,0.1798533797264099,-0.12505830824375153
1772701665661916700,1.750916748046875,-0.019787820056080818,0.21501509845256805,-0.12479013204574585
1772701665671965000,1.76096484375,-0.02184404619038105,0.24786946177482605,-0.10549766570329666
1772701665682012700,1.7710126953125,-0.015270032919943333,0.2673177123069763,-0.0765424445271492
1772701665692060700,1.781060791015625,-0.00600383011624217,0.2640838325023651,-0.04705672338604927
1772701665702109000,1.79110888671875,0.0059244679287076,0.230167955160141,-0.021520204842090607
1772701665712156700,1.80115673828125,0.015062838792800903,0.1895984262228012,-0.0007387608638964593
1772701665722204700,1.81120458984375,0.03296434134244919,0.1522342711687088,0.01906716823577881
1772701665732253000,1.8212529296875,0.0507689043879509,0.10376527905464172,0.031002657487988472
1772701665742300700,1.83130078125,0.06921848654747009,0.04296237975358963,0.024877652525901794
1772701665752349000,1.841348876953125,0.0879431739449501,-0.003859453136101365,-0.0002836266648955643
1772701665762397000,1.85139697265625,0.10469978302717209,-0.024750087410211563,-0.03350203484296799
1772701665772444700,1.861444580078125,0.11543205380439758,-0.03894819691777229,-0.0710829645395279
1772701665782493000,1.871492919921875,0.12082468718290329,-0.04780081287026405,-0.11198725551366806
1772701665792540700,1.881540771484375,0.12961445748806,-0.05963962897658348,-0.14766083657741547
1772701665802588700,1.891588623046875,0.13381879031658173,-0.06811300665140152,-0.15479224920272827
1772701665812637000,1.901636962890625,0.13101394474506378,-0.05787155404686928,-0.14371135830879211
1772701665822684700,1.9116845703125,0.129632830619812,-0.04642901569604874,-0.1254090517759323
1772701665832733000,1.92173291015625,0.13856400549411774,-0.031982433050870895,-0.1100388839840889
1772701665842781000,1.931781005859375,0.13917545974254608,-0.026857180520892143,-0.09842590242624283
1772701665852828700,1.94182861328125,0.15404309332370758,-0.028170118108391762,-0.08528374135494232
1772701665862878000,1.9518779296875,0.1649327576160431,-0.0322418250143528,-0.07301189005374908
1772701665872925700,1.96192578125,0.18315783143043518,-0.031072964891791344,-0.06329934298992157
1772701665882974000,1.971973876953125,0.20477497577667236,-0.022584937512874603,-0.06364129483699799
1772701665893021700,1.982021728515625,0.2170151323080063,-0.00424188282340765,-0.0810043066740036
1772701665903069700,1.992069580078125,0.23057754337787628,0.02816745638847351,-0.11027351021766663
1772701665913118000,2.002117919921875,0.2374895215034485,0.06840808689594269,-0.13633014261722565
1772701665923165700,2.012165771484375,0.24376046657562256,0.09609883278608322,-0.15267369151115417
1772701665933213700,2.022213623046875,0.24278095364570618,0.10812993347644806,-0.15414562821388245
1772701665943262000,2.032261962890625,0.2506348788738251,0.09990129619836807,-0.1533232480287552
1772701665953309700,2.042309814453125,0.26646551489830017,0.07799892872571945,-0.15835635364055634
1772701665963357700,2.052357666015625,0.2762185335159302,0.06768317520618439,-0.15682263672351837
1772701665973406000,2.062406005859375,0.2848953902721405,0.06402558833360672,-0.1605691760778427
1772701665983453700,2.07245361328125,0.2881132960319519,0.08341686427593231,-0.16889607906341553
1772701665993502000,2.082501953125,0.29095354676246643,0.11546853929758072,-0.18350137770175934
1772701666003549700,2.0925498046875,0.29520395398139954,0.13772323727607727,-0.19866329431533813
1772701666013597700,2.10259765625,0.30161577463150024,0.1492973417043686,-0.21744577586650848
1772701666023646000,2.11264599609375,0.30753278732299805,0.16210101544857025,-0.23286867141723633
1772701666033693700,2.122693603515625,0.3178615868091583,0.1683754324913025,-0.24577301740646362
1772701666043741700,2.13274169921875,0.3248142898082733,0.16593223810195923,-0.2615533173084259
1772701666053790000,2.1427900390625,0.3311435580253601,0.1694023460149765,-0.2859739661216736
1772701666063837700,2.152837646484375,0.34917423129081726,0.17302849888801575,-0.29524949193000793
1772701666073886000,2.162885986328125,0.35670459270477295,0.1797628402709961,-0.31274139881134033
1772701666083934000,2.172933837890625,0.36727309226989746,0.15854276716709137,-0.3254145681858063
1772701666093981700,2.182981689453125,0.37580665946006775,0.1425108015537262,-0.3425475060939789
1772701666104030000,2.193030029296875,0.37490516901016235,0.14651700854301453,-0.36331668496131897
1772701666114077700,2.20307763671875,0.3674909174442291,0.14580221474170685,-0.3572116494178772
1772701666124125700,2.213125732421875,0.35966548323631287,0.19611917436122894,-0.345901757478714
1772701666134174000,2.223174072265625,0.3490791618824005,0.23502743244171143,-0.3418324291706085
1772701666144221400,2.233221435546875,0.3337055444717407,0.14205434918403625,-0.3742702603340149
1772701666154269400,2.24326953125,0.2965712249279022,0.07702074944972992,-0.3554007112979889
1772701666164317400,2.2533173828125,0.23267745971679688,0.12121324241161346,-0.24980983138084412
1772701666174365400,2.263365478515625,0.21394158899784088,0.09038129448890686,-0.16246934235095978
1772701666184413400,2.273413330078125,0.24399642646312714,0.03139787167310715,-0.06995218992233276
1772701666194461400,2.28346142578125,0.2884126305580139,-0.015992814674973488,0.019939353689551353
1772701666204509400,2.293509521484375,0.34109020233154297,-0.0727386549115181,0.07517357915639877
1772701666214557400,2.303557373046875,0.38823509216308594,-0.1678427904844284,0.09960728138685226
1772701666224606500,2.3136064453125,0.39623814821243286,-0.2368229329586029,0.1157713383436203
1772701666234654500,2.323654541015625,0.3568696975708008,-0.24469123780727386,0.1380542814731598
1772701666244702500,2.333702392578125,0.28874659538269043,-0.2014862447977066,0.16252127289772034
1772701666254750500,2.34375048828125,0.20764826238155365,-0.137291818857193,0.19199153780937195
1772701666264798500,2.353798583984375,0.11175795644521713,-0.041311752051115036,0.22880947589874268
1772701666274846200,2.36384619140625,0.009350092150270939,0.0771120935678482,0.24558979272842407
1772701666284894500,2.37389453125,-0.07459887117147446,0.21850118041038513,0.20869594812393188
1772701666294942500,2.3839423828125,-0.16579508781433105,0.3734854459762573,0.13826227188110352
1772701666304990500,2.393990478515625,-0.20651961863040924,0.5707769393920898,0.08169406652450562
1772701666315038500,2.40403857421875,-0.21012075245380402,0.7982945442199707,0.038296520709991455
1772701666325086500,2.41408642578125,-0.19279581308364868,0.9979751110076904,-0.007567638531327248
1772701666335134500,2.424134521484375,-0.15265904366970062,1.1180213689804077,-0.044746432453393936
1772701666345182500,2.434182373046875,-0.07593444734811783,1.1337811946868896,-0.050924431532621384
1772701666355230200,2.444230224609375,0.016349412500858307,1.0834481716156006,-0.0007334345718845725
1772701666365278500,2.454278564453125,0.12158209085464478,0.9803397059440613,0.09391078352928162
1772701666375326500,2.464326416015625,0.2124938815832138,0.8510924577713013,0.19178035855293274
1772701666385374500,2.47437451171875,0.2346431314945221,0.732751727104187,0.2393265664577484
1772701666395422500,2.48442236328125,0.23299942910671234,0.6413118243217468,0.23542530834674835
1772701666405470500,2.494470458984375,0.24624678492546082,0.5790529847145081,0.20970796048641205
1772701666415518500,2.5045185546875,0.24483159184455872,0.4682729244232178,0.19860151410102844
1772701666425566500,2.51456640625,0.3362986445426941,0.29725563526153564,0.21264488995075226
1772701666435614500,2.524614501953125,0.33786511421203613,0.16538283228874207,0.29780131578445435
1772701666445662500,2.534662353515625,0.3409482538700104,-0.03398992493748665,0.4208865165710449
1772701666455710500,2.54471044921875,0.3789243996143341,-0.22177021205425262,0.546785295009613
1772701666465758200,2.55475830078125,0.41991978883743286,-0.37365055084228516,0.6341713666915894
1772701666475806500,2.564806396484375,0.47724005579948425,-0.47247806191444397,0.6681921482086182
1772701666485854500,2.5748544921875,0.5481592416763306,-0.5380187034606934,0.6750399470329285
1772701666495902500,2.58490234375,0.6475194096565247,-0.5733823180198669,0.6879765391349792
1772701666505950500,2.594950439453125,0.7453122735023499,-0.6014453768730164,0.7326641082763672
1772701666515998500,2.60499853515625,0.8082786798477173,-0.6625620126724243,0.7878373265266418
1772701666526046500,2.61504638671875,0.8163914680480957,-0.7132624387741089,0.8158655166625977
1772701666536094500,2.625094482421875,0.7437170147895813,-0.672003984451294,0.7967615723609924
1772701666546142500,2.635142578125,0.5972051024436951,-0.5183323621749878,0.7236216068267822
1772701666556191500,2.64519140625,0.429327130317688,-0.3179207146167755,0.5982580780982971
1772701666566239200,2.6552392578125,0.2655602991580963,-0.10869425535202026,0.40074554085731506
1772701666576287500,2.66528759765625,0.12908022105693817,0.09577473253011703,0.17905737459659576
1772701666586335500,2.67533544921875,0.043052393943071365,0.2933618426322937,-0.014852182939648628
1772701666596383200,2.68538330078125,0.005049353465437889,0.4187586307525635,-0.1799476593732834
1772701666606431500,2.695431396484375,-0.0052259210497140884,0.49934375286102295,-0.28683602809906006
1772701666616479500,2.7054794921875,-0.014224209822714329,0.5637504458427429,-0.31568631529808044
1772701666626527200,2.71552734375,-0.019919378682971,0.5934324264526367,-0.26742637157440186
1772701666636575500,2.725575439453125,-0.02442038804292679,0.6037159562110901,-0.18007709085941315
1772701666646623500,2.73562353515625,-0.029274798929691315,0.5548962354660034,-0.06420321762561798
1772701666656671500,2.74567138671875,-0.03335502743721008,0.4609058201313019,0.09147665649652481
1772701666666719500,2.755719482421875,-0.04954118654131889,0.3271419107913971,0.26532700657844543
1772701666676767200,2.765767333984375,-0.08797699213027954,0.17701072990894318,0.43112608790397644
1772701666686815500,2.7758154296875,-0.13750725984573364,0.028381306678056717,0.5611783862113953
1772701666696863500,2.785863525390625,-0.17620964348316193,-0.07676348835229874,0.6452724933624268
1772701666706911200,2.7959111328125,-0.20381172001361847,-0.14051663875579834,0.6764429211616516
1772701666716959500,2.80595947265625,-0.2165626585483551,-0.18662713468074799,0.6621862053871155
1772701666727007500,2.816007568359375,-0.23576165735721588,-0.21848812699317932,0.6330618858337402
1772701666737055500,2.826055419921875,-0.2646290063858032,-0.2418680191040039,0.6063405275344849
1772701666747103500,2.836103515625,-0.30402299761772156,-0.23642878234386444,0.5902190804481506
1772701666757151500,2.8461513671875,-0.34040629863739014,-0.19934453070163727,0.5773232579231262
1772701666767199500,2.856199462890625,-0.37494271993637085,-0.14398673176765442,0.5663033723831177
1772701666777247500,2.86624755859375,-0.399398535490036,-0.0823071226477623,0.5520687699317932
1772701666787295200,2.876295166015625,-0.40663033723831177,0.012891829945147038,0.5414872169494629
1772701666797343500,2.886343505859375,-0.4108743667602539,0.13652561604976654,0.5160700082778931
1772701666807391500,2.8963916015625,-0.4128040671348572,0.22862891852855682,0.4573497176170349
1772701666817439200,2.906439208984375,-0.40650704503059387,0.2899812161922455,0.3887062072753906
1772701666827487500,2.916487548828125,-0.3831969201564789,0.3679679036140442,0.35269680619239807
1772701666837535500,2.926535400390625,-0.3657098114490509,0.4222058355808258,0.3307931125164032
1772701666847583500,2.93658349609375,-0.3559224307537079,0.4609668254852295,0.32448700070381165
1772701666857631500,2.946631591796875,-0.34381303191185,0.47796258330345154,0.31974658370018005
1772701666867679200,2.95667919921875,-0.3325110971927643,0.4823291003704071,0.3380347788333893
1772701666877728500,2.966728515625,-0.3346267342567444,0.4695903956890106,0.36962252855300903
1772701666887776300,2.9767763671875,-0.34746450185775757,0.4581790268421173,0.4177623391151428
1772701666897824500,2.986824462890625,-0.36525601148605347,0.43202465772628784,0.4845600128173828
1772701666907872500,2.99687255859375,-0.3875613212585449,0.38177451491355896,0.5533031225204468
1772701666917920300,3.006920166015625,-0.40206462144851685,0.32792380452156067,0.6309004426002502
1772701666927968500,3.016968505859375,-0.4262967109680176,0.2641189992427826,0.717802882194519
1772701666938016500,3.0270166015625,-0.4477636516094208,0.18635256588459015,0.7812042236328125
1772701666948064300,3.037064208984375,-0.46259641647338867,0.12007660418748856,0.8206831812858582
1772701666958112500,3.047112548828125,-0.481999933719635,0.06561362743377686,0.831152617931366
1772701666968160500,3.057160400390625,-0.4955679476261139,0.023916518315672874,0.8113455772399902
1772701666978208500,3.06720849609375,-0.5120784640312195,-0.013083045370876789,0.7683808207511902
1772701666988256500,3.077256591796875,-0.5290167331695557,-0.0320572704076767,0.6986427307128906
1772701666998304300,3.08730419921875,-0.5558059811592102,-0.032894566655159,0.6102455258369446
1772701667008352500,3.0973525390625,-0.5811843276023865,-0.013675598427653313,0.514580249786377
1772701667018400500,3.107400390625,-0.6062073707580566,0.019330553710460663,0.42563971877098083
1772701667028448300,3.1174482421875,-0.617098867893219,0.04818696901202202,0.36037522554397583
1772701667038496500,3.12749658203125,-0.6120319366455078,0.07731689512729645,0.31272727251052856
1772701667048544500,3.13754443359375,-0.5975661873817444,0.11577507108449936,0.2800694704055786
1772701667058592300,3.14759228515625,-0.5775514841079712,0.1699323058128357,0.25237366557121277
1772701667068640500,3.157640625,-0.5722842812538147,0.23205719888210297,0.23856650292873383
1772701667078688300,3.167688232421875,-0.5769453644752502,0.27195215225219727,0.23875851929187775
1772701667088736500,3.177736572265625,-0.5753365159034729,0.28491270542144775,0.26100069284439087
1772701667098784500,3.187784423828125,-0.5703638792037964,0.2776643633842468,0.2925349175930023
1772701667108832300,3.197832275390625,-0.5583778023719788,0.25483015179634094,0.31773295998573303
1772701667118880500,3.207880615234375,-0.5476886630058289,0.22431273758411407,0.3173801004886627
1772701667128928500,3.217928466796875,-0.5563673973083496,0.17420509457588196,0.3074379861354828
1772701667138976300,3.227976318359375,-0.5639054775238037,0.1323292851448059,0.32567957043647766
1772701667149025500,3.238025634765625,-0.5669419765472412,0.08080882579088211,0.3771102726459503
1772701667159073300,3.2480732421875,-0.5668008327484131,0.008382299914956093,0.4432344138622284
1772701667169121500,3.25812158203125,-0.5585394501686096,-0.07424813508987427,0.5154449939727783
1772701667179169500,3.26816943359375,-0.5412493944168091,-0.13716371357440948,0.5698176622390747
1772701667189217300,3.27821728515625,-0.541925311088562,-0.2124645859003067,0.6160538792610168
1772701667199265500,3.288265625,-0.5419663190841675,-0.265884667634964,0.6349388957023621
1772701667209313300,3.298313232421875,-0.544844925403595,-0.29680290818214417,0.6521120071411133
1772701667219362600,3.308362548828125,-0.5572153329849243,-0.30999407172203064,0.6614322662353516
1772701667229410300,3.318410400390625,-0.5830357074737549,-0.29305824637413025,0.6624583601951599
1772701667239458300,3.328458251953125,-0.6175146102905273,-0.24963033199310303,0.6646006107330322
1772701667249506600,3.338506591796875,-0.6495615243911743,-0.1969926953315735,0.6802901029586792
1772701667259554300,3.34855419921875,-0.691805899143219,-0.1644725650548935,0.6981987953186035
1772701667269602300,3.358602294921875,-0.7281082272529602,-0.1497040092945099,0.7216929197311401
1772701667279650600,3.368650634765625,-0.7181456089019775,-0.20034721493721008,0.7502313852310181
1772701667289698300,3.3786982421875,-0.5958929657936096,-0.3999881446361542,0.7580916881561279
1772701667299746300,3.388746337890625,-0.5382158160209656,-0.6110031604766846,0.7396376132965088
1772701667309794300,3.398794189453125,-0.590347945690155,-0.7294397950172424,0.6894785761833191
1772701667319842300,3.40884228515625,-0.6543400287628174,-0.7808036804199219,0.6329817175865173
1772701667329890600,3.418890625,-0.6877304315567017,-0.7596784234046936,0.5718938708305359
1772701667339938300,3.428938232421875,-0.7029850482940674,-0.6760567426681519,0.4973040521144867
1772701667349986300,3.438986328125,-0.725951075553894,-0.6400414705276489,0.39604508876800537
1772701667360034600,3.44903466796875,-0.7585082054138184,-0.6430782675743103,0.2756265103816986
1772701667370082300,3.459082275390625,-0.766161322593689,-0.6055125594139099,0.15988659858703613
1772701667380130300,3.46913037109375,-0.7110474705696106,-0.4957626163959503,0.06796733289957047
1772701667390178600,3.479178466796875,-0.681045413017273,-0.31874895095825195,0.009766876697540283
1772701667400226300,3.489226318359375,-0.7101329565048218,-0.11619558185338974,-0.009883522987365723
1772701667410274300,3.4992744140625,-0.7719670534133911,0.11703260987997055,0.014456703327596188
1772701667420322300,3.509322265625,-0.814948320388794,0.3736007511615753,0.06214539706707001
1772701667430370300,3.519370361328125,-0.777215301990509,0.6464687585830688,0.09320984035730362
1772701667440418600,3.52941845703125,-0.6779398918151855,0.9355689883232117,0.13126693665981293
1772701667450466300,3.53946630859375,-0.5278105735778809,1.2130358219146729,0.15668122470378876
1772701667460514300,3.549514404296875,-0.3336711823940277,1.379725456237793,0.14888562262058258
1772701667470562600,3.5595625,-0.11871732771396637,1.3872044086456299,0.12822002172470093
1772701667480610300,3.5696103515625,0.03148255869746208,1.2489045858383179,0.1543339192867279
1772701667490658300,3.579658203125,0.10503214597702026,0.9383432269096375,0.27010124921798706
1772701667500706600,3.58970654296875,0.11188392341136932,0.5578278303146362,0.46372610330581665
1772701667510754300,3.59975439453125,0.0726451724767685,0.12584315240383148,0.6523575782775879
1772701667520802600,3.609802490234375,0.010511497035622597,-0.25353240966796875,0.7532303929328918
1772701667530851300,3.619851318359375,-0.07081425189971924,-0.5277652740478516,0.7738251090049744
1772701667540899300,3.6298994140625,-0.10890065133571625,-0.7227047085762024,0.7434160709381104
1772701667550947300,3.639947265625,-0.10848919302225113,-0.8182594180107117,0.6759589910507202
1772701667560995300,3.649995361328125,-0.08867713809013367,-0.869113028049469,0.5672248005867004
1772701667571043600,3.660043701171875,-0.04849536344408989,-0.851170539855957,0.4390503466129303
1772701667581091300,3.67009130859375,-0.0095069520175457,-0.7735958099365234,0.29800480604171753
1772701667591139300,3.680139404296875,0.02034415304660797,-0.6455965638160706,0.16275855898857117
1772701667601187600,3.6901875,0.03570473566651344,-0.4452514946460724,0.03748292848467827
1772701667611235300,3.7002353515625,0.030586138367652893,-0.1803750991821289,-0.06807386130094528
1772701667621283300,3.710283447265625,0.01846742443740368,0.14161145687103271,-0.1349458396434784
1772701667631331300,3.720331298828125,0.024229705333709717,0.4554649889469147,-0.1554577648639679
1772701667641379300,3.73037939453125,0.050403252243995667,0.6878569722175598,-0.17268042266368866
1772701667651427300,3.74042724609375,0.054427288472652435,0.8583852648735046,-0.19436654448509216
1772701667661475300,3.750475341796875,0.04560663178563118,0.9867504239082336,-0.20847411453723907
1772701667671523300,3.7605234375,0.06392492353916168,1.0520868301391602,-0.19145864248275757
1772701667681571600,3.770571533203125,0.07052503526210785,1.0417686700820923,-0.1389158070087433
1772701667691619300,3.780619384765625,0.07203345000743866,0.8951864242553711,-0.046657782047986984
1772701667701667300,3.790667236328125,0.0839335173368454,0.6438564658164978,0.04688388481736183
1772701667711715600,3.800715576171875,0.09955695271492004,0.3653971552848816,0.10737945139408112
1772701667721763300,3.810763427734375,0.13562174141407013,0.17374488711357117,0.08921775966882706
1772701667731811300,3.820811279296875,0.18848761916160583,0.025170333683490753,0.009112006053328514
1772701667741859300,3.830859375,0.2569156885147095,-0.11543311923742294,-0.1078827902674675
1772701667751907300,3.8409072265625,0.3067580759525299,-0.2550964653491974,-0.22180242836475372
1772701667761955600,3.85095556640625,0.3405416011810303,-0.3711535632610321,-0.32706788182258606
1772701667772003300,3.86100341796875,0.3886380195617676,-0.4377799928188324,-0.41531890630722046
1772701667782051300,3.87105126953125,0.44468823075294495,-0.429773211479187,-0.4682084918022156
1772701667792099600,3.881099609375,0.48866769671440125,-0.40439116954803467,-0.4866010844707489
1772701667802147300,3.891147216796875,0.5283213257789612,-0.37111201882362366,-0.4914642572402954
1772701667812195300,3.9011953125,0.5506301522254944,-0.25034114718437195,-0.4839498996734619
1772701667822243300,3.911243408203125,0.5392640233039856,-0.08970591425895691,-0.461905300617218
1772701667832292400,3.921292236328125,0.518913984298706,0.07281535118818283,-0.4387960135936737
1772701667842340400,3.93134033203125,0.49390584230422974,0.2229582518339157,-0.441168874502182
1772701667852388400,3.941388427734375,0.48594674468040466,0.3583672046661377,-0.4507509171962738
1772701667862436400,3.951436279296875,0.4371613562107086,0.526909589767456,-0.4414690136909485
1772701667872484400,3.961484375,0.3895954191684723,0.6003414988517761,-0.4249313175678253
1772701667882532400,3.971532470703125,0.35741832852363586,0.5979449152946472,-0.4218263328075409
1772701667892580400,3.981580322265625,0.315832257270813,0.5948367118835449,-0.4205605387687683
1772701667902628400,3.99162841796875,0.26160576939582825,0.5898635387420654,-0.394880473613739
1772701667912676400,4.00167626953125,0.23081617057323456,0.6036717891693115,-0.35623401403427124
1772701667922724600,4.011724609375,0.23198316991329193,0.6326991319656372,-0.3444921374320984
1772701667932772400,4.0217724609375,0.23304204642772675,0.6426740288734436,-0.35775867104530334
1772701667942820400,4.0318203125,0.2393614500761032,0.6073136329650879,-0.3902644217014313
1772701667952868400,4.041868408203125,0.25419631600379944,0.555820882320404,-0.45520639419555664
1772701667962916400,4.051916259765625,0.28667545318603516,0.505528450012207,-0.5520722270011902
1772701667972964400,4.06196435546875,0.31946349143981934,0.4726887047290802,-0.6667963862419128
1772701667983012400,4.072012451171875,0.3574715852737427,0.44338035583496094,-0.7897630929946899
1772701667993060400,4.082060302734375,0.38704758882522583,0.3905477821826935,-0.9140048623085022
1772701668003108600,4.092108642578125,0.44704779982566833,0.279034823179245,-1.0173200368881226
1772701668013156400,4.10215625,0.5054479837417603,0.21831396222114563,-1.0665006637573242
1772701668023204400,4.112204345703125,0.522284209728241,0.14943662285804749,-1.0212913751602173
1772701668033252400,4.12225244140625,0.5364024639129639,0.01474672183394432,-0.9137678742408752
1772701668043300400,4.13230029296875,0.5584603548049927,-0.10041981190443039,-0.7998596429824829
1772701668053348400,4.142348388671875,0.5857353806495667,-0.17784883081912994,-0.7110312581062317
1772701668063396400,4.152396240234375,0.6131123900413513,-0.2595692574977875,-0.6387498378753662
1772701668073444400,4.1624443359375,0.6236827373504639,-0.3076273202896118,-0.6036834716796875
1772701668083492400,4.172492431640625,0.6122156977653503,-0.3379269242286682,-0.582576334476471
1772701668093540400,4.182540283203125,0.5834370851516724,-0.33218061923980713,-0.5716078281402588
1772701668103588400,4.19258837890625,0.5458375215530396,-0.28597158193588257,-0.5555415153503418
1772701668113636600,4.20263671875,0.5105212926864624,-0.22005167603492737,-0.5457450747489929
1772701668123685400,4.212685302734375,0.48257625102996826,-0.14140000939369202,-0.5609642267227173
1772701668133733400,4.2227333984375,0.4736229479312897,-0.07684258371591568,-0.585191011428833
1772701668143781000,4.232781005859375,0.4699786901473999,0.03543549031019211,-0.6253587007522583
1772701668153829000,4.2428291015625,0.4769556224346161,0.11896713078022003,-0.6546534895896912
1772701668163877400,4.25287744140625,0.48053064942359924,0.19312551617622375,-0.6942128539085388
1772701668173925000,4.262925048828125,0.48251551389694214,0.271748423576355,-0.7815589308738708
1772701668183973000,4.27297314453125,0.47410285472869873,0.13745905458927155,-0.8866166472434998
1772701668194021000,4.283021240234375,0.4322587251663208,-0.07105713337659836,-0.8290372490882874
1772701668204069000,4.293069091796875,0.33947792649269104,-0.05646087974309921,-0.6090438961982727
1772701668214117000,4.3031171875,0.26178181171417236,-0.03387035056948662,-0.433285117149353
1772701668224165000,4.3131650390625,0.22932159900665283,-0.14467142522335052,-0.314748615026474
1772701668234213000,4.323213134765625,0.23332247138023376,-0.1994824856519699,-0.2621418535709381
1772701668244261000,4.33326123046875,0.2211073487997055,-0.21568834781646729,-0.2404022216796875
1772701668254309000,4.34330908203125,0.16946811974048615,-0.18639305233955383,-0.2564943730831146
1772701668264357000,4.353357177734375,0.09357123076915741,-0.09623599052429199,-0.32954275608062744
1772701668274405000,4.363405029296875,0.06622695922851562,0.009238772094249725,-0.4431247115135193
1772701668284453000,4.373453125,0.081030935049057,0.09470999985933304,-0.5904590487480164
1772701668294501000,4.383501220703125,0.10106483101844788,0.12682318687438965,-0.7588552236557007
1772701668304549000,4.393549072265625,0.1549523025751114,0.10170665383338928,-0.8660749197006226
1772701668314597000,4.40359716796875,0.25379258394241333,0.053941793739795685,-0.8218493461608887
1772701668324645000,4.41364501953125,0.3526928126811981,0.0076360818929970264,-0.6506022810935974
1772701668334693000,4.423693115234375,0.41084426641464233,-0.027284618467092514,-0.42802751064300537
1772701668344741000,4.4337412109375,0.4249323904514313,-0.04008297249674797,-0.2399396300315857
1772701668354789000,4.4437890625,0.4176904559135437,-0.03181252256035805,-0.14432841539382935
1772701668364837000,4.453837158203125,0.3902263343334198,0.022013423964381218,-0.1314893215894699
1772701668374885000,4.463885009765625,0.3583299219608307,0.10283929854631424,-0.15426521003246307
1772701668384933000,4.47393310546875,0.32762792706489563,0.12818007171154022,-0.17597103118896484
1772701668394981000,4.483981201171875,0.29706257581710815,0.0983811616897583,-0.18620343506336212
1772701668405029000,4.494029052734375,0.26071175932884216,0.06416540592908859,-0.17532308399677277
1772701668415078100,4.504078125,0.22224025428295135,0.07035192847251892,-0.1181064024567604
1772701668425126100,4.514126220703125,0.17745360732078552,0.06165803596377373,-0.07067763060331345
1772701668435174100,4.524174072265625,0.14857642352581024,0.07318127155303955,-0.06465968489646912
1772701668445222100,4.53422216796875,0.15065687894821167,0.09274591505527496,-0.12069925665855408
1772701668455270100,4.544270263671875,0.1365666389465332,0.17596517503261566,-0.18739226460456848
1772701668465318100,4.554318115234375,0.14300855994224548,0.2551145851612091,-0.24165017902851105
1772701668475366100,4.5643662109375,0.15811321139335632,0.2683646082878113,-0.2987470030784607
1772701668485414100,4.5744140625,0.17414569854736328,0.22820015251636505,-0.32539939880371094
1772701668495462100,4.584462158203125,0.17141969501972198,0.1707877218723297,-0.31288281083106995
1772701668505510100,4.59451025390625,0.1414620578289032,0.14196592569351196,-0.29080572724342346
1772701668515558100,4.60455810546875,0.0992826446890831,0.14029985666275024,-0.2691670060157776
1772701668525606100,4.614606201171875,0.043647877871990204,0.17360001802444458,-0.25756096839904785
1772701668535654100,4.624654052734375,-0.0005872269975952804,0.22764195501804352,-0.2538072466850281
1772701668545702100,4.6347021484375,-0.04163852334022522,0.2830580770969391,-0.2385702282190323
1772701668555750100,4.644750244140625,-0.07412189990282059,0.30771520733833313,-0.20427164435386658
1772701668565798100,4.654798095703125,-0.06689275056123734,0.27460360527038574,-0.1564074456691742
1772701668575846100,4.66484619140625,-0.034506313502788544,0.20563864707946777,-0.08286318928003311
1772701668585894100,4.67489404296875,0.0219122227281332,0.11530608683824539,0.015400527976453304
1772701668595942100,4.684942138671875,0.06338589638471603,0.0010610034223645926,0.1250777542591095
1772701668605990100,4.694990234375,0.08510530740022659,-0.12496323883533478,0.2575947940349579
1772701668616038100,4.7050380859375,0.0786825641989708,-0.24721351265907288,0.39007827639579773
1772701668626086100,4.715086181640625,0.05337560549378395,-0.354536771774292,0.5064482688903809
1772701668636134100,4.725134033203125,0.016106264665722847,-0.4292006194591522,0.5857266187667847
1772701668646182100,4.73518212890625,-0.026702716946601868,-0.4750882387161255,0.6456285119056702
1772701668656230100,4.745230224609375,-0.07375384867191315,-0.4734485149383545,0.6980707049369812
1772701668666278100,4.755278076171875,-0.12486736476421356,-0.43636319041252136,0.7351142168045044
1772701668676326100,4.765326171875,-0.16912004351615906,-0.378296434879303,0.7468776702880859
1772701668686374100,4.7753740234375,-0.20331130921840668,-0.29980456829071045,0.7318971157073975
1772701668696423200,4.785423095703125,-0.22189511358737946,-0.2131463587284088,0.687396764755249
1772701668706471200,4.79547119140625,-0.23272645473480225,-0.13374021649360657,0.6247789263725281
1772701668716519200,4.805519287109375,-0.24188187718391418,-0.07259190827608109,0.5598148107528687
1772701668726567000,4.81556689453125,-0.25318220257759094,-0.02930515818297863,0.49724411964416504
1772701668736615200,4.825615234375,-0.26557227969169617,0.0029965888243168592,0.43948495388031006
1772701668746663200,4.8356630859375,-0.2791203260421753,0.04278235137462616,0.40077510476112366
1772701668756711200,4.845711181640625,-0.29799705743789673,0.09174323827028275,0.3716598451137543
1772701668766759200,4.85575927734375,-0.3163315951824188,0.13644066452980042,0.35554423928260803
1772701668776807200,4.86580712890625,-0.3319510519504547,0.16527125239372253,0.35345128178596497
1772701668786855200,4.875855224609375,-0.34263697266578674,0.18355119228363037,0.3633672893047333
1772701668796903200,4.885903076171875,-0.34756141901016235,0.19642357528209686,0.38248318433761597
1772701668806951200,4.895951171875,-0.3382326364517212,0.19747179746627808,0.3947872519493103
1772701668816999200,4.905999267578125,-0.32161423563957214,0.19308237731456757,0.40339645743370056
1772701668827047200,4.916047119140625,-0.3117038309574127,0.199383944272995,0.4144187569618225
1772701668837095000,4.926094970703125,-0.31288307905197144,0.20472091436386108,0.4405941665172577
1772701668847143200,4.93614306640625,-0.3210395276546478,0.19576098024845123,0.46999892592430115
1772701668857191200,4.946191162109375,-0.33184584975242615,0.17126096785068512,0.5038410425186157
1772701668867239200,4.9562392578125,-0.3504546880722046,0.13429655134677887,0.5361270904541016
1772701668877287200,4.966287109375,-0.3775472939014435,0.09654731303453445,0.5611650347709656
1772701668887335200,4.976335205078125,-0.40433868765830994,0.06197229027748108,0.571441650390625
1772701668897383200,4.986383056640625,-0.4295865297317505,0.03982704132795334,0.5693026185035706
1772701668907431200,4.99643115234375,-0.45504793524742126,0.0173861812800169,0.5612726211547852
1772701668917479000,5.00647900390625,-0.47732287645339966,0.011780226603150368,0.5593810081481934
1772701668927527200,5.016527099609375,-0.4982076585292816,0.01062068622559309,0.5613011717796326
1772701668937575200,5.0265751953125,-0.5150883793830872,0.0068144965916872025,0.556266725063324
1772701668947623200,5.036623046875,-0.5265346169471741,0.005904227960854769,0.5417908430099487
1772701668957671200,5.046671142578125,-0.526905357837677,0.0007416903390549123,0.5344175696372986
1772701668967720000,5.056719970703125,-0.5379776954650879,-0.010432933457195759,0.5253897309303284
1772701668977768200,5.066768310546875,-0.5460556149482727,-0.010550911538302898,0.523990273475647
1772701668987816200,5.076816162109375,-0.5538474917411804,0.010026535019278526,0.5237841010093689
1772701668997864200,5.0868642578125,-0.5459757447242737,0.05733386427164078,0.5340002775192261
1772701669007912200,5.096912109375,-0.5359153747558594,0.15218473970890045,0.5696048736572266
1772701669017960200,5.106960205078125,-0.5421809554100037,0.16331462562084198,0.6167601346969604
1772701669028008200,5.11700830078125,-0.5429098606109619,0.1503964215517044,0.6438007950782776
1772701669038056200,5.12705615234375,-0.5471706986427307,0.14325915277004242,0.6741461753845215
1772701669048104000,5.13710400390625,-0.5370914340019226,0.12986958026885986,0.6931046843528748
1772701669058152200,5.147152099609375,-0.5153301954269409,0.11753088980913162,0.709436297416687
1772701669068200200,5.1572001953125,-0.49093377590179443,0.10361800342798233,0.7290526032447815
1772701669078248000,5.167248046875,-0.46210530400276184,0.0825103223323822,0.766148567199707
1772701669088296200,5.177296142578125,-0.4428434669971466,0.054428353905677795,0.8202962279319763
1772701669098344200,5.18734423828125,-0.43593737483024597,0.027664916589856148,0.8847146034240723
1772701669108392200,5.19739208984375,-0.4281465411186218,0.004911401774734259,0.9631039500236511
1772701669118440200,5.207440185546875,-0.44111642241477966,-0.007017163094133139,1.024808406829834
1772701669128488000,5.217488037109375,-0.4701182246208191,0.022346051409840584,1.0711393356323242
1772701669138536200,5.2275361328125,-0.5043803453445435,0.0710534006357193,1.0998698472976685
1772701669148583400,5.23758349609375,-0.5459211468696594,0.11418409645557404,1.1188786029815674
1772701669158631400,5.24763134765625,-0.5863465666770935,0.15912574529647827,1.1252872943878174
1772701669168679400,5.257679443359375,-0.6350472569465637,0.20248626172542572,1.1110748052597046
1772701669178727400,5.2677275390625,-0.6070824861526489,0.16987745463848114,1.0731418132781982
1772701669188775400,5.277775390625,-0.44119390845298767,-0.06467965990304947,0.9960259795188904
1772701669198823400,5.287823486328125,-0.32250240445137024,-0.3741392493247986,0.9189434051513672
1772701669208871400,5.297871337890625,-0.34228622913360596,-0.4528662860393524,0.8553727269172668
1772701669218919400,5.30791943359375,-0.3762098550796509,-0.3713895380496979,0.7860354781150818
1772701669228967400,5.317967529296875,-0.3450782895088196,-0.31727170944213867,0.7216892242431641
1772701669239016400,5.328016357421875,-0.2930004596710205,-0.3189886510372162,0.6316277980804443
1772701669249064400,5.338064453125,-0.2691071033477783,-0.33518466353416443,0.5435868501663208
1772701669259112400,5.348112548828125,-0.31295526027679443,-0.32217830419540405,0.49430611729621887
1772701669269160400,5.358160400390625,-0.3800077736377716,-0.25342506170272827,0.5052796602249146
1772701669279208400,5.36820849609375,-0.3919922709465027,-0.1584162712097168,0.5519387722015381
1772701669289256400,5.37825634765625,-0.3667218089103699,-0.10038439184427261,0.6175055503845215
1772701669299304400,5.388304443359375,-0.3451414108276367,-0.11066792160272598,0.6659578084945679
1772701669309352400,5.3983525390625,-0.3218286335468292,-0.19226185977458954,0.6618128418922424
1772701669319400200,5.408400146484375,-0.287180095911026,-0.3379066586494446,0.6086462736129761
1772701669329448400,5.418448486328125,-0.26033464074134827,-0.4931548535823822,0.5319634675979614
1772701669339496400,5.428496337890625,-0.2642063498497009,-0.656321108341217,0.4603748023509979
1772701669349544400,5.43854443359375,-0.2897585928440094,-0.8795304894447327,0.40363189578056335
1772701669359592400,5.448592529296875,-0.3224334418773651,-1.171042799949646,0.3483281433582306
1772701669369640400,5.458640380859375,-0.34732627868652344,-1.4643521308898926,0.3039915859699249
1772701669379688400,5.4686884765625,-0.370781809091568,-1.729429841041565,0.28456729650497437
1772701669389736400,5.478736328125,-0.38209304213523865,-1.9595352411270142,0.2712722420692444
1772701669399784400,5.488784423828125,-0.3606383502483368,-2.152475357055664,0.250186949968338
1772701669409832400,5.49883251953125,-0.28246763348579407,-2.2944087982177734,0.1896335780620575
1772701669419880400,5.50888037109375,-0.15246038138866425,-2.3065574169158936,0.12169767171144485
1772701669429928400,5.518928466796875,0.03533748537302017,-2.162029504776001,0.049787528812885284
1772701669439976400,5.5289765625,0.22279100120067596,-1.7789734601974487,-0.009160474874079227
1772701669450024400,5.5390244140625,0.2918531596660614,-1.159834384918213,-0.0762108787894249
1772701669460072400,5.549072509765625,0.2479834407567978,-0.508893609046936,-0.17138560116291046
1772701669470120400,5.559120361328125,0.17205138504505157,0.02117399498820305,-0.3014570474624634
1772701669480168400,5.56916845703125,0.12650494277477264,0.41562169790267944,-0.44956421852111816
1772701669490217500,5.579217529296875,0.14958283305168152,0.7327131032943726,-0.5933741331100464
1772701669500265500,5.589265380859375,0.22188818454742432,0.9648933410644531,-0.7309530377388
1772701669510313500,5.5993134765625,0.2794657349586487,1.1468039751052856,-0.8654570579528809
1772701669520361500,5.609361572265625,0.29165127873420715,1.2699084281921387,-0.9798325896263123
1772701669530409200,5.6194091796875,0.28625598549842834,1.3435591459274292,-1.0591192245483398
1772701669540457500,5.62945751953125,0.31804561614990234,1.339528203010559,-1.0478185415267944
1772701669550505500,5.63950537109375,0.39368578791618347,1.2472842931747437,-0.9456373453140259
1772701669560553200,5.64955322265625,0.48095783591270447,1.065114974975586,-0.7619695067405701
1772701669570601500,5.6596015625,0.571130096912384,0.8294777274131775,-0.5656447410583496
1772701669580649500,5.6696494140625,0.6636688113212585,0.5900185704231262,-0.42622295022010803
1772701669590697500,5.679697509765625,0.7575169801712036,0.40357542037963867,-0.3792557120323181
1772701669600745500,5.689745361328125,0.85595703125,0.2601301074028015,-0.43050825595855713
1772701669610793500,5.69979345703125,0.9650909304618835,0.16009379923343658,-0.5752193331718445
1772701669620841500,5.709841552734375,1.082808494567871,0.05998184531927109,-0.7810734510421753
1772701669630889500,5.719889404296875,1.1809399127960205,-0.04029708728194237,-0.9950498938560486
1772701669640937200,5.729937255859375,1.2231214046478271,-0.10185205936431885,-1.1824523210525513
1772701669650985500,5.7399853515625,1.2360689640045166,-0.11676736176013947,-1.3335586786270142
1772701669661033500,5.750033447265625,1.260704517364502,-0.10080410540103912,-1.4602594375610352
1772701669671081500,5.76008154296875,1.2879254817962646,-0.047813862562179565,-1.557863712310791
1772701669681129500,5.77012939453125,1.303972840309143,0.019475696608424187,-1.6383357048034668
1772701669691177500,5.780177490234375,1.2982470989227295,0.08968620747327805,-1.6983164548873901
1772701669701225500,5.7902255859375,1.2499008178710938,0.16869235038757324,-1.7377980947494507
1772701669711273500,5.8002734375,1.1707713603973389,0.24057772755622864,-1.7451385259628296
1772701669721321500,5.810321533203125,1.0985065698623657,0.2976228892803192,-1.7523757219314575
1772701669731370500,5.82037060546875,1.0222676992416382,0.33588719367980957,-1.7583036422729492
1772701669741418200,5.830418212890625,0.9455601572990417,0.34868234395980835,-1.7762477397918701
1772701669751466500,5.840466552734375,0.8887077569961548,0.3209814727306366,-1.788428544998169
1772701669761514500,5.850514404296875,0.8494234681129456,0.27788594365119934,-1.8111833333969116
1772701669771562200,5.860562255859375,0.8243191838264465,0.17567701637744904,-1.8119069337844849
1772701669781610500,5.870610595703125,0.8033846020698547,0.026144519448280334,-1.7705669403076172
1772701669791658500,5.880658447265625,0.8034221529960632,-0.16136519610881805,-1.7036722898483276
1772701669801706200,5.890706298828125,0.8294726610183716,-0.3600516617298126,-1.6158671379089355
1772701669811754500,5.90075439453125,0.869928777217865,-0.5298779606819153,-1.5427422523498535
1772701669821802500,5.910802490234375,0.9314171671867371,-0.6834014654159546,-1.481803297996521
1772701669831850500,5.9208505859375,0.9988870024681091,-0.8111138939857483,-1.45048189163208
1772701669841898500,5.9308984375,1.0713425874710083,-0.9100756645202637,-1.442345142364502
1772701669851946200,5.9409462890625,1.1212995052337646,-0.9783340692520142,-1.4471582174301147
1772701669861994500,5.950994384765625,1.1629071235656738,-1.0247803926467896,-1.4553780555725098
1772701669872042500,5.96104248046875,1.1892156600952148,-1.0312825441360474,-1.461086630821228
1772701669882090200,5.97109033203125,1.2202441692352295,-1.0102930068969727,-1.4465774297714233
1772701669892138500,5.981138427734375,1.230592966079712,-0.998218834400177,-1.4333926439285278
1772701669902186500,5.9911865234375,1.2332302331924438,-0.9943588376045227,-1.422908067703247
1772701669912234500,6.001234375,1.2298963069915771,-0.9819167852401733,-1.4182802438735962
1772701669922282500,6.011282470703125,1.2253752946853638,-0.9436272382736206,-1.4241101741790771
1772701669932330500,6.02133056640625,1.2137364149093628,-0.88697749376297,-1.4459800720214844
1772701669942378500,6.03137841796875,1.1913586854934692,-0.8112505078315735,-1.4848246574401855
1772701669952426500,6.041426513671875,1.1782636642456055,-0.7216529846191406,-1.5301092863082886
1772701669962474200,6.05147412109375,1.1716960668563843,-0.614093542098999,-1.5640367269515991
1772701669972523500,6.0615234375,1.172614574432373,-0.5035121440887451,-1.5894259214401245
1772701669982571300,6.0715712890625,1.1757230758666992,-0.42099863290786743,-1.5873537063598633
1772701669992619500,6.08161962890625,1.176060438156128,-0.3839777708053589,-1.5603766441345215
1772701670002667500,6.09166748046875,1.1704758405685425,-0.3603568375110626,-1.5272847414016724
1772701670012715300,6.10171533203125,1.1706702709197998,-0.3521774709224701,-1.5015981197357178
1772701670022763500,6.111763427734375,1.1661689281463623,-0.3708036243915558,-1.4919028282165527
1772701670032811500,6.1218115234375,1.159754991531372,-0.4254301190376282,-1.480237603187561
1772701670042859300,6.131859375,1.1563549041748047,-0.5076845288276672,-1.437999963760376
1772701670052907500,6.141907470703125,1.1601624488830566,-0.5993771553039551,-1.36397123336792
1772701670062955300,6.151955322265625,1.1652991771697998,-0.7029536366462708,-1.2605724334716797
1772701670073003500,6.16200341796875,1.1693016290664673,-0.7916757464408875,-1.1680939197540283
1772701670083051500,6.172051513671875,1.1737275123596191,-0.8528560400009155,-1.0871009826660156
1772701670093099300,6.182099365234375,1.1802682876586914,-0.8852914571762085,-1.0260432958602905
1772701670103147500,6.1921474609375,1.1822261810302734,-0.8983973860740662,-0.9833669066429138
1772701670113195500,6.202195556640625,1.1677913665771484,-0.9020214676856995,-0.9553845524787903
1772701670123243300,6.2122431640625,1.149660587310791,-0.8754382729530334,-0.9407179951667786
1772701670133291500,6.22229150390625,1.128239631652832,-0.834739625453949,-0.9223387241363525
1772701670143339500,6.232339599609375,1.1119296550750732,-0.7816020846366882,-0.924324631690979
1772701670153388500,6.242388427734375,1.1132553815841675,-0.7227709889411926,-0.946060299873352
1772701670163436300,6.252436279296875,1.132267713546753,-0.6957787871360779,-0.9904253482818604
1772701670173484300,6.262484375,1.1488384008407593,-0.883682131767273,-1.0432946681976318
1772701670183532500,6.272532470703125,1.1016874313354492,-0.9882231950759888,-0.9679951071739197
1772701670193580300,6.282580322265625,1.0464260578155518,-0.9826585054397583,-0.7994700074195862
1772701670203629600,6.292629638671875,1.0439833402633667,-0.9995330572128296,-0.6261834502220154
1772701670213677300,6.30267724609375,1.0637906789779663,-1.01460599899292,-0.4953325092792511
1772701670223725300,6.312725341796875,1.038130760192871,-0.9960869550704956,-0.43937498331069946
1772701670233773600,6.322773681640625,0.9747449159622192,-0.8904367089271545,-0.43942156434059143
1772701670243821300,6.3328212890625,0.889350950717926,-0.655498743057251,-0.4687427282333374
1772701670253869300,6.342869384765625,0.8012780547142029,-0.39933833479881287,-0.5473275184631348
1772701670263917600,6.35291748046875,0.7496851682662964,-0.23596778512001038,-0.714067280292511
1772701670273965300,6.36296533203125,0.7365792393684387,-0.17723816633224487,-0.913640022277832
1772701670284013300,6.373013427734375,0.7605101466178894,-0.1536279022693634,-1.1052217483520508
1772701670294061300,6.383061279296875,0.8233290314674377,-0.16050311923027039,-1.2665666341781616
1772701670304109300,6.393109375,0.9216233491897583,-0.13351304829120636,-1.3578888177871704
1772701670314157600,6.403157470703125,1.0492236614227295,-0.11111640185117722,-1.382129192352295
1772701670324205300,6.413205322265625,1.1942585706710815,-0.09879209101200104,-1.3475472927093506
1772701670334253300,6.42325341796875,1.327211618423462,-0.19634048640727997,-1.2765870094299316
1772701670344301600,6.433301513671875,1.3871697187423706,-0.3417820930480957,-1.1799696683883667
1772701670354349300,6.443349365234375,1.3951027393341064,-0.47581687569618225,-1.0557819604873657
1772701670364397300,6.453397216796875,1.35955011844635,-0.614689826965332,-0.9390668272972107
1772701670374445300,6.4634453125,1.2766064405441284,-0.7705428004264832,-0.8442678451538086
1772701670384493300,6.473493408203125,1.1797590255737305,-0.8925784230232239,-0.7827634811401367
1772701670394541600,6.48354150390625,1.0889002084732056,-0.9307974576950073,-0.7541302442550659
1772701670404589300,6.49358935546875,1.0203145742416382,-0.8969358801841736,-0.7771700620651245
1772701670414637300,6.50363720703125,0.9887185096740723,-0.7498025894165039,-0.8497049808502197
1772701670424685600,6.513685546875,1.022154450416565,-0.4760504364967346,-0.9623354077339172
1772701670434734300,6.523734375,1.0995837450027466,-0.2246786504983902,-1.0882333517074585
1772701670444782600,6.533782470703125,1.1696758270263672,-0.025839585810899734,-1.217049479484558
1772701670454830300,6.543830322265625,1.2315375804901123,0.11654072999954224,-1.3395588397979736
1772701670464878300,6.55387841796875,1.2754278182983398,0.22431325912475586,-1.4599003791809082
1772701670474926600,6.563926513671875,1.299570918083191,0.350650429725647,-1.5906331539154053
1772701670484974300,6.573974365234375,1.3209220170974731,0.5436252355575562,-1.738654613494873
1772701670495022300,6.584022216796875,1.3346713781356812,0.752932608127594,-1.907817006111145
1772701670505070300,6.5940703125,1.3314635753631592,0.8854286074638367,-2.0795769691467285
1772701670515118300,6.604118408203125,1.3246062994003296,0.9128149747848511,-2.2251861095428467
1772701670525166300,6.614166259765625,1.3026785850524902,0.9098601937294006,-2.3137450218200684
1772701670535214300,6.62421435546875,1.2554402351379395,0.8737716674804688,-2.3405649662017822
1772701670545262300,6.634262451171875,1.2135918140411377,0.7449769377708435,-2.319950819015503
1772701670555310600,6.644310546875,1.1686248779296875,0.5540951490402222,-2.287480115890503
1772701670565358300,6.6543583984375,1.1151111125946045,0.3563506603240967,-2.2425918579101562
1772701670575406300,6.66440625,1.065671682357788,0.2077108472585678,-2.204148054122925
1772701670585454300,6.674454345703125,1.0420185327529907,0.04008509963750839,-2.146575689315796
1772701670595502300,6.68450244140625,1.0165586471557617,-0.09385938197374344,-2.0800108909606934
1772701670605550300,6.69455029296875,0.9790134429931641,-0.2398967444896698,-2.025148868560791
1772701670615598300,6.704598388671875,0.9283201694488525,-0.40177273750305176,-1.9503414630889893
1772701670625646300,6.714646240234375,0.8586769104003906,-0.530947208404541,-1.8385752439498901
1772701670635694600,6.724694580078125,0.7785519957542419,-0.6385168433189392,-1.7024637460708618
1772701670645742300,6.734742431640625,0.7013434767723083,-0.7751410007476807,-1.5424906015396118
1772701670655791400,6.744791259765625,0.6464157700538635,-0.9701706767082214,-1.3780583143234253
1772701670665839400,6.75483935546875,0.6291755437850952,-1.1378052234649658,-1.2282594442367554
1772701670675887400,6.764887451171875,0.6409932971000671,-1.2148350477218628,-1.1019576787948608
1772701670685935600,6.774935546875,0.6674163937568665,-1.2113393545150757,-1.026618242263794
1772701670695983400,6.7849833984375,0.6901273131370544,-1.1594644784927368,-1.0012513399124146
1772701670706031400,6.79503125,0.6968472599983215,-1.0819510221481323,-0.9968022704124451
1772701670716079400,6.805079345703125,0.6936852931976318,-1.0008529424667358,-1.0015828609466553
1772701670726127400,6.81512744140625,0.6762633919715881,-0.9300365447998047,-0.9884915947914124
1772701670736175400,6.82517529296875,0.6384742259979248,-0.8609067797660828,-0.9533464312553406
1772701670746223400,6.835223388671875,0.5959920287132263,-0.7998988032341003,-0.9063514471054077
1772701670756271400,6.845271240234375,0.5643177032470703,-0.7334367036819458,-0.8669276237487793
1772701670766319400,6.8553193359375,0.5358418822288513,-0.6315398812294006,-0.8526275157928467
1772701670776367400,6.865367431640625,0.4997040927410126,-0.5484727025032043,-0.854316234588623
1772701670786415400,6.875415283203125,0.4493999183177948,-0.5103670954704285,-0.863653302192688
1772701670796463600,6.885463623046875,0.3904026448726654,-0.4515424072742462,-0.8693713545799255
1772701670806511400,6.895511474609375,0.3278348743915558,-0.410940945148468,-0.8721546530723572
1772701670816559400,6.905559326171875,0.26615577936172485,-0.3954258859157562,-0.8694823980331421
1772701670826607400,6.915607421875,0.20717528462409973,-0.3607320785522461,-0.8506472110748291
1772701670836655400,6.9256552734375,0.15227022767066956,-0.29305344820022583,-0.8272801041603088
1772701670846703400,6.935703369140625,0.12687912583351135,-0.20573531091213226,-0.8120161890983582
1772701670856751400,6.94575146484375,0.11828163266181946,-0.10756933689117432,-0.8126031756401062
1772701670866799400,6.95579931640625,0.13022378087043762,-0.010880877263844013,-0.822488009929657
1772701670876848400,6.965848388671875,0.15075115859508514,0.07446438074111938,-0.8447613716125488
1772701670886896400,6.975896484375,0.17757585644721985,0.11655297875404358,-0.8682288527488708
1772701670896944400,6.9859443359375,0.2020638883113861,0.12675288319587708,-0.8743317723274231
1772701670906992400,6.995992431640625,0.22540196776390076,0.12471157312393188,-0.8634194731712341
1772701670917040400,7.006040283203125,0.24166801571846008,0.11022184789180756,-0.8345675468444824
1772701670927088400,7.01608837890625,0.2522050738334656,0.09697981178760529,-0.7878860831260681
1772701670937136400,7.026136474609375,0.2585143744945526,0.08786807209253311,-0.7214045524597168
1772701670947184400,7.036184326171875,0.2594888210296631,0.06085589528083801,-0.6411770582199097
1772701670957232400,7.046232421875,0.25596678256988525,0.014644988812506199,-0.5626463294029236
1772701670967280400,7.0562802734375,0.24095934629440308,-0.04831453412771225,-0.4850974380970001
1772701670977328400,7.066328369140625,0.21064884960651398,-0.13522839546203613,-0.3973867893218994
1772701670987376400,7.07637646484375,0.17321732640266418,-0.20822323858737946,-0.2854442596435547
1772701670997424400,7.08642431640625,0.13708621263504028,-0.2383427917957306,-0.1578674018383026
1772701671007472400,7.096472412109375,0.19602170586585999,-0.3006344139575958,-0.05849846452474594
1772701671017520400,7.106520263671875,0.34001830220222473,-0.456488698720932,-0.005957757588475943
1772701671027568400,7.116568359375,0.37566229701042175,-0.5367710590362549,0.05491571128368378
1772701671037616400,7.126616455078125,0.28928694128990173,-0.5029201507568359,0.1262921541929245
1772701671047664400,7.136664306640625,0.22892159223556519,-0.46648433804512024,0.15138180553913116
1772701671057712400,7.14671240234375,0.23880085349082947,-0.5105615258216858,0.09053362905979156
1772701671067760400,7.156760498046875,0.23067821562290192,-0.5891010761260986,-0.025718679651618004
1772701671077808400,7.166808349609375,0.13894616067409515,-0.6458900570869446,-0.16873468458652496
1772701671087857400,7.176857421875,-0.006042712368071079,-0.6199578046798706,-0.29044967889785767
1772701671097905400,7.186905517578125,-0.11886540055274963,-0.5665230751037598,-0.37362366914749146
1772701671107953400,7.196953369140625,-0.158662348985672,-0.5801637768745422,-0.41653144359588623
1772701671118001400,7.20700146484375,-0.1795431226491928,-0.5576193332672119,-0.4446339011192322
1772701671128049400,7.21704931640625,-0.1898210644721985,-0.4357791841030121,-0.4810049831867218
1772701671138097400,7.227097412109375,-0.1946112960577011,-0.24904870986938477,-0.522415816783905
1772701671148145000,7.237144775390625,-0.16658498346805573,-0.017289241775870323,-0.5482172966003418
1772701671158193000,7.24719287109375,-0.07554349303245544,0.19097235798835754,-0.5640686750411987
1772701671168241000,7.257240966796875,0.055034756660461426,0.3481595814228058,-0.5705298185348511
1772701671178289000,7.267288818359375,0.18130560219287872,0.3976259231567383,-0.58616042137146
1772701671188337000,7.2773369140625,0.2579740285873413,0.3184911608695984,-0.6618320345878601
1772701671198385000,7.287385009765625,0.28091663122177124,0.15849669277668,-0.8190343976020813
1772701671208433000,7.297432861328125,0.27636662125587463,-0.06419549882411957,-0.9831541180610657
1772701671218481000,7.30748095703125,0.2822228968143463,-0.2631365656852722,-1.054639458656311
1772701671228529000,7.31752880859375,0.28512999415397644,-0.4796965718269348,-1.049775242805481
1772701671238577000,7.327576904296875,0.31366416811943054,-0.7101185917854309,-1.006077766418457
1772701671248625000,7.337625,0.36646828055381775,-0.9407661557197571,-0.9492507576942444
1772701671258673000,7.3476728515625,0.4443918466567993,-1.123970627784729,-0.8854648470878601
1772701671268721000,7.357720947265625,0.5039422512054443,-1.251579999923706,-0.8063572645187378
1772701671278769000,7.367768798828125,0.5392578840255737,-1.3566163778305054,-0.7044606804847717
1772701671288817000,7.37781689453125,0.5672362446784973,-1.4548263549804688,-0.5908635854721069
1772701671298865000,7.387864990234375,0.5767576098442078,-1.4983378648757935,-0.48531875014305115
1772701671308914000,7.397913818359375,0.5718318223953247,-1.456531047821045,-0.40352508425712585
1772701671318962000,7.4079619140625,0.5805675387382507,-1.3092478513717651,-0.3655247092247009
1772701671329009700,7.418009765625,0.6093195080757141,-1.1026064157485962,-0.37566816806793213
1772701671339058000,7.428057861328125,0.648769199848175,-0.8616934418678284,-0.45026063919067383
1772701671349106000,7.43810595703125,0.6753270626068115,-0.6167864799499512,-0.5742539763450623
1772701671359154000,7.44815380859375,0.6666629910469055,-0.4205480217933655,-0.7003961801528931
1772701671369202000,7.458201904296875,0.6393977999687195,-0.2612539827823639,-0.7806010246276855
1772701671379250000,7.46825,0.6000413298606873,-0.12961791455745697,-0.8055212497711182
1772701671389298000,7.4782978515625,0.576219379901886,-0.0065436530858278275,-0.796116828918457
1772701671399346000,7.488345947265625,0.5708123445510864,0.09467270970344543,-0.7829043865203857
1772701671409393700,7.4983935546875,0.5760105848312378,0.12326361238956451,-0.7805501222610474
1772701671419442000,7.50844189453125,0.5743035078048706,0.10709050297737122,-0.7853872179985046
1772701671429490000,7.518489990234375,0.5596555471420288,0.056474994868040085,-0.7735881209373474
1772701671439538000,7.528537841796875,0.5318172574043274,-0.010581538081169128,-0.731627345085144
1772701671449586000,7.5385859375,0.49048662185668945,-0.09860406816005707,-0.6637066006660461
1772701671459634000,7.548634033203125,0.45075759291648865,-0.19654181599617004,-0.5939120650291443
1772701671469682000,7.558681884765625,0.4216577708721161,-0.2980806827545166,-0.5493331551551819
1772701671479730000,7.56872998046875,0.4132373631000519,-0.3843490183353424,-0.541398823261261
1772701671489778000,7.57877783203125,0.4231797456741333,-0.43142783641815186,-0.5522144436836243
1772701671499826000,7.588825927734375,0.4364452362060547,-0.4435867667198181,-0.578305721282959
1772701671509875000,7.598875,0.44536256790161133,-0.4530726671218872,-0.6112859845161438
1772701671519923000,7.6089228515625,0.4478960335254669,-0.4374487102031708,-0.6284287571907043
1772701671529971000,7.618970947265625,0.4410647451877594,-0.3873858153820038,-0.6181867718696594
1772701671540018700,7.629018798828125,0.45135146379470825,-0.2843017578125,-0.08614127337932587
1772701671550067000,7.63906689453125,0.4344446659088135,-0.2074650377035141,0.022876819595694542
1772701671560115000,7.649114990234375,0.4043203294277191,-0.0840805247426033,-0.10969986766576767
1772701671570162700,7.65916259765625,0.3811872899532318,0.10186244547367096,-0.3786269426345825
1772701671580211000,7.6692109375,0.39071476459503174,0.18117964267730713,-0.6578750610351562
1772701671590259000,7.679259033203125,0.4035693109035492,0.19241870939731598,-0.8557266592979431
1772701671600307000,7.689306884765625,0.3774165213108063,0.15616297721862793,-1.0167605876922607
1772701671610355000,7.69935498046875,0.34431371092796326,0.07494481652975082,-1.0800822973251343
1772701671620402700,7.709402587890625,0.32829612493515015,0.010946923866868019,-0.976113498210907
1772701671630451000,7.719450927734375,0.312205046415329,-0.07887803763151169,-0.7802848815917969
1772701671640499000,7.7294990234375,0.29903969168663025,-0.14602431654930115,-0.5947299599647522
