time,seconds_elapsed,z,y,x
1772701663946216200,0.03521630859375,-0.084499791264534,0.07057472318410873,-0.06067598983645439
1772701663956264000,0.045263916015625,-0.08196979016065598,0.04869312793016434,-0.07329058647155762
1772701663966312200,0.055312255859375,-0.08079349249601364,0.022106288000941277,-0.07901037484407425
1772701663976360200,0.065360107421875,-0.06876292824745178,-0.0029599156696349382,-0.07540259510278702
1772701663986408000,0.075407958984375,-0.044288519769907,-0.03143688663840294,-0.07720132917165756
1772701663996456200,0.085456298828125,-0.029882682487368584,-0.034002840518951416,-0.07553738355636597
1772701664006504000,0.09550390625,-0.018858227878808975,-0.030080066993832588,-0.07721573114395142
1772701664016552000,0.105552001953125,-0.01410581637173891,-0.011366034857928753,-0.08080434054136276
1772701664026600200,0.11560009765625,-0.027692429721355438,0.02504810318350792,-0.08649421483278275
1772701664036648000,0.12564794921875,-0.047948967665433884,0.04918939247727394,-0.09554842859506607
1772701664046696000,0.135696044921875,-0.07011087983846664,0.033172477036714554,-0.11246825009584427
1772701664056744200,0.145744140625,-0.0651499405503273,0.013336720876395702,-0.11475830525159836
1772701664066793000,0.15579296875,-0.06641510874032974,-0.004202633164823055,-0.10673592984676361
1772701664076841200,0.16584130859375,-0.05815531313419342,-0.02093394286930561,-0.09300120919942856
1772701664086889000,0.175888916015625,-0.030206652358174324,-0.03097373992204666,-0.08380313217639923
1772701664096937000,0.18593701171875,-0.015187488868832588,-0.03837812691926956,-0.0816933736205101
1772701664106985200,0.195985107421875,0.0023972606286406517,-0.0305077712982893,-0.07700268179178238
1772701664117033000,0.206032958984375,0.02226337604224682,-0.02059148997068405,-0.07526097446680069
1772701664127081200,0.216081298828125,0.013179076835513115,-0.0172208771109581,-0.07510485500097275
1772701664137129000,0.22612890625,-0.001865652622655034,0.0016348366625607014,-0.06904482841491699
1772701664147176700,0.2361767578125,-0.010031462647020817,0.01370046753436327,-0.04527390003204346
1772701664157225000,0.246224853515625,-0.02169664204120636,0.019828934222459793,-0.01567899063229561
1772701664167272700,0.256272705078125,-0.02225186675786972,-0.004539733752608299,0.01731334999203682
1772701664177320700,0.26632080078125,0.0038678841665387154,-0.005107785575091839,0.053214892745018005
1772701664187369000,0.276368896484375,0.04345930367708206,0.0036605531349778175,0.08246274292469025
1772701664197416700,0.286416748046875,0.07692351937294006,0.0011944659054279327,0.10524635016918182
1772701664207464700,0.296464599609375,0.09278922528028488,-0.003077243221923709,0.10168968886137009
1772701664217513000,0.306512939453125,0.08317787945270538,0.02524254471063614,0.05427370220422745
1772701664227560700,0.316560791015625,0.05639978498220444,0.08494357764720917,-0.029268918558955193
1772701664237609000,0.32660888671875,0.011399553157389164,0.1527223438024521,-0.11020398139953613
1772701664247656700,0.33665673828125,-0.031742990016937256,0.1704353243112564,-0.1472577005624771
1772701664257704700,0.34670458984375,-0.05752558261156082,0.15176789462566376,-0.14598524570465088
1772701664267753000,0.3567529296875,-0.08320292085409164,0.124373659491539,-0.12553629279136658
1772701664277800700,0.36680078125,-0.092039555311203,0.10553179681301117,-0.09760132431983948
1772701664287848700,0.3768486328125,-0.07378645986318588,0.09829174727201462,-0.07361327111721039
1772701664297897000,0.38689697265625,-0.038579732179641724,0.08471815288066864,-0.04012588784098625
1772701664307944700,0.39694482421875,0.014949406497180462,0.033788423985242844,-0.009212274104356766
1772701664317992700,0.40699267578125,0.05572026968002319,0.01341896690428257,0.02825786918401718
1772701664328041000,0.417041015625,0.08050571382045746,-0.012503858655691147,0.07872854173183441
1772701664338088700,0.427088623046875,0.12148616462945938,-0.0570572130382061,0.1329401135444641
1772701664348137000,0.437136962890625,0.15264588594436646,-0.08790821582078934,0.17775210738182068
1772701664358184700,0.447184814453125,0.1562235802412033,-0.0771743431687355,0.18765240907669067
1772701664368232700,0.457232666015625,0.1531614363193512,-0.06201210618019104,0.1623484194278717
1772701664378281000,0.467281005859375,0.1414659023284912,-0.01579054817557335,0.11911625415086746
1772701664388328700,0.47732861328125,0.1309797316789627,0.026347637176513672,0.060136325657367706
1772701664398376700,0.487376708984375,0.11598668247461319,0.08927653729915619,0.010729363188147545
1772701664408425000,0.497425048828125,0.10087142139673233,0.138945072889328,-0.014291796833276749
1772701664418472700,0.50747265625,0.07975121587514877,0.15146540105342865,-0.038891684263944626
1772701664428521000,0.51752099609375,0.041495438665151596,0.1389971673488617,-0.06621523946523666
1772701664438568700,0.527568603515625,-0.0014413765165954828,0.11842131614685059,-0.08659747987985611
1772701664448616700,0.53761669921875,-0.03287976235151291,0.09840425848960876,-0.0966828465461731
1772701664458665700,0.547665771484375,-0.06914935261011124,0.10006687045097351,-0.10336631536483765
1772701664468713700,0.557713623046875,-0.10210942476987839,0.10998699814081192,-0.11405618488788605
1772701664478762000,0.567761962890625,-0.1327376365661621,0.09626772254705429,-0.12814217805862427
1772701664488809700,0.577809814453125,-0.1714136302471161,0.061513401567935944,-0.15771819651126862
1772701664498857700,0.587857666015625,-0.22328561544418335,0.04146486520767212,-0.19755162298679352
1772701664508906000,0.597906005859375,-0.26643767952919006,0.03343833610415459,-0.24886371195316315
1772701664518953700,0.60795361328125,-0.2851511538028717,0.03900327906012535,-0.32139649987220764
1772701664529001700,0.618001708984375,-0.27581948041915894,0.08821825683116913,-0.4227038025856018
1772701664539050000,0.628050048828125,-0.22913984954357147,0.19013184309005737,-0.5450363755226135
1772701664549097700,0.63809765625,-0.15956327319145203,0.3343353271484375,-0.6712023019790649
1772701664559145700,0.648145751953125,-0.06534437835216522,0.45943358540534973,-0.7559230327606201
1772701664569193700,0.65819384765625,0.08556121587753296,0.42769545316696167,-0.7944778800010681
1772701664579241700,0.66824169921875,0.26607346534729004,0.30132633447647095,-0.7788094282150269
1772701664589290000,0.6782900390625,0.4070994257926941,0.1600867509841919,-0.6414220929145813
1772701664599337700,0.688337646484375,0.4998496174812317,-0.01729843020439148,-0.41157159209251404
1772701664609385700,0.6983857421875,0.5276795029640198,-0.20387810468673706,-0.17767542600631714
1772701664619434000,0.70843408203125,0.48316341638565063,-0.33440470695495605,0.0555461160838604
1772701664629481700,0.718481689453125,0.38576921820640564,-0.4014950096607208,0.25502315163612366
1772701664639529700,0.72852978515625,0.27406081557273865,-0.3835919201374054,0.38740354776382446
1772701664649578000,0.738577880859375,0.16967150568962097,-0.3133341073989868,0.46421054005622864
1772701664659625700,0.748625732421875,0.12659195065498352,-0.2441321164369583,0.5149608254432678
1772701664669674000,0.758674072265625,0.09634779393672943,-0.18687433004379272,0.5541139841079712
1772701664679721700,0.7687216796875,0.06891883164644241,-0.1465815007686615,0.5904858708381653
1772701664689769700,0.778769775390625,0.044494688510894775,-0.1286609172821045,0.6310349702835083
1772701664699818000,0.78881787109375,0.03255201131105423,-0.12406030297279358,0.6651290059089661
1772701664709865700,0.79886572265625,0.02530309185385704,-0.12992221117019653,0.691631555557251
1772701664719913700,0.808913818359375,0.01124559622257948,-0.10087084770202637,0.699479341506958
1772701664729962000,0.8189619140625,-0.010436360724270344,-0.03426416218280792,0.6942945718765259
1772701664740009700,0.829009765625,-0.0409439355134964,0.06460489332675934,0.6714502573013306
1772701664750057700,0.8390576171875,-0.07349484413862228,0.17298942804336548,0.633392333984375
1772701664760105700,0.849105712890625,-0.1058727577328682,0.2553519308567047,0.5932632684707642
1772701664770153700,0.85915380859375,-0.12651564180850983,0.30389082431793213,0.5526139736175537
1772701664780202000,0.869201904296875,-0.1347176432609558,0.3207414448261261,0.5152397155761719
1772701664790249700,0.879249755859375,-0.13520845770835876,0.31864506006240845,0.47836703062057495
1772701664800297700,0.889297607421875,-0.13993370532989502,0.3243388831615448,0.4308066964149475
1772701664810346000,0.899345947265625,-0.15395903587341309,0.35640662908554077,0.38727855682373047
1772701664820394800,0.909394775390625,-0.1723574846982956,0.39146313071250916,0.36166292428970337
1772701664830443000,0.919443115234375,-0.20073553919792175,0.40739914774894714,0.3646436631679535
1772701664840490800,0.92949072265625,-0.2345835268497467,0.40723830461502075,0.3990871012210846
1772701664850538800,0.939538818359375,-0.2856946289539337,0.37033727765083313,0.4408870339393616
1772701664860587000,0.9495869140625,-0.33070018887519836,0.3172447681427002,0.4797830283641815
1772701664870634800,0.959634765625,-0.3750341534614563,0.2697739601135254,0.5003896355628967
1772701664880682800,0.969682861328125,-0.40827038884162903,0.24219317734241486,0.4926861822605133
1772701664890730800,0.979730712890625,-0.42615535855293274,0.22059212625026703,0.47197964787483215
1772701664900778800,0.98977880859375,-0.4375818967819214,0.19175514578819275,0.4377463161945343
1772701664910826800,0.99982666015625,-0.4438643157482147,0.1409553438425064,0.40807628631591797
1772701664920874800,1.009874755859375,-0.4608627259731293,0.10476885735988617,0.40229350328445435
1772701664930922800,1.0199228515625,-0.4729820191860199,0.08710744976997375,0.4100925028324127
1772701664940971000,1.029970947265625,-0.48412415385246277,0.06144416332244873,0.41762205958366394
1772701664951018800,1.040018798828125,-0.49248555302619934,0.013909639790654182,0.42833182215690613
1772701664961066800,1.050066650390625,-0.49820947647094727,-0.034757763147354126,0.4529394507408142
1772701664971114800,1.06011474609375,-0.507992148399353,-0.06416796892881393,0.4881729781627655
1772701664981162800,1.070162841796875,-0.5115370750427246,-0.07144106179475784,0.5067112445831299
1772701664991210800,1.080210693359375,-0.519554853439331,-0.035752248018980026,0.5392149090766907
1772701665001258800,1.0902587890625,-0.5314136743545532,0.01843695528805256,0.5917569398880005
1772701665011306800,1.100306640625,-0.5454793572425842,0.10046829283237457,0.6584859490394592
1772701665021355000,1.11035498046875,-0.5486394166946411,0.14032861590385437,0.7139348387718201
1772701665031402800,1.12040283203125,-0.556652843952179,0.14933907985687256,0.7486364841461182
1772701665041450800,1.13045068359375,-0.5859308242797852,0.14554540812969208,0.7627171277999878
1772701665051499000,1.1404990234375,-0.6252527236938477,0.16972732543945312,0.7855517864227295
1772701665061546800,1.150546630859375,-0.6615867614746094,0.21121937036514282,0.8106539249420166
1772701665071594800,1.1605947265625,-0.6925125122070312,0.26302850246429443,0.8321903944015503
1772701665081642800,1.170642822265625,-0.7071647047996521,0.28869444131851196,0.8615447878837585
1772701665091690800,1.180690673828125,-0.7312793135643005,0.3083043694496155,0.8970937728881836
1772701665101738800,1.19073876953125,-0.7668559551239014,0.3212830126285553,0.9629087448120117
1772701665111786800,1.200786865234375,-0.758837103843689,0.2522566318511963,1.0284615755081177
1772701665121834800,1.210834716796875,-0.628668487071991,0.07319501042366028,1.0719178915023804
1772701665131883000,1.220883056640625,-0.5059372782707214,-0.017417095601558685,1.1185834407806396
1772701665141930800,1.2309306640625,-0.5182759761810303,-0.06005457043647766,1.1330022811889648
1772701665151978800,1.240978759765625,-0.5566049218177795,-0.1513195037841797,1.0876786708831787
1772701665162027000,1.251027099609375,-0.5558698773384094,-0.24605239927768707,1.040735125541687
1772701665172075800,1.26107568359375,-0.545789361000061,-0.3363007605075836,0.9959296584129333
1772701665182123800,1.271123779296875,-0.5617592930793762,-0.3736710250377655,0.9429140686988831
1772701665192171800,1.281171875,-0.5778896808624268,-0.3450932502746582,0.8629719614982605
1772701665202219800,1.2912197265625,-0.5799965262413025,-0.2566813826560974,0.755783200263977
1772701665212267800,1.301267822265625,-0.5831100940704346,-0.13706253468990326,0.6581225395202637
1772701665222315800,1.311315673828125,-0.5908934473991394,-0.04241139441728592,0.598858118057251
1772701665232363800,1.32136376953125,-0.5415605306625366,-0.004754471126943827,0.5751468539237976
1772701665242411800,1.331411865234375,-0.4310210049152374,-0.04386645555496216,0.5891263484954834
1772701665252459800,1.341459716796875,-0.32448095083236694,-0.15656282007694244,0.6296795606613159
1772701665262508000,1.351508056640625,-0.25542572140693665,-0.3237379789352417,0.6735828518867493
1772701665272555800,1.3615556640625,-0.22924014925956726,-0.5184962153434753,0.7275976538658142
1772701665282603800,1.371603759765625,-0.24201853573322296,-0.7255362272262573,0.792316198348999
1772701665292651800,1.38165185546875,-0.2913249135017395,-0.9985998272895813,0.8825074434280396
1772701665302699800,1.39169970703125,-0.3772083818912506,-1.3230842351913452,0.9681227803230286
1772701665312747800,1.401747802734375,-0.47734764218330383,-1.6951054334640503,1.0035792589187622
1772701665322795800,1.411795654296875,-0.5624839067459106,-2.1091928482055664,0.9849261045455933
1772701665332843800,1.42184375,-0.6031597852706909,-2.484342336654663,0.9139449000358582
1772701665342891800,1.431891845703125,-0.6200923919677734,-2.772353410720825,0.8179887533187866
1772701665352939800,1.441939697265625,-0.6536279916763306,-2.8755292892456055,0.7088014483451843
1772701665362987800,1.45198779296875,-0.6389129757881165,-2.6707799434661865,0.5997955799102783
1772701665373036000,1.4620361328125,-0.5723698139190674,-2.2088563442230225,0.48454907536506653
1772701665383083800,1.472083740234375,-0.4623950719833374,-1.6075217723846436,0.3465925455093384
1772701665393131800,1.4821318359375,-0.3426505923271179,-0.9176506400108337,0.20463299751281738
1772701665403179800,1.4921796875,-0.25011906027793884,-0.2453063577413559,0.07662257552146912
1772701665413227800,1.502227783203125,-0.26177090406417847,0.30448734760284424,-0.06392662972211838
1772701665423275800,1.51227587890625,-0.3085671663284302,0.6048069596290588,-0.16030509769916534
1772701665433323800,1.52232373046875,-0.3364954888820648,0.7716585397720337,-0.21575942635536194
1772701665443371800,1.532371826171875,-0.3446064293384552,0.8646875619888306,-0.24513329565525055
1772701665453419800,1.542419677734375,-0.33808138966560364,0.9096535444259644,-0.22787076234817505
1772701665463467800,1.5524677734375,-0.31358030438423157,0.9535634517669678,-0.15724080801010132
1772701665473515800,1.562515869140625,-0.3009747564792633,0.9874849319458008,-0.051845550537109375
1772701665483563800,1.572563720703125,-0.2992679178714752,0.962064266204834,0.0734306126832962
1772701665493611800,1.58261181640625,-0.29320865869522095,0.821418821811676,0.20644037425518036
1772701665503659800,1.59265966796875,-0.231117844581604,0.6427114009857178,0.34753862023353577
1772701665513708800,1.602708740234375,-0.13632003962993622,0.46730145812034607,0.46340101957321167
1772701665523756800,1.6127568359375,-0.041063301265239716,0.3354579210281372,0.5224499702453613
1772701665533804800,1.6228046875,0.04612492024898529,0.2621169090270996,0.5053625106811523
1772701665543852800,1.632852783203125,0.10775073617696762,0.25007250905036926,0.4067267179489136
1772701665553900800,1.64290087890625,0.14224503934383392,0.27417147159576416,0.2534449100494385
1772701665563948800,1.65294873046875,0.16530749201774597,0.3098522424697876,0.08865384012460709
1772701665573996800,1.662996826171875,0.17912045121192932,0.31350430846214294,-0.03801126405596733
1772701665584044800,1.673044921875,0.18831899762153625,0.3025435507297516,-0.11026176065206528
1772701665594092800,1.6830927734375,0.17800013720989227,0.2788187861442566,-0.13800682127475739
1772701665604140800,1.693140869140625,0.14814476668834686,0.2488584816455841,-0.1354781538248062
1772701665614188800,1.703188720703125,0.10996721684932709,0.22686822712421417,-0.1188344731926918
1772701665624236800,1.71323681640625,0.06983178108930588,0.20907244086265564,-0.1080838218331337
1772701665634284800,1.723284912109375,0.04885940998792648,0.18613791465759277,-0.10152987390756607
1772701665644332800,1.733332763671875,0.019336139783263206,0.169977068901062,-0.11277639865875244
1772701665654380800,1.743380859375,-0.005432248115539551,0.17966991662979126,-0.12732629477977753
1772701665664428800,1.7534287109375,-0.020670056343078613,0.2173166275024414,-0.12146654725074768
1772701665674476800,1.763476806640625,-0.020789939910173416,0.2502199113368988,-0.09805340319871902
1772701665684524800,1.77352490234375,-0.011554896831512451,0.26135167479515076,-0.07013654708862305
1772701665694572800,1.78357275390625,-0.0003829772467724979,0.25006166100502014,-0.04023941233754158
1772701665704620800,1.793620849609375,0.009597751311957836,0.2076396346092224,-0.016418766230344772
1772701665714668800,1.803668701171875,0.019878949970006943,0.17216168344020844,0.006627386901527643
1772701665724716800,1.813716796875,0.03551170602440834,0.13484546542167664,0.02668125554919243
1772701665734764800,1.823764892578125,0.05493232607841492,0.07974192500114441,0.030985558405518532
1772701665744812800,1.833812744140625,0.07486502081155777,0.02227330394089222,0.022415239363908768
1772701665754860800,1.84386083984375,0.09483061730861664,-0.01748601160943508,-0.0038199438713490963
1772701665764908800,1.85390869140625,0.10485076159238815,-0.038210198283195496,-0.03664473444223404
1772701665774956800,1.863956787109375,0.11768797785043716,-0.05009425804018974,-0.0785723403096199
1772701665785004800,1.8740048828125,0.1262361854314804,-0.057625412940979004,-0.12302475422620773
1772701665795052800,1.884052734375,0.1309041976928711,-0.06909928470849991,-0.15058456361293793
1772701665805100800,1.894100830078125,0.13352660834789276,-0.07079491764307022,-0.15157978236675262
1772701665815148800,1.904148681640625,0.12876151502132416,-0.06284312903881073,-0.1364164650440216
1772701665825196800,1.91419677734375,0.13354001939296722,-0.05263177305459976,-0.11893787235021591
1772701665835244800,1.924244873046875,0.14111101627349854,-0.0331105999648571,-0.1068921834230423
1772701665845292800,1.934292724609375,0.14465008676052094,-0.032277561724185944,-0.09723023325204849
1772701665855340800,1.9443408203125,0.1570921093225479,-0.03742145746946335,-0.08333998918533325
1772701665865389800,1.954389892578125,0.16940470039844513,-0.037219058722257614,-0.07096480578184128
1772701665875437800,1.964437744140625,0.18853075802326202,-0.03812702000141144,-0.06290997564792633
1772701665885485800,1.97448583984375,0.21060091257095337,-0.0231560580432415,-0.0668991282582283
1772701665895533800,1.984533935546875,0.21994812786579132,-0.005224548280239105,-0.08903229236602783
1772701665905581800,1.994581787109375,0.2315017282962799,0.03149858117103577,-0.11812466382980347
1772701665915629800,2.0046298828125,0.24120573699474335,0.07358599454164505,-0.13984814286231995
1772701665925677800,2.014677734375,0.24300256371498108,0.09259457141160965,-0.15254849195480347
1772701665935725600,2.0247255859375,0.24524374306201935,0.10247048735618591,-0.15543504059314728
1772701665945773800,2.03477392578125,0.2569589912891388,0.08882631361484528,-0.1490013748407364
1772701665955821800,2.04482177734375,0.2688312828540802,0.06801258772611618,-0.15351861715316772
1772701665965869800,2.054869873046875,0.2770482003688812,0.05521317198872566,-0.15492664277553558
1772701665975917800,2.064917724609375,0.28526049852371216,0.06321960687637329,-0.16170752048492432
1772701665985965800,2.0749658203125,0.28920117020606995,0.0851970762014389,-0.17051832377910614
1772701665996013800,2.085013916015625,0.2929916977882385,0.11654582619667053,-0.18391858041286469
1772701666006061800,2.095061767578125,0.2968149483203888,0.13677600026130676,-0.20397138595581055
1772701666016109800,2.10510986328125,0.3064521253108978,0.14587019383907318,-0.21853847801685333
1772701666026157800,2.11515771484375,0.30990225076675415,0.1590464562177658,-0.23572838306427002
1772701666036205800,2.125205810546875,0.31816256046295166,0.1600528210401535,-0.24982677400112152
1772701666046253800,2.13525390625,0.32232722640037537,0.1591542661190033,-0.27326712012290955
1772701666056301800,2.1453017578125,0.3359612226486206,0.16428080201148987,-0.28745752573013306
1772701666066349800,2.155349853515625,0.34961551427841187,0.16990059614181519,-0.2987315058708191
1772701666076397800,2.165397705078125,0.3613419830799103,0.17098551988601685,-0.3163142502307892
1772701666086445800,2.17544580078125,0.37048569321632385,0.14836223423480988,-0.32567447423934937
1772701666096493800,2.185493896484375,0.37837857007980347,0.13240468502044678,-0.34583690762519836
1772701666106541800,2.195541748046875,0.3704942762851715,0.1395118683576584,-0.36580583453178406
1772701666116589800,2.20558984375,0.3659430742263794,0.14257262647151947,-0.3496689796447754
1772701666126637800,2.215637939453125,0.3572275936603546,0.2059641182422638,-0.34576931595802307
1772701666136685800,2.225685791015625,0.34470003843307495,0.22393453121185303,-0.3454793095588684
1772701666146733600,2.235733642578125,0.3280062973499298,0.09905146062374115,-0.3787190318107605
1772701666156781300,2.24578125,0.2813347280025482,0.08033091574907303,-0.33170655369758606
1772701666166829300,2.255829345703125,0.22336864471435547,0.11328380554914474,-0.22760838270187378
1772701666176877600,2.265877685546875,0.21902230381965637,0.07138480246067047,-0.1392722874879837
1772701666186925300,2.27592529296875,0.2529035806655884,0.012413091026246548,-0.046424105763435364
1772701666196973300,2.285973388671875,0.3016187250614166,-0.03149645775556564,0.03874599188566208
1772701666207021600,2.296021484375,0.3560604155063629,-0.09981905668973923,0.08250279724597931
1772701666217069300,2.3060693359375,0.3916037976741791,-0.19628632068634033,0.10135021060705185
1772701666227118600,2.31611865234375,0.3902842104434967,-0.25001800060272217,0.12136120349168777
1772701666237166300,2.326166259765625,0.339525043964386,-0.2447388768196106,0.14189571142196655
1772701666247214300,2.33621435546875,0.27072492241859436,-0.197337806224823,0.16834516823291779
1772701666257262600,2.3462626953125,0.18637409806251526,-0.125963032245636,0.20387688279151917
1772701666267310300,2.356310302734375,0.08798067271709442,-0.020931432023644447,0.23977601528167725
1772701666277358600,2.366358642578125,-0.007052289787679911,0.10718446224927902,0.24254865944385529
1772701666287406300,2.37640625,-0.09851189702749252,0.24613435566425323,0.1928684562444687
1772701666297454300,2.386454345703125,-0.18072640895843506,0.4118269085884094,0.12518899142742157
1772701666307502600,2.396502685546875,-0.21191522479057312,0.6213836073875427,0.07326427102088928
1772701666317550300,2.40655029296875,-0.2068444937467575,0.8506309986114502,0.030076665803790092
1772701666327598300,2.416598388671875,-0.18336287140846252,1.0324453115463257,-0.01747594028711319
1772701666337646600,2.426646484375,-0.13556475937366486,1.124161720275879,-0.04696643352508545
1772701666347694300,2.4366943359375,-0.05605980381369591,1.1185202598571777,-0.039358314126729965
1772701666357742300,2.446742431640625,0.046137385070323944,1.0544987916946411,0.02127614989876747
1772701666367790300,2.456790283203125,0.15124543011188507,0.943037211894989,0.12054334580898285
1772701666377838300,2.46683837890625,0.2262110710144043,0.814084529876709,0.21233999729156494
1772701666387886600,2.476886474609375,0.2404102385044098,0.7015494704246521,0.24262334406375885
1772701666397934300,2.486934326171875,0.23145003616809845,0.6151525378227234,0.2283559888601303
1772701666407982300,2.496982421875,0.2409796267747879,0.5573230981826782,0.2114097625017166
1772701666418030600,2.507030517578125,0.2711638808250427,0.403032511472702,0.1973952353000641
1772701666428078300,2.517078369140625,0.3409126102924347,0.25994062423706055,0.23691920936107635
1772701666438126300,2.527126220703125,0.3339117467403412,0.11437147855758667,0.3269902765750885
1772701666448174600,2.537174560546875,0.3515341281890869,-0.09193482249975204,0.4539088010787964
1772701666458222300,2.547222412109375,0.38839972019195557,-0.26576194167137146,0.5776507258415222
1772701666468270600,2.5572705078125,0.43064090609550476,-0.40733131766319275,0.6468252539634705
1772701666478318300,2.567318359375,0.4987097680568695,-0.49719223380088806,0.6730793118476868
1772701666488366300,2.577366455078125,0.57089763879776,-0.5590300559997559,0.6769004464149475
1772701666498414600,2.58741455078125,0.6761816740036011,-0.5884213447570801,0.6980652809143066
1772701666508462300,2.59746240234375,0.7641777992248535,-0.6185286641120911,0.7430385947227478
1772701666518510300,2.60751025390625,0.8202654123306274,-0.6888720989227295,0.8003436326980591
1772701666528558600,2.61755859375,0.8090401887893677,-0.7191625833511353,0.8175889253616333
1772701666538606300,2.6276064453125,0.7143029570579529,-0.6470369100570679,0.7836981415748596
1772701666548654300,2.637654296875,0.5531731843948364,-0.4805046021938324,0.6994935274124146
1772701666558703400,2.647703369140625,0.38430434465408325,-0.2718886435031891,0.5523468255996704
1772701666568751400,2.65775146484375,0.22754375636577606,-0.06525050848722458,0.34527912735939026
1772701666578799400,2.66779931640625,0.10189206153154373,0.14175930619239807,0.12704861164093018
1772701666588847400,2.677847412109375,0.028914257884025574,0.3228782117366791,-0.0555608831346035
1772701666598895400,2.687895263671875,0.0033308258280158043,0.43437299132347107,-0.21198061108589172
1772701666608943400,2.697943359375,-0.009488565847277641,0.5129061341285706,-0.3008449673652649
1772701666618991400,2.707991455078125,-0.014929096214473248,0.5658640265464783,-0.3071736991405487
1772701666629039600,2.71803955078125,-0.01942025125026703,0.5908961296081543,-0.2465880960226059
1772701666639087400,2.72808740234375,-0.022346025332808495,0.5881912708282471,-0.151711568236351
1772701666649135400,2.73813525390625,-0.028805522248148918,0.5288233160972595,-0.02617548406124115
1772701666659183600,2.74818359375,-0.03620100021362305,0.4247186779975891,0.1337578445672989
1772701666669231400,2.7582314453125,-0.05571477860212326,0.28330960869789124,0.31149882078170776
1772701666679279400,2.768279296875,-0.09991667419672012,0.1312592327594757,0.4679679870605469
1772701666689327400,2.778327392578125,-0.1506384313106537,-0.009368987753987312,0.5879830121994019
1772701666699375400,2.788375244140625,-0.18610061705112457,-0.10383522510528564,0.6592233180999756
1772701666709423600,2.798423583984375,-0.2051699161529541,-0.1587863564491272,0.6778742074966431
1772701666719471400,2.808471435546875,-0.2173236906528473,-0.1963808834552765,0.6567770838737488
1772701666729519400,2.818519287109375,-0.2406338006258011,-0.23610273003578186,0.6279829740524292
1772701666739567600,2.828567626953125,-0.2742062211036682,-0.24910444021224976,0.6017322540283203
1772701666749615400,2.838615478515625,-0.3150697648525238,-0.2364693433046341,0.586804986000061
1772701666759663400,2.848663330078125,-0.34906476736068726,-0.19310076534748077,0.577712893486023
1772701666769711600,2.858711669921875,-0.3824152946472168,-0.13719436526298523,0.5633336901664734
1772701666779759400,2.86875927734375,-0.4004466235637665,-0.0722888857126236,0.5545060634613037
1772701666789807400,2.878807373046875,-0.4069026708602905,0.03652973473072052,0.5362045764923096
1772701666799855400,2.88885546875,-0.4114852547645569,0.1571444422006607,0.504077672958374
1772701666809903400,2.8989033203125,-0.4114415645599365,0.23871679604053497,0.43855273723602295
1772701666819951600,2.90895166015625,-0.3995215892791748,0.3051939308643341,0.37511691451072693
1772701666829999400,2.918999267578125,-0.37535127997398376,0.3772960603237152,0.34934842586517334
1772701666840047400,2.92904736328125,-0.3625779151916504,0.4278160035610199,0.3294714391231537
1772701666850095600,2.939095703125,-0.35046106576919556,0.4627918303012848,0.32158955931663513
1772701666860143400,2.949143310546875,-0.34038063883781433,0.47539058327674866,0.3244774043560028
1772701666870191400,2.95919140625,-0.3324281573295593,0.471149742603302,0.3444380760192871
1772701666880240400,2.969240478515625,-0.3372638523578644,0.4585902988910675,0.38119423389434814
1772701666890288400,2.979288330078125,-0.3507589101791382,0.44803884625434875,0.43425241112709045
1772701666900336400,2.98933642578125,-0.3699127435684204,0.41316893696784973,0.5005786418914795
1772701666910384400,2.99938427734375,-0.39022332429885864,0.3637276291847229,0.5729143619537354
1772701666920432400,3.009432373046875,-0.40804973244667053,0.30694130063056946,0.6546875238418579
1772701666930480400,3.01948046875,-0.42961469292640686,0.23697581887245178,0.7388013005256653
1772701666940528400,3.0295283203125,-0.45106542110443115,0.16196289658546448,0.7954892516136169
1772701666950576600,3.03957666015625,-0.4698191285133362,0.10005692392587662,0.8266661167144775
1772701666960624400,3.049624267578125,-0.48306965827941895,0.04727218672633171,0.8310428261756897
1772701666970672400,3.05967236328125,-0.49846991896629333,0.007109853904694319,0.8025861382484436
1772701666980720600,3.069720703125,-0.5170953869819641,-0.024764524772763252,0.75559401512146
1772701666990768400,3.079768310546875,-0.5311681032180786,-0.041516341269016266,0.6787224411964417
1772701667000816400,3.08981640625,-0.5594786405563354,-0.03686591610312462,0.5870605707168579
1772701667010864400,3.099864501953125,-0.5883691906929016,-0.01400347612798214,0.493265837430954
1772701667020912400,3.109912353515625,-0.6092981696128845,0.020824244245886803,0.4093063175678253
1772701667030960400,3.11996044921875,-0.6140194535255432,0.04848010465502739,0.3462884724140167
1772701667041008400,3.13000830078125,-0.6079625487327576,0.07708077877759933,0.3030279278755188
1772701667051056400,3.140056396484375,-0.5923929214477539,0.12152866274118423,0.2725192904472351
1772701667061104600,3.150104736328125,-0.5725979804992676,0.17614354193210602,0.25084999203681946
1772701667071152400,3.16015234375,-0.5706360340118408,0.2342127114534378,0.24277955293655396
1772701667081200400,3.170200439453125,-0.5765095949172974,0.26941487193107605,0.2444542646408081
1772701667091248600,3.18024853515625,-0.5738525986671448,0.27352386713027954,0.2652418315410614
1772701667101296400,3.19029638671875,-0.5680279731750488,0.26504579186439514,0.3042046129703522
1772701667111344400,3.200344482421875,-0.5547813773155212,0.2421833574771881,0.32399803400039673
1772701667121392400,3.210392333984375,-0.5478508472442627,0.20577411353588104,0.3186855912208557
1772701667131440400,3.2204404296875,-0.5581610202789307,0.15668433904647827,0.31099119782447815
1772701667141488400,3.23048828125,-0.5649029612541199,0.11492373049259186,0.33461794257164
1772701667151537400,3.240537353515625,-0.5678218007087708,0.05779200792312622,0.3937174677848816
1772701667161585400,3.25058544921875,-0.5662494897842407,-0.01820591650903225,0.46220076084136963
1772701667171633400,3.26063330078125,-0.5517382025718689,-0.09699021279811859,0.5273382067680359
1772701667181681400,3.270681396484375,-0.5404791831970215,-0.1633177399635315,0.5821177363395691
1772701667191729400,3.2807294921875,-0.5429530143737793,-0.23598262667655945,0.622927188873291
1772701667201777400,3.29077734375,-0.5415768623352051,-0.2844729423522949,0.6439678072929382
1772701667211825400,3.300825439453125,-0.547119677066803,-0.3099521994590759,0.6566044688224792
1772701667221874400,3.31087451171875,-0.5600038170814514,-0.31203752756118774,0.6630066633224487
1772701667231922400,3.32092236328125,-0.5891199111938477,-0.2934931218624115,0.6657845973968506
1772701667241970200,3.33097021484375,-0.6248312592506409,-0.24246923625469208,0.6677786111831665
1772701667252018400,3.341018310546875,-0.6602955460548401,-0.19407106935977936,0.6848265528678894
1772701667262066400,3.35106640625,-0.6998291015625,-0.16842040419578552,0.7034048438072205
1772701667272114200,3.3611142578125,-0.7352041602134705,-0.15556159615516663,0.7313006520271301
1772701667282162400,3.371162353515625,-0.6906832456588745,-0.2458738088607788,0.7554700970649719
1772701667292210400,3.38121044921875,-0.5686324238777161,-0.4616788327693939,0.7577729821205139
1772701667302258400,3.391258544921875,-0.5428436994552612,-0.6563607454299927,0.729242205619812
1772701667312306400,3.401306396484375,-0.6067302823066711,-0.7542753219604492,0.6740871071815491
1772701667322354400,3.4113544921875,-0.6650274991989136,-0.7894757986068726,0.6200937628746033
1772701667332402400,3.42140234375,-0.6942716836929321,-0.7498114705085754,0.5573118925094604
1772701667342450400,3.431450439453125,-0.7062640190124512,-0.6699589490890503,0.47307291626930237
1772701667352498200,3.441498291015625,-0.7348085641860962,-0.6478379368782043,0.36946743726730347
1772701667362546400,3.45154638671875,-0.7606663703918457,-0.6433079242706299,0.24887581169605255
1772701667372594400,3.461594482421875,-0.7541512250900269,-0.593400776386261,0.133667454123497
1772701667382642200,3.47164208984375,-0.6966994404792786,-0.4638056457042694,0.052056942135095596
1772701667392690400,3.4816904296875,-0.6815559267997742,-0.2742122709751129,-0.0011567441979423165
1772701667402738400,3.491738525390625,-0.7213378548622131,-0.0646972805261612,-0.0059876395389437675
1772701667412786400,3.501786376953125,-0.7869696021080017,0.1762269288301468,0.027456603944301605
1772701667422834400,3.51183447265625,-0.8126933574676514,0.4340348541736603,0.06703080981969833
1772701667432882400,3.52188232421875,-0.7577768564224243,0.7084088921546936,0.10231183469295502
1772701667442930400,3.531930419921875,-0.6461877226829529,1.0015313625335693,0.141338512301445
1772701667452978400,3.541978515625,-0.4832587242126465,1.2578843832015991,0.15851004421710968
1772701667463026200,3.552026123046875,-0.2797471880912781,1.3875868320465088,0.1419951468706131
1772701667473074400,3.562074462890625,-0.07719942182302475,1.360378384590149,0.1276034265756607
1772701667483122400,3.572122314453125,0.05869375914335251,1.1781342029571533,0.1740504503250122
1772701667493170400,3.58217041015625,0.11364861577749252,0.8432782292366028,0.31596311926841736
1772701667503218400,3.592218505859375,0.10307879000902176,0.4445408284664154,0.5158069133758545
1772701667513266400,3.602266357421875,0.06253456324338913,0.021077187731862068,0.6881563067436218
1772701667523314400,3.612314453125,-0.005424549337476492,-0.34876713156700134,0.7644447684288025
1772701667533363500,3.622363525390625,-0.0855627954006195,-0.5855083465576172,0.7719516754150391
1772701667543411500,3.632411376953125,-0.11235839128494263,-0.7612722516059875,0.727445125579834
1772701667553459500,3.64245947265625,-0.10389246791601181,-0.8422552347183228,0.6498541831970215
1772701667563507200,3.652507080078125,-0.07530968636274338,-0.8817984461784363,0.5398332476615906
1772701667573555500,3.662555419921875,-0.03680730611085892,-0.8439980745315552,0.40198588371276855
1772701667583603500,3.672603515625,-0.0010013466235250235,-0.7529580593109131,0.26564821600914
1772701667593651200,3.682651123046875,0.02498364821076393,-0.6077292561531067,0.13288508355617523
1772701667603699500,3.692699462890625,0.03419240191578865,-0.3926166594028473,0.007489635609090328
1772701667613747500,3.70274755859375,0.029041847214102745,-0.10986724495887756,-0.08927818387746811
1772701667623795200,3.712795166015625,0.020844370126724243,0.21910957992076874,-0.14281891286373138
1772701667633843500,3.722843505859375,0.03050844930112362,0.5119686126708984,-0.16065756976604462
1772701667643891500,3.732891357421875,0.05703197792172432,0.7274825572967529,-0.17707855999469757
1772701667653939500,3.742939453125,0.051410045474767685,0.886325478553772,-0.19700007140636444
1772701667663987500,3.752987548828125,0.049849171191453934,1.0029563903808594,-0.20213192701339722
1772701667674035200,3.76303515625,0.0700865313410759,1.0505284070968628,-0.18119309842586517
1772701667684083500,3.77308349609375,0.07003103941679001,1.010942816734314,-0.11752670258283615
1772701667694131500,3.78313134765625,0.07398051023483276,0.8296164274215698,-0.02009202539920807
1772701667704179200,3.79317919921875,0.09019608795642853,0.5607050061225891,0.06746137887239456
1772701667714227500,3.8032275390625,0.10739851742982864,0.3039914667606354,0.11306774616241455
1772701667724275500,3.813275390625,0.1436700075864792,0.12630382180213928,0.07754547894001007
1772701667734323500,3.823323486328125,0.20534855127334595,-0.015039993450045586,-0.014378317631781101
1772701667744371500,3.833371337890625,0.27161911129951477,-0.1558861881494522,-0.13519936800003052
1772701667754419200,3.843419189453125,0.31666886806488037,-0.2965487539768219,-0.25179973244667053
1772701667764467500,3.853467529296875,0.3504510819911957,-0.3994060158729553,-0.35079482197761536
1772701667774515500,3.863515380859375,0.40684831142425537,-0.4485738277435303,-0.43214401602745056
1772701667784563200,3.873563232421875,0.4576917290687561,-0.4291633367538452,-0.4728434681892395
1772701667794611500,3.883611572265625,0.5000258684158325,-0.4041682481765747,-0.4870314598083496
1772701667804659500,3.893659423828125,0.5385109782218933,-0.35482701659202576,-0.48724597692489624
1772701667814707200,3.903707275390625,0.5514989495277405,-0.21855492889881134,-0.47975262999534607
1772701667824755500,3.91375537109375,0.5378028750419617,-0.0560578927397728,-0.45469576120376587
1772701667834804200,3.92380419921875,0.5131092071533203,0.1064244955778122,-0.4382147789001465
1772701667844852500,3.9338525390625,0.4924825131893158,0.2520732283592224,-0.4404248595237732
1772701667854900500,3.943900390625,0.485148161649704,0.38421952724456787,-0.4519001543521881
1772701667864948200,3.9539482421875,0.4222806990146637,0.5488165616989136,-0.43129751086235046
1772701667874996500,3.96399658203125,0.3820693790912628,0.6003221273422241,-0.42489659786224365
1772701667885044200,3.974044189453125,0.34693455696105957,0.5881349444389343,-0.4218991994857788
1772701667895092500,3.984092529296875,0.30261290073394775,0.579039454460144,-0.4152511656284332
1772701667905140500,3.994140380859375,0.24908941984176636,0.5938003659248352,-0.3899585008621216
1772701667915188200,4.004188232421875,0.22841183841228485,0.5960949063301086,-0.34508824348449707
1772701667925236500,4.014236572265625,0.2328733503818512,0.6209031939506531,-0.33748605847358704
1772701667935284500,4.024284423828125,0.2367945909500122,0.635394275188446,-0.3633677065372467
1772701667945332200,4.034332275390625,0.24313387274742126,0.5991427302360535,-0.40272626280784607
1772701667955380500,4.04438037109375,0.26313528418540955,0.5270615816116333,-0.4706842601299286
1772701667965428500,4.054428466796875,0.2946726381778717,0.4780930280685425,-0.5733979940414429
1772701667975476500,4.0644765625,0.3279310166835785,0.4564063847064972,-0.6913334131240845
1772701667985524500,4.0745244140625,0.3609316647052765,0.4318990111351013,-0.8216221928596497
1772701667995572200,4.084572265625,0.39809608459472656,0.35543885827064514,-0.9400250315666199
1772701668005620500,4.094620361328125,0.464621365070343,0.25165876746177673,-1.0335091352462769
1772701668015668500,4.10466845703125,0.5106900334358215,0.19140684604644775,-1.0602033138275146
1772701668025716200,4.11471630859375,0.5250217318534851,0.116016685962677,-0.9940765500068665
1772701668035764500,4.124764404296875,0.5420123934745789,-0.0241358932107687,-0.8816940784454346
1772701668045812500,4.1348125,0.5624150037765503,-0.11866389960050583,-0.7755889892578125
1772701668055860200,4.144860107421875,0.5951181054115295,-0.2124183475971222,-0.6871576905250549
1772701668065908500,4.154908447265625,0.61781907081604,-0.2793535590171814,-0.6247940063476562
1772701668075956200,4.164956298828125,0.6206662654876709,-0.32535621523857117,-0.5963892340660095
1772701668086004500,4.17500439453125,0.6105452179908752,-0.34694692492485046,-0.580815851688385
1772701668096052500,4.185052490234375,0.5774309635162354,-0.3296869695186615,-0.5640941262245178
1772701668106100200,4.195100341796875,0.5345037579536438,-0.27557557821273804,-0.5490990877151489
1772701668116148500,4.2051484375,0.5043572783470154,-0.20879574120044708,-0.5495057106018066
1772701668126197200,4.215197265625,0.4787493944168091,-0.13110630214214325,-0.5647649765014648
1772701668136245500,4.22524560546875,0.4674365520477295,-0.06222843751311302,-0.5912829041481018
1772701668146293200,4.235293212890625,0.4738139808177948,0.04038096219301224,-0.6303107738494873
1772701668156341000,4.245341064453125,0.47892165184020996,0.12382446229457855,-0.6661635637283325
1772701668166389200,4.25538916015625,0.4780906140804291,0.2110244184732437,-0.711649477481842
1772701668176437200,4.265437255859375,0.4837375581264496,0.26243144273757935,-0.8077507615089417
1772701668186485000,4.275485107421875,0.4689841568470001,0.06679663062095642,-0.8984163403511047
1772701668196533200,4.285533203125,0.41712015867233276,-0.09116584062576294,-0.7796726822853088
1772701668206581000,4.2955810546875,0.31533095240592957,-0.05189477279782295,-0.5558058023452759
1772701668216629000,4.30562890625,0.2531045973300934,-0.07024794816970825,-0.39692267775535583
1772701668226677200,4.31567724609375,0.22541961073875427,-0.1711626797914505,-0.29889804124832153
1772701668236725000,4.32572509765625,0.2322482317686081,-0.21050848066806793,-0.2543809115886688
1772701668246773200,4.335773193359375,0.214943066239357,-0.22139786183834076,-0.2414953112602234
1772701668256821200,4.3458212890625,0.15155769884586334,-0.17469879984855652,-0.26839885115623474
1772701668266869000,4.355868896484375,0.07781554013490677,-0.07338637858629227,-0.35391366481781006
1772701668276917200,4.365917236328125,0.06700363755226135,0.024413419887423515,-0.47497084736824036
1772701668286965200,4.37596533203125,0.08710592985153198,0.100326769053936,-0.6323551535606384
1772701668297013000,4.386012939453125,0.11000139266252518,0.11724662780761719,-0.7935346961021423
1772701668307061200,4.396061279296875,0.1778971254825592,0.08538755774497986,-0.8724015355110168
1772701668317109000,4.40610888671875,0.2811177968978882,0.03453183174133301,-0.7868642807006836
1772701668327157000,4.416156982421875,0.3712728023529053,-0.006852543447166681,-0.5955978631973267
1772701668337205200,4.426205322265625,0.41428446769714355,-0.040434736758470535,-0.3694334328174591
1772701668347253000,4.4362529296875,0.42461660504341125,-0.04684090614318848,-0.20714370906352997
1772701668357301200,4.44630126953125,0.41513150930404663,-0.027508752420544624,-0.13326682150363922
1772701668367349200,4.456349365234375,0.38333868980407715,0.03754747658967972,-0.13497817516326904
1772701668377397000,4.46639697265625,0.3506885766983032,0.11102169752120972,-0.15920788049697876
1772701668387445200,4.4764453125,0.3234234154224396,0.117769256234169,-0.18022680282592773
1772701668397493200,4.4864931640625,0.29257309436798096,0.07791770994663239,-0.18584179878234863
1772701668407541000,4.496541015625,0.2512938976287842,0.05527017265558243,-0.16504210233688354
1772701668417590000,4.506590087890625,0.2097477912902832,0.06415101885795593,-0.1061449646949768
1772701668427638000,4.516637939453125,0.16410061717033386,0.054023656994104385,-0.06828995794057846
1772701668437686300,4.526686279296875,0.15233184397220612,0.06557725369930267,-0.07176591455936432
1772701668447734000,4.536734130859375,0.14691241085529327,0.10181472450494766,-0.13734684884548187
1772701668457782000,4.546781982421875,0.13551035523414612,0.19185806810855865,-0.20108188688755035
1772701668467830300,4.556830322265625,0.14772483706474304,0.25712522864341736,-0.2545822858810425
1772701668477878000,4.5668779296875,0.16090881824493408,0.2552216053009033,-0.3084987699985504
1772701668487926300,4.57692626953125,0.1759258657693863,0.20642048120498657,-0.3243148922920227
1772701668497974300,4.586974365234375,0.1644742786884308,0.1552872508764267,-0.30608609318733215
1772701668508022000,4.59702197265625,0.13333840668201447,0.13555307686328888,-0.28369420766830444
1772701668518070300,4.6070703125,0.08501534909009933,0.14015501737594604,-0.26615914702415466
1772701668528118000,4.617117919921875,0.03281376510858536,0.17830555140972137,-0.25195515155792236
1772701668538166000,4.627166015625,-0.012576088309288025,0.23450730741024017,-0.25065740942955017
1772701668548214300,4.63721435546875,-0.0550210103392601,0.28700020909309387,-0.23034541308879852
1772701668558262000,4.647261962890625,-0.07334169745445251,0.2965867817401886,-0.19624364376068115
1772701668568310000,4.65731005859375,-0.060799650847911835,0.2508160173892975,-0.13895457983016968
1772701668578358300,4.667358154296875,-0.01972491852939129,0.17755165696144104,-0.06087522208690643
1772701668588406000,4.677406005859375,0.03436070680618286,0.0813947319984436,0.039905838668346405
1772701668598454300,4.687454345703125,0.0672326311469078,-0.038390789180994034,0.1568755954504013
1772701668608502300,4.697502197265625,0.08660317212343216,-0.16353517770767212,0.29031404852867126
1772701668618550000,4.707550048828125,0.07362345606088638,-0.28415346145629883,0.4228353500366211
1772701668628598300,4.717598388671875,0.04708373174071312,-0.38127830624580383,0.5282979011535645
1772701668638646000,4.72764599609375,0.005557593423873186,-0.44806158542633057,0.6044273376464844
1772701668648694000,4.737694091796875,-0.037192460149526596,-0.4851682186126709,0.6616389751434326
1772701668658742300,4.7477421875,-0.08441510051488876,-0.47500959038734436,0.7115527391433716
1772701668668790000,4.7577900390625,-0.1352359801530838,-0.4291514754295349,0.7416519522666931
1772701668678838300,4.76783837890625,-0.1830141544342041,-0.36719703674316406,0.7458549737930298
1772701668688886300,4.77788623046875,-0.21082773804664612,-0.2850734293460846,0.7206863164901733
1772701668698935000,4.78793505859375,-0.22371263802051544,-0.1993744969367981,0.6766839623451233
1772701668708983300,4.7979833984375,-0.233467698097229,-0.12387391924858093,0.6135230660438538
1772701668719031000,4.808031005859375,-0.24454006552696228,-0.06621594727039337,0.5441645383834839
1772701668729079300,4.818079345703125,-0.25661298632621765,-0.029945919290184975,0.48302721977233887
1772701668739127000,4.828126953125,-0.26844435930252075,0.003232540562748909,0.42998263239860535
1772701668749175000,4.838175048828125,-0.2848035991191864,0.04937763884663582,0.3935275375843048
1772701668759223300,4.848223388671875,-0.30405959486961365,0.09607962518930435,0.37138283252716064
1772701668769271000,4.85827099609375,-0.3180393874645233,0.13916903734207153,0.35404881834983826
1772701668779319000,4.868319091796875,-0.33317118883132935,0.16411833465099335,0.352565199136734
1772701668789367300,4.8783671875,-0.3442932963371277,0.18323677778244019,0.36853691935539246
1772701668799415000,4.8884150390625,-0.34574154019355774,0.19229020178318024,0.38590285181999207
1772701668809463000,4.898463134765625,-0.3322223424911499,0.1882888227701187,0.39891305565834045
1772701668819511300,4.90851123046875,-0.3152521550655365,0.18788747489452362,0.4070330560207367
1772701668829559000,4.91855908203125,-0.3100440502166748,0.19467730820178986,0.42276450991630554
1772701668839607300,4.928607177734375,-0.31408217549324036,0.19666534662246704,0.4478757381439209
1772701668849655000,4.938655029296875,-0.3198311924934387,0.18419288098812103,0.4809245765209198
1772701668859703000,4.948703125,-0.33355844020843506,0.15650372207164764,0.5181728601455688
1772701668869751300,4.958751220703125,-0.3575482964515686,0.1157524362206459,0.5467186570167542
1772701668879799000,4.968799072265625,-0.3825545608997345,0.0808945894241333,0.5659030079841614
1772701668889847000,4.978846923828125,-0.4093184173107147,0.051308415830135345,0.5703960657119751
1772701668899895300,4.988895263671875,-0.43639132380485535,0.024897316470742226,0.5699401497840881
1772701668909943000,4.998943115234375,-0.4598095118999481,0.007747516501694918,0.5611825585365295
1772701668919991000,5.008990966796875,-0.4813246726989746,0.0038071037270128727,0.5582477450370789
1772701668930039000,5.0190390625,-0.5045865774154663,0.0025040460750460625,0.5599570870399475
1772701668940087000,5.029087158203125,-0.5174787044525146,-0.0004310240037739277,0.5529937148094177
1772701668950135300,5.03913525390625,-0.5260231494903564,-0.0028355251997709274,0.5429150462150574
1772701668960183000,5.04918310546875,-0.5293198227882385,-0.008952805772423744,0.5329567193984985
1772701668970232300,5.059232421875,-0.542936384677887,-0.01931130327284336,0.5256909728050232
1772701668980280000,5.069280029296875,-0.549949049949646,-0.01563853770494461,0.5246161222457886
1772701668990328000,5.079328125,-0.5537354946136475,0.007853243499994278,0.5273734331130981
1772701669000376300,5.089376220703125,-0.5397946238517761,0.06846146285533905,0.5394442081451416
1772701669010424000,5.099424072265625,-0.5357822775840759,0.15917789936065674,0.5849843621253967
1772701669020472000,5.10947216796875,-0.5427054166793823,0.15291494131088257,0.6225293278694153
1772701669030520300,5.119520263671875,-0.5459904670715332,0.14128799736499786,0.6508330702781677
1772701669040568000,5.129568115234375,-0.5424553751945496,0.13187666237354279,0.6787909269332886
1772701669050616000,5.139615966796875,-0.5312929749488831,0.12178715318441391,0.6985951662063599
1772701669060664000,5.1496640625,-0.5115299224853516,0.1085541695356369,0.7127714157104492
1772701669070712000,5.159712158203125,-0.4860973358154297,0.09139452874660492,0.7393629550933838
1772701669080760300,5.16976025390625,-0.45537859201431274,0.07205305248498917,0.7784445881843567
1772701669090808000,5.17980810546875,-0.44086888432502747,0.040109146386384964,0.8335630297660828
1772701669100856000,5.18985595703125,-0.4286327362060547,0.013780603185296059,0.9087746739387512
1772701669110904300,5.199904296875,-0.42899563908576965,-0.006332015618681908,0.9819774627685547
1772701669120952000,5.2099521484375,-0.44861674308776855,-0.012432519346475601,1.0383819341659546
1772701669131000000,5.22,-0.4772036373615265,0.024908196181058884,1.0814307928085327
1772701669141048300,5.23004833984375,-0.5134080052375793,0.07366880774497986,1.1059532165527344
1772701669151095300,5.24009521484375,-0.5561741590499878,0.11707618832588196,1.119000792503357
1772701669161143600,5.2501435546875,-0.5986230373382568,0.16119465231895447,1.124327301979065
1772701669171191600,5.260191650390625,-0.6403193473815918,0.20147666335105896,1.1046942472457886
1772701669181239300,5.2702392578125,-0.5762754082679749,0.12863147258758545,1.0606343746185303
1772701669191287600,5.28028759765625,-0.3924490809440613,-0.1501808762550354,0.9769116640090942
1772701669201335600,5.29033544921875,-0.32301434874534607,-0.4301465153694153,0.9017988443374634
1772701669211383300,5.30038330078125,-0.35465168952941895,-0.4417673945426941,0.8398308157920837
1772701669221431600,5.310431640625,-0.3715342581272125,-0.3592813014984131,0.7745314240455627
1772701669231480300,5.320480224609375,-0.33123883605003357,-0.31804269552230835,0.7025383710861206
1772701669241528600,5.330528564453125,-0.2822800874710083,-0.3303885757923126,0.6106196641921997
1772701669251576300,5.340576416015625,-0.27423161268234253,-0.346331924200058,0.5282491445541382
1772701669261624300,5.350624267578125,-0.33135083317756653,-0.31818097829818726,0.49353882670402527
1772701669271672600,5.360672607421875,-0.38865628838539124,-0.2355676144361496,0.513105571269989
1772701669281720300,5.37072021484375,-0.384673535823822,-0.1445482224225998,0.5700200200080872
1772701669291768300,5.380768310546875,-0.36122438311576843,-0.10109061747789383,0.6334132552146912
1772701669301816600,5.390816650390625,-0.33803224563598633,-0.12794353067874908,0.6697806119918823
1772701669311864300,5.4008642578125,-0.31090468168258667,-0.2314712107181549,0.6518955230712891
1772701669321912600,5.41091259765625,-0.28176358342170715,-0.386386513710022,0.5921626687049866
1772701669331960300,5.420960205078125,-0.2583748698234558,-0.5346922874450684,0.5142797827720642
1772701669342008300,5.43100830078125,-0.2708304524421692,-0.7101914286613464,0.4472738206386566
1772701669352056600,5.441056640625,-0.29425597190856934,-0.9485449194908142,0.390347421169281
1772701669362104300,5.451104248046875,-0.32966455817222595,-1.2557071447372437,0.3359331786632538
1772701669372152300,5.46115234375,-0.3520142734050751,-1.545951247215271,0.2966739237308502
1772701669382200600,5.47120068359375,-0.37362900376319885,-1.799177646636963,0.2827027142047882
1772701669392248300,5.481248291015625,-0.3811897933483124,-2.0151925086975098,0.27261656522750854
1772701669402296600,5.491296630859375,-0.3425862193107605,-2.196641683578491,0.2379440814256668
1772701669412344600,5.501344482421875,-0.25774216651916504,-2.3202991485595703,0.1730872094631195
1772701669422392300,5.511392333984375,-0.11101850867271423,-2.2937238216400146,0.10311850905418396
1772701669432440600,5.521440673828125,0.08856011927127838,-2.1010148525238037,0.034389302134513855
1772701669442488300,5.53148828125,0.2555384635925293,-1.64276123046875,-0.020731471478939056
1772701669452536300,5.541536376953125,0.2866617739200592,-0.9975241422653198,-0.0946045070886612
1772701669462584600,5.55158447265625,0.23159904778003693,-0.3722991943359375,-0.19987580180168152
1772701669472632300,5.56163232421875,0.15722250938415527,0.12578725814819336,-0.33535152673721313
1772701669482680300,5.571680419921875,0.12453965842723846,0.4944577217102051,-0.48334789276123047
1772701669492729300,5.581729248046875,0.16630525887012482,0.7909024357795715,-0.6255902051925659
1772701669502777300,5.59177734375,0.2404378056526184,1.0067365169525146,-0.7677279114723206
1772701669512825600,5.60182568359375,0.28910568356513977,1.17452073097229,-0.889653205871582
1772701669522873300,5.611873291015625,0.2898489832878113,1.286196231842041,-1.0039234161376953
1772701669532921300,5.62192138671875,0.28916510939598083,1.3435487747192383,-1.0658308267593384
1772701669542969300,5.63196923828125,0.3344298005104065,1.3175967931747437,-1.0323116779327393
1772701669553017300,5.642017333984375,0.4153398871421814,1.202720284461975,-0.9027830958366394
1772701669563065600,5.652065673828125,0.5048655271530151,1.003752589225769,-0.7087073922157288
1772701669573113300,5.66211328125,0.5927076935768127,0.7594636082649231,-0.5248741507530212
1772701669583161300,5.672161376953125,0.6883625984191895,0.5327194333076477,-0.40164250135421753
1772701669593209600,5.682209716796875,0.7834119200706482,0.35446783900260925,-0.38194096088409424
1772701669603257300,5.69225732421875,0.8822988271713257,0.23047132790088654,-0.4590868651866913
1772701669613305300,5.702305419921875,0.9919405579566956,0.12943392992019653,-0.6191158294677734
1772701669623353600,5.712353515625,1.1113479137420654,0.02370724081993103,-0.8356066346168518
1772701669633401300,5.7224013671875,1.195188283920288,-0.067794069647789,-1.042965292930603
1772701669643449600,5.73244970703125,1.227979063987732,-0.11758773028850555,-1.2207125425338745
1772701669653497300,5.742497314453125,1.2388086318969727,-0.12069051712751389,-1.3653384447097778
1772701669663545300,5.75254541015625,1.2687950134277344,-0.0952695831656456,-1.486451506614685
1772701669673593600,5.762593505859375,1.2956960201263428,-0.03759757801890373,-1.5776748657226562
1772701669683641300,5.772641357421875,1.3082935810089111,0.02751218155026436,-1.6519544124603271
1772701669693689300,5.782689453125,1.2914676666259766,0.10628221184015274,-1.7094265222549438
1772701669703737600,5.792737548828125,1.2305538654327393,0.18498314917087555,-1.7382615804672241
1772701669713785300,5.802785400390625,1.1555193662643433,0.247153177857399,-1.7459967136383057
1772701669723833300,5.812833251953125,1.0797228813171387,0.30719733238220215,-1.7502654790878296
1772701669733882400,5.82288232421875,1.0001486539840698,0.3374493420124054,-1.7643513679504395
1772701669743930400,5.832930419921875,0.9273448586463928,0.3432646095752716,-1.7770482301712036
1772701669753978400,5.842978271484375,0.8750091791152954,0.3051305115222931,-1.7937947511672974
1772701669764026400,5.8530263671875,0.841876745223999,0.25585323572158813,-1.8162400722503662
1772701669774074400,5.863074462890625,0.8181788921356201,0.13774117827415466,-1.8071880340576172
1772701669784122400,5.873122314453125,0.8029724955558777,-0.02270469069480896,-1.7526017427444458
1772701669794170400,5.88317041015625,0.8110764622688293,-0.21584804356098175,-1.6807469129562378
1772701669804218600,5.893218505859375,0.8402860164642334,-0.4126172661781311,-1.596970796585083
1772701669814266400,5.903266357421875,0.8820636868476868,-0.5776137113571167,-1.5263005495071411
1772701669824314400,5.913314453125,0.9489785432815552,-0.722760796546936,-1.468788504600525
1772701669834362600,5.923362548828125,1.0218315124511719,-0.847354531288147,-1.4448949098587036
1772701669844410400,5.933410400390625,1.0882995128631592,-0.9332278966903687,-1.4412500858306885
1772701669854458400,5.943458251953125,1.1339422464370728,-1.0024592876434326,-1.450386643409729
1772701669864506400,5.95350634765625,1.1727993488311768,-1.0376310348510742,-1.4548979997634888
1772701669874554400,5.963554443359375,1.198028802871704,-1.032842993736267,-1.4561113119125366
1772701669884602400,5.973602294921875,1.2249834537506104,-1.0124311447143555,-1.443156361579895
1772701669894650400,5.983650390625,1.2317801713943481,-1.0047473907470703,-1.4317703247070312
1772701669904698400,5.993698486328125,1.2350984811782837,-1.00088369846344,-1.42170250415802
1772701669914746600,6.00374658203125,1.2281640768051147,-0.9815171957015991,-1.421392798423767
1772701669924794400,6.01379443359375,1.2234063148498535,-0.9376922249794006,-1.4297176599502563
1772701669934842400,6.02384228515625,1.2081785202026367,-0.8754359483718872,-1.4522517919540405
1772701669944890600,6.033890625,1.1892805099487305,-0.7990977764129639,-1.4958552122116089
1772701669954938400,6.0439384765625,1.177053451538086,-0.7017282843589783,-1.5396534204483032
1772701669964987400,6.0539873046875,1.1727995872497559,-0.5934087634086609,-1.5766857862472534
1772701669975035400,6.064035400390625,1.1715956926345825,-0.4837997853755951,-1.590960144996643
1772701669985083400,6.07408349609375,1.1747653484344482,-0.41648945212364197,-1.580518364906311
1772701669995131400,6.08413134765625,1.1768088340759277,-0.3837227523326874,-1.5522172451019287
1772701670005179400,6.094179443359375,1.1704260110855103,-0.3650696873664856,-1.5200161933898926
1772701670015227400,6.104227294921875,1.1691869497299194,-0.36053216457366943,-1.4968551397323608
1772701670025275400,6.114275390625,1.1655921936035156,-0.3850284516811371,-1.488029956817627
1772701670035323400,6.124323486328125,1.1607691049575806,-0.45176729559898376,-1.4722814559936523
1772701670045371600,6.13437158203125,1.1596194505691528,-0.5382859706878662,-1.4212238788604736
1772701670055419400,6.14441943359375,1.1620829105377197,-0.634942352771759,-1.3412222862243652
1772701670065467400,6.15446728515625,1.166461706161499,-0.7363573908805847,-1.238416314125061
1772701670075515400,6.164515380859375,1.1696914434432983,-0.8151823282241821,-1.1428394317626953
1772701670085563400,6.1745634765625,1.1743825674057007,-0.8674883842468262,-1.0677475929260254
1772701670095611400,6.184611328125,1.1792255640029907,-0.8960203528404236,-1.0143331289291382
1772701670105659400,6.194659423828125,1.1776138544082642,-0.9095710515975952,-0.9763604402542114
1772701670115707400,6.204707275390625,1.1669907569885254,-0.9021791219711304,-0.9503994584083557
1772701670125755400,6.21475537109375,1.1465648412704468,-0.8716965317726135,-0.9350796341896057
1772701670135803400,6.224803466796875,1.1210211515426636,-0.8269986510276794,-0.9233038425445557
1772701670145852400,6.234852294921875,1.110821008682251,-0.777273952960968,-0.9267736673355103
1772701670155900400,6.244900390625,1.1169613599777222,-0.7094569206237793,-0.9557027220726013
1772701670165948400,6.254948486328125,1.1380761861801147,-0.7346003651618958,-1.0095598697662354
1772701670175996400,6.264996337890625,1.14352285861969,-0.9360308647155762,-1.0365723371505737
1772701670186044400,6.27504443359375,1.086941123008728,-0.9934589862823486,-0.9307632446289062
1772701670196092400,6.285092529296875,1.0458028316497803,-0.9873626232147217,-0.7543079853057861
1772701670206141400,6.295141357421875,1.050406575202942,-1.0107754468917847,-0.5872089862823486
1772701670216189400,6.305189453125,1.0580780506134033,-1.0240315198898315,-0.4708065390586853
1772701670226237200,6.3152373046875,1.028822660446167,-0.9800922870635986,-0.43234118819236755
1772701670236285400,6.325285400390625,0.9561009407043457,-0.8520492315292358,-0.44585320353507996
1772701670246333400,6.33533349609375,0.8623693585395813,-0.5976033806800842,-0.4799744188785553
1772701670256381200,6.345381103515625,0.7855139374732971,-0.3529745042324066,-0.5790592432022095
1772701670266429400,6.355429443359375,0.7413941621780396,-0.22838570177555084,-0.7641334533691406
1772701670276477400,6.3654775390625,0.7345941066741943,-0.1796301156282425,-0.9630927443504333
1772701670286525400,6.375525390625,0.7781309485435486,-0.15825745463371277,-1.1452186107635498
1772701670296573400,6.385573486328125,0.8435977697372437,-0.1624809056520462,-1.2937564849853516
1772701670306621400,6.395621337890625,0.9507039785385132,-0.13298052549362183,-1.3696613311767578
1772701670316669400,6.40566943359375,1.08266019821167,-0.10988084226846695,-1.3815997838974
1772701670326717400,6.415717529296875,1.2311633825302124,-0.12126372754573822,-1.3298676013946533
1772701670336765200,6.42576513671875,1.3488221168518066,-0.23544827103614807,-1.2513108253479004
1772701670346813400,6.4358134765625,1.3929579257965088,-0.38464176654815674,-1.1464685201644897
1772701670356861400,6.445861328125,1.3939543962478638,-0.5120943188667297,-1.0256706476211548
1772701670366909400,6.455909423828125,1.3423341512680054,-0.662406325340271,-0.9110699892044067
1772701670376957400,6.46595751953125,1.2516369819641113,-0.8169265389442444,-0.8264654278755188
1772701670387005400,6.47600537109375,1.151910424232483,-0.9136235117912292,-0.7713366746902466
1772701670397053400,6.486053466796875,1.0709211826324463,-0.9356935620307922,-0.753734827041626
1772701670407101400,6.496101318359375,1.008622407913208,-0.885661780834198,-0.7902129888534546
1772701670417149200,6.506149169921875,0.9894564151763916,-0.6964528560638428,-0.8744065165519714
1772701670427198500,6.516198486328125,1.0403211116790771,-0.4173951745033264,-0.9890345335006714
1772701670437246200,6.52624609375,1.1163043975830078,-0.17336149513721466,-1.1166532039642334
1772701670447294500,6.53629443359375,1.1871283054351807,0.010049349628388882,-1.2452147006988525
1772701670457342500,6.546342529296875,1.2433369159698486,0.1387195885181427,-1.3682191371917725
1772701670467390200,6.55639013671875,1.282079815864563,0.2434084564447403,-1.4893105030059814
1772701670477438500,6.5664384765625,1.3082352876663208,0.3863070011138916,-1.6216071844100952
1772701670487486500,6.576486572265625,1.3259462118148804,0.588756799697876,-1.7783317565917969
1772701670497534200,6.5865341796875,1.3325848579406738,0.7907111048698425,-1.9511016607284546
1772701670507582500,6.59658251953125,1.332738995552063,0.8927653431892395,-2.1199021339416504
1772701670517630500,6.60663037109375,1.3238312005996704,0.9022409915924072,-2.2542285919189453
1772701670527678500,6.616678466796875,1.293225646018982,0.8987125754356384,-2.3224425315856934
1772701670537726500,6.6267265625,1.2460052967071533,0.8425214886665344,-2.336254119873047
1772701670547774200,6.636774169921875,1.2018938064575195,0.6957173943519592,-2.3131368160247803
1772701670557822500,6.646822509765625,1.1528016328811646,0.4992866814136505,-2.2773079872131348
1772701670567870500,6.656870361328125,1.1022566556930542,0.3076959550380707,-2.230319023132324
1772701670577918200,6.666918212890625,1.0582083463668823,0.15925975143909454,-2.191171169281006
1772701670587966500,6.676966552734375,1.0384974479675293,-0.004204269498586655,-2.130333185195923
1772701670598014500,6.687014404296875,1.0087816715240479,-0.13645513355731964,-2.0635557174682617
1772701670608062200,6.697062255859375,0.96753990650177,-0.28772053122520447,-2.0076756477355957
1772701670618110500,6.7071103515625,0.9129816889762878,-0.4422067701816559,-1.9219136238098145
1772701670628158200,6.717158203125,0.8435201048851013,-0.5636059045791626,-1.8078233003616333
1772701670638206500,6.72720654296875,0.76188725233078,-0.6748313903808594,-1.6617002487182617
1772701670648254500,6.73725439453125,0.6851933002471924,-0.8273106813430786,-1.4998831748962402
1772701670658303500,6.747303466796875,0.6411318778991699,-1.0289558172225952,-1.3381974697113037
1772701670668351500,6.7573515625,0.626115083694458,-1.1744163036346436,-1.1926370859146118
1772701670678399200,6.767399169921875,0.648312509059906,-1.2298955917358398,-1.0753889083862305
1772701670688447500,6.777447509765625,0.6754248142242432,-1.2086060047149658,-1.0182944536209106
1772701670698495500,6.78749560546875,0.6943941712379456,-1.1454107761383057,-0.9998571872711182
1772701670708543200,6.797543212890625,0.6982977986335754,-1.0680062770843506,-0.9987666606903076
1772701670718591500,6.807591552734375,0.6923699975013733,-0.9934527277946472,-0.9986976981163025
1772701670728639500,6.817639404296875,0.667216420173645,-0.9218350052833557,-0.9822790622711182
1772701670738687200,6.827687255859375,0.6287856101989746,-0.8519572615623474,-0.9394868016242981
1772701670748735500,6.837735595703125,0.5868456363677979,-0.7913695573806763,-0.8974258899688721
1772701670758783200,6.847783203125,0.5588625073432922,-0.71536785364151,-0.8602699637413025
1772701670768831500,6.85783154296875,0.5301309823989868,-0.6132015585899353,-0.8496010899543762
1772701670778879500,6.86787939453125,0.48877501487731934,-0.5434136986732483,-0.8555675745010376
1772701670788927200,6.87792724609375,0.4351259171962738,-0.5044165253639221,-0.8665323853492737
1772701670798975500,6.8879755859375,0.37295007705688477,-0.4466056525707245,-0.8678404092788696
1772701670809023500,6.8980234375,0.313460111618042,-0.41556304693222046,-0.8725574016571045
1772701670819071200,6.9080712890625,0.25029391050338745,-0.39499372243881226,-0.8650617003440857
1772701670829119500,6.918119384765625,0.19094218313694,-0.35097965598106384,-0.8421974182128906
1772701670839167200,6.928167236328125,0.14256352186203003,-0.2824269235134125,-0.8184579610824585
1772701670849215200,6.93821533203125,0.12465164810419083,-0.1885523796081543,-0.8071646094322205
1772701670859263500,6.948263427734375,0.12077855318784714,-0.09083464741706848,-0.8140538334846497
1772701670869312300,6.958312255859375,0.13478386402130127,0.0034367255866527557,-0.8248545527458191
1772701670879360500,6.968360595703125,0.15705622732639313,0.08001592010259628,-0.8511624336242676
1772701670889408300,6.978408203125,0.18379488587379456,0.11229689419269562,-0.8698368072509766
1772701670899456500,6.98845654296875,0.20922480523586273,0.12065854668617249,-0.8718481063842773
1772701670909504500,6.99850439453125,0.2321373075246811,0.11362673342227936,-0.8551967144012451
1772701670919552300,7.00855224609375,0.2435184121131897,0.10222946107387543,-0.8247216939926147
1772701670929600500,7.0186005859375,0.25255027413368225,0.0881381407380104,-0.7699940204620361
1772701670939648500,7.0286484375,0.25859084725379944,0.07473935186862946,-0.698694109916687
1772701670949696300,7.0386962890625,0.26133763790130615,0.04237581416964531,-0.6225324869155884
1772701670959744500,7.04874462890625,0.25945398211479187,-0.005286488216370344,-0.5400012731552124
1772701670969792300,7.058792236328125,0.23615212738513947,-0.07929626852273941,-0.46199509501457214
1772701670979840300,7.06884033203125,0.20083726942539215,-0.16255679726600647,-0.371631920337677
1772701670989888500,7.078888427734375,0.16020089387893677,-0.2232648879289627,-0.2523705065250397
1772701670999936300,7.088936279296875,0.13866208493709564,-0.25177475810050964,-0.1261773705482483
1772701671009984500,7.098984619140625,0.23007935285568237,-0.3426077365875244,-0.042460374534130096
1772701671020032500,7.109032470703125,0.3680920898914337,-0.4954860508441925,0.00826239213347435
1772701671030080300,7.119080322265625,0.36324620246887207,-0.5438402891159058,0.07147997617721558
1772701671040128500,7.12912841796875,0.2693081796169281,-0.4965680241584778,0.14409735798835754
1772701671050176300,7.13917626953125,0.22781720757484436,-0.4803887903690338,0.14418551325798035
1772701671060224300,7.149224365234375,0.24229386448860168,-0.5358437895774841,0.06646528095006943
1772701671070272500,7.1592724609375,0.21724790334701538,-0.6144384145736694,-0.060044724494218826
1772701671080320300,7.1693203125,0.10430937260389328,-0.6546038389205933,-0.20215094089508057
1772701671090368300,7.1793681640625,-0.03945951163768768,-0.6071463227272034,-0.3137893080711365
1772701671100417300,7.189417236328125,-0.13415062427520752,-0.5774590969085693,-0.38814082741737366
1772701671110465300,7.19946533203125,-0.16651202738285065,-0.5878161191940308,-0.4249584972858429
1772701671120513500,7.209513427734375,-0.18003658950328827,-0.5431557893753052,-0.45012712478637695
1772701671130561300,7.219561279296875,-0.19434815645217896,-0.4034687280654907,-0.4887482821941376
1772701671140609500,7.229609619140625,-0.18896722793579102,-0.2019398808479309,-0.5291172862052917
1772701671150657000,7.239656982421875,-0.14754734933376312,0.03057726100087166,-0.5528415441513062
1772701671160704800,7.249704833984375,-0.043593261390924454,0.23307976126670837,-0.5636339783668518
1772701671170753000,7.2597529296875,0.09150277823209763,0.3636372685432434,-0.5674798488616943
1772701671180801000,7.269801025390625,0.20817668735980988,0.3826151490211487,-0.5942832827568054
1772701671190848800,7.279848876953125,0.2699665427207947,0.28163713216781616,-0.6959326863288879
1772701671200897000,7.28989697265625,0.2810724675655365,0.09599112719297409,-0.867519736289978
1772701671210944800,7.29994482421875,0.28044822812080383,-0.12105543166399002,-1.0084879398345947
1772701671220992800,7.30999267578125,0.28269195556640625,-0.32074224948883057,-1.0592041015625
1772701671231041000,7.320041015625,0.2893386781215668,-0.5436328053474426,-1.0377683639526367
1772701671241088800,7.3300888671875,0.3274943232536316,-0.7757864594459534,-0.9899875521659851
1772701671251136800,7.34013671875,0.38218367099761963,-0.9997282028198242,-0.9313855171203613
1772701671261185000,7.35018505859375,0.4631330370903015,-1.1655813455581665,-0.8660197257995605
1772701671271232800,7.360232666015625,0.515703022480011,-1.2830246686935425,-0.7802858948707581
1772701671281281000,7.370281005859375,0.5489494800567627,-1.3880268335342407,-0.6779398918151855
1772701671291329800,7.380329833984375,0.5691013336181641,-1.4790323972702026,-0.5631060004234314
1772701671301377800,7.390377685546875,0.5761919021606445,-1.5036122798919678,-0.46023741364479065
1772701671311426000,7.400426025390625,0.5715305805206299,-1.4331750869750977,-0.3910980224609375
1772701671321473800,7.410473876953125,0.5847441554069519,-1.2692911624908447,-0.36102911829948425
1772701671331522000,7.42052197265625,0.620515763759613,-1.0523844957351685,-0.38651105761528015
1772701671341569800,7.43056982421875,0.6564593315124512,-0.8067230582237244,-0.4749903082847595
1772701671351617800,7.44061767578125,0.6769822239875793,-0.5682708024978638,-0.6048082709312439
1772701671361666000,7.450666015625,0.6618733406066895,-0.38443508744239807,-0.7252513766288757
1772701671371713800,7.4607138671875,0.6277425289154053,-0.2344040721654892,-0.7896814942359924
1772701671381761800,7.47076171875,0.5944759249687195,-0.10451523959636688,-0.8000174164772034
1772701671391810000,7.48081005859375,0.5747190117835999,0.015046577900648117,-0.7910897135734558
1772701671401857800,7.49085791015625,0.5702059864997864,0.10284099727869034,-0.7794513702392578
1772701671411906000,7.500906005859375,0.5766644477844238,0.11774405092000961,-0.7842714190483093
1772701671421953800,7.510953857421875,0.5711889863014221,0.09027286618947983,-0.7818865180015564
1772701671432001800,7.521001708984375,0.5546259880065918,0.034293752163648605,-0.7657150030136108
1772701671442050000,7.531050048828125,0.5208698511123657,-0.03722686693072319,-0.7159886956214905
1772701671452097800,7.541097900390625,0.4830034673213959,-0.12948063015937805,-0.6445578932762146
1772701671462145800,7.551145751953125,0.4424120783805847,-0.2303096503019333,-0.5801196694374084
1772701671472194000,7.561194091796875,0.4174729287624359,-0.3293219804763794,-0.5428897738456726
1772701671482241800,7.57124169921875,0.4164017140865326,-0.40780386328697205,-0.5402246713638306
1772701671492289800,7.581289794921875,0.425488144159317,-0.44447028636932373,-0.55557781457901
1772701671502338800,7.5913388671875,0.4371885657310486,-0.4509961009025574,-0.5875534415245056
1772701671512386800,7.60138671875,0.448102742433548,-0.4574715793132782,-0.6130356788635254
1772701671522435000,7.61143505859375,0.44822630286216736,-0.43545690178871155,-0.6308630108833313
1772701671532482800,7.62148291015625,0.45135071873664856,-0.35875093936920166,-0.5133627653121948
1772701671542530800,7.63153076171875,0.44532695412635803,-0.275052011013031,-0.03477070480585098
1772701671552578800,7.641578857421875,0.43136292695999146,-0.19224900007247925,0.013362203724682331
1772701671562626800,7.651626708984375,0.39874449372291565,-0.04005499929189682,-0.1733989417552948
1772701671572675000,7.661675048828125,0.3817868232727051,0.12760882079601288,-0.44955942034721375
1772701671582722800,7.671722900390625,0.39551275968551636,0.1770438849925995,-0.7131531834602356
1772701671592770800,7.681770751953125,0.4036867916584015,0.18209697306156158,-0.8998062014579773
1772701671602819000,7.691819091796875,0.3681168556213379,0.1285625547170639,-1.048715591430664
1772701671612866800,7.70186669921875,0.34214678406715393,0.048789966851472855,-1.0634655952453613
1772701671622914800,7.711914794921875,0.3264676332473755,-0.018297361209988594,-0.9265732169151306
1772701671632962800,7.721962890625,0.308533638715744,-0.10480162501335144,-0.7292571663856506
