time,seconds_elapsed,z,y,x
1772702710666831000,0.0608310546875,0.0002713761059567332,-0.00583658367395401,0.016209064051508904
1772702710676881000,0.070880859375,0.0048799761570990086,-0.008918393403291702,0.005671733990311623
1772702710686931000,0.080930908203125,0.0028695559594780207,0.002025866648182273,0.004341751337051392
1772702710696981000,0.09098095703125,0.0033332123421132565,0.013004481792449951,0.006785201840102673
1772702710707031000,0.101031005859375,0.00407623453065753,0.014887336641550064,0.006359894759953022
1772702710717080800,0.111080810546875,0.003945206757634878,0.004026167094707489,0.0070557789877057076
1772702710727131000,0.121130859375,0.0007909588166512549,-0.002341983839869499,0.007693073246628046
1772702710737180000,0.131179931640625,-0.0002008023438975215,-0.011570103466510773,0.009503223933279514
1772702710747230000,0.14122998046875,-0.002428004052489996,-0.004595817066729069,0.004179831128567457
1772702710757280000,0.151280029296875,-0.00025539714260958135,0.005786249879747629,0.004807271994650364
1772702710767330000,0.161330078125,0.0002926813904196024,0.0015417039394378662,0.0046850331127643585
1772702710777380000,0.171380126953125,0.00015579492901451886,0.0011179950088262558,0.003582484321668744
1772702710787430100,0.18143017578125,0.0033039175905287266,-0.002400573343038559,0.006848851218819618
1772702710797480000,0.19147998046875,0.0026967169251292944,0.003784085623919964,0.005313805304467678
1772702710807530000,0.201530029296875,0.004889297299087048,0.012633769772946835,0.005293298978358507
1772702710817580000,0.211580078125,0.00634977500885725,0.004548945464193821,0.002296710154041648
1772702710827630000,0.221630126953125,0.007476292084902525,-0.009068063460290432,0.0052384380251169205
1772702710837679900,0.231679931640625,0.006452839355915785,-0.0020780644845217466,0.0043444144539535046
1772702710847730000,0.24172998046875,0.009559948928654194,0.0013403689954429865,0.005361475981771946
1772702710857780000,0.251780029296875,0.00785525981336832,-0.00020479709201026708,0.0019204054260626435
1772702710867830000,0.261830078125,0.008389223366975784,-0.0006282397080212831,0.00133877107873559
1772702710877879800,0.2718798828125,0.009476060047745705,0.0006346312584355474,-0.0011496866354718804
1772702710887929900,0.281929931640625,0.0082483422011137,-0.007297061383724213,0.0011385013349354267
1772702710897980000,0.29197998046875,0.0062879896722733974,-0.013716877438127995,-0.002430933527648449
1772702710908030000,0.302030029296875,0.005800098646432161,-0.00891146995127201,-0.0010700580896809697
1772702710918080800,0.312080810546875,0.007251521106809378,-0.00444002216681838,0.0023758059833198786
1772702710928130600,0.322130615234375,0.005262406077235937,0.002097505610436201,-0.0007749798824079335
1772702710938180600,0.3321806640625,0.006105296779423952,0.0007768440991640091,0.0012721919920295477
1772702710948230700,0.342230712890625,0.005508748814463615,0.0052325790748000145,0.00015180018090177327
1772702710958280700,0.35228076171875,0.006914897821843624,0.007407582364976406,0.004495682194828987
1772702710968329700,0.362329833984375,0.0037651772145181894,0.007258978206664324,0.0006314354832284153
1772702710978379800,0.3723798828125,0.00443895673379302,0.002377137541770935,0.0014700648607686162
1772702710988429800,0.382429931640625,0.002159823663532734,-0.0013289173366501927,-0.0016202671686187387
1772702710998480000,0.39247998046875,0.0035830168053507805,0.0017715347930788994,-0.002433330286294222
1772702711008529700,0.40252978515625,0.0044440170750021935,0.004102866165339947,-0.002636529505252838
1772702711018579700,0.412579833984375,0.002645051572471857,0.0008024104172363877,-0.004097007215023041
1772702711028629800,0.422629638671875,0.002614957746118307,0.005567338317632675,-0.0034234935883432627
1772702711038679800,0.4326796875,0.003716707695275545,0.007056578062474728,-0.002578738844022155
1772702711048729600,0.4427294921875,0.004569718148559332,0.009897904470562935,-0.0025278725661337376
1772702711058779600,0.452779541015625,0.003585680155083537,0.010312026366591454,-0.004523112904280424
1772702711068829700,0.46282958984375,0.003822967642918229,0.00649704784154892,-0.0009084042394533753
1772702711078879700,0.472879638671875,0.00023915186466183513,0.007790278643369675,0.0003025351034011692
1772702711088929500,0.482929443359375,0.000553404854144901,0.003062102710828185,-0.0023073628544807434
1772702711098979600,0.4929794921875,0.0026258768048137426,0.004192348103970289,-0.004569185432046652
1772702711109030000,0.50302978515625,0.000559530162718147,0.009613744914531708,-0.004221642855554819
1772702711119080000,0.513079833984375,-0.0019185412675142288,0.016032762825489044,-0.00555082643404603
1772702711129129700,0.523129638671875,-0.0020572920329868793,0.005608084611594677,-0.006010221783071756
1772702711139179800,0.5331796875,-0.003305249148979783,0.0019955066964030266,-0.0018461032304912806
1772702711149229800,0.543229736328125,-0.002834135899320245,0.008016381412744522,-0.00421471893787384
1772702711159279900,0.55327978515625,-0.0007773766992613673,0.014066816307604313,-0.0035928706638514996
1772702711169329700,0.56332958984375,-0.003144660498946905,0.016164589673280716,-0.005474660079926252
1772702711179379700,0.573379638671875,-0.0027225494850426912,0.019052254036068916,-0.0012170645641162992
1772702711189429800,0.5834296875,-0.002097505610436201,0.019230419769883156,-0.002404035534709692
1772702711199478500,0.593478515625,-0.0017361147329211235,0.017422134056687355,0.0008335694437846541
1772702711209528600,0.603528564453125,-0.0007603325066156685,0.01209874078631401,-0.0005334311863407493
1772702711219578600,0.61357861328125,-0.004207261838018894,0.012160259298980236,-0.004142014309763908
1772702711229629000,0.62362890625,-0.004114051349461079,0.009214537218213081,-0.004168379586189985
1772702711239679000,0.633678955078125,-0.00395799009129405,0.009523464366793633,-0.00410499656572938
1772702711249728800,0.643728759765625,-0.0026695525739341974,0.012016182765364647,-0.0017805894603952765
1772702711259778800,0.65377880859375,-0.0006255765329115093,0.015537946484982967,-0.0022386531345546246
1772702711269828900,0.663828857421875,-0.0009121326729655266,0.01907116360962391,-0.006598780397325754
1772702711279879000,0.67387890625,-0.003611512714996934,0.021450696513056755,-0.006747118663042784
1772702711289928700,0.6839287109375,-0.0018077536951750517,0.01456030085682869,-0.003198722843080759
1772702711299978800,0.693978759765625,-0.0009209210984408855,0.007966846227645874,-0.002799781272187829
1772702711310028800,0.70402880859375,-0.00282082031480968,0.00595429539680481,-0.003765709698200226
1772702711320078800,0.714078857421875,-0.0020335898734629154,0.010748251341283321,-0.00672181835398078
1772702711330128600,0.724128662109375,-0.003192597534507513,0.010269149206578732,-0.006913299672305584
1772702711340178700,0.7341787109375,-0.003346261801198125,0.010727212764322758,-0.004418983124196529
1772702711350228700,0.744228759765625,-0.000056459015468135476,0.006964698899537325,-0.0036975329276174307
1772702711360278800,0.75427880859375,-0.00034168356796726584,0.01019751001149416,-0.004194212146103382
1772702711370328600,0.76432861328125,-0.003625893732532859,0.01732998713850975,-0.005479986313730478
1772702711380378600,0.774378662109375,-0.004355067387223244,0.017711885273456573,-0.004782504867762327
1772702711390428700,0.7844287109375,-0.0031284152064472437,0.023674169555306435,-0.008241684176027775
1772702711400478700,0.794478759765625,-0.0020242687314748764,0.011572766117751598,-0.006009423173964024
1772702711410528800,0.80452880859375,-0.0016953683225437999,0.006591856479644775,-0.004888498689979315
1772702711420578800,0.814578857421875,-0.0022386531345546246,0.004479969386011362,-0.008226238191127777
1772702711430627800,0.8246279296875,-0.003947869874536991,0.006586529780179262,-0.007730890065431595
1772702711440677600,0.834677734375,-0.004538292996585369,0.012480637989938259,-0.00743234995752573
1772702711450727700,0.844727783203125,-0.0041305627673864365,0.011936021968722343,-0.006883206311613321
1772702711460777700,0.85477783203125,-0.00006364954606397077,0.006935936864465475,-0.0019435749854892492
1772702711470827800,0.864827880859375,0.0012034825049340725,0.005307413637638092,0.0022983080707490444
1772702711480877600,0.874877685546875,0.00005912217602599412,0.008213454857468605,0.000494016392622143
1772702711490927600,0.884927734375,0.0026847326662391424,0.010098973289132118,-0.0004346278728917241
1772702711500977700,0.894977783203125,0.003097256412729621,0.008268848992884159,-0.0007922904333099723
1772702711511027700,0.90502783203125,0.003278617514297366,0.008926915936172009,-0.0006141249323263764
1772702711521077800,0.915077880859375,0.0013110742438584566,0.006399043370038271,0.002258360618725419
1772702711531127800,0.9251279296875,0.0008876316132955253,0.005811550188809633,0.0020602215081453323
1772702711541177900,0.935177734375,0.00009827064059209079,0.0051566786132752895,0.003906058380380273
1772702711551228000,0.945227783203125,-0.0008394283941015601,-0.0009265137487091124,0.004742823541164398
1772702711561277700,0.955277587890625,-0.0012269183062016964,-0.005100752227008343,0.0012024171883240342
1772702711571327700,0.96532763671875,0.005874400492757559,-0.008330900222063065,0.00014327807002700865
1772702711581377800,0.975377685546875,0.003519633784890175,-0.007529555354267359,-0.0013824469642713666
1772702711591427800,0.985427734375,0.0031220237724483013,0.00019228023302275687,-0.0005731122801080346
1772702711601477600,0.9954775390625,-0.0004719121498055756,0.003665308468043804,0.00015632755821570754
1772702711611527700,1.005527587890625,0.00098217383492738,0.0003347593592479825,-0.002115881536155939
1772702711621577700,1.01557763671875,0.0033041839487850666,0.0019893813878297806,-0.0030860709957778454
1772702711631627800,1.025627685546875,0.007929296232759953,0.005314338020980358,-0.004503937903791666
1772702711641677800,1.035677734375,0.006809968966990709,0.00041678472189232707,-0.0019430422689765692
1772702711651726800,1.045726806640625,0.0043955473229289055,-0.004048537462949753,-0.001967010786756873
1772702711661777000,1.05577685546875,0.004400340840220451,-0.007822236977517605,-0.00469462014734745
1772702711671827000,1.065826904296875,0.0020010992884635925,-0.0026993800420314074,0.00022956448083277792
1772702711681876700,1.075876708984375,0.005012867972254753,-0.002561694709584117,-0.0014602112350985408
1772702711691926800,1.0859267578125,0.0014729943359270692,-0.005344165489077568,0.0016953683225437999
1772702711701976800,1.095976806640625,0.0039049931801855564,-0.006048571318387985,-0.00005193164179218002
1772702711712027000,1.10602685546875,0.0025782061275094748,-0.001657551503740251,-0.0016021577175706625
1772702711722076700,1.11607666015625,0.003198456484824419,0.003549727378413081,-0.002019474981352687
1772702711732126700,1.126126708984375,0.005066397599875927,0.0034176346380263567,0.0005387574783526361
1772702711742176800,1.1361767578125,0.0011230550007894635,0.00446931691840291,-0.0014929680619388819
1772702711752226800,1.146226806640625,0.0023451796732842922,0.00043276368523947895,0.00481366366147995
1772702711762276600,1.156276611328125,0.0017949705943465233,0.0010402307379990816,0.0003299656673334539
1772702711772326700,1.16632666015625,0.0016215987270697951,-0.00022423815971706063,0.003909253980964422
1772702711782376700,1.176376708984375,0.0020482372492551804,0.0024226775858551264,-0.0010665960144251585
1772702711792426800,1.1864267578125,0.000254331884207204,0.000675111310556531,0.0009443568997085094
1772702711802476500,1.1964765625,-0.002424009144306183,0.0006788397440686822,0.003025350859388709
1772702711812526600,1.206526611328125,-0.0020128171890974045,0.004599012900143862,0.0014889733865857124
1772702711822576600,1.21657666015625,-0.0024658208712935448,0.004771052859723568,0.004238686989992857
1772702711832627000,1.226626953125,-0.002567020943388343,0.005013134330511093,0.005627791862934828
1772702711842676700,1.2366767578125,-0.0005001416429877281,0.006618488114327192,0.0018687400734052062
1772702711852726800,1.246726806640625,0.0005435511702671647,0.005606752820312977,0.004201935604214668
1772702711862776800,1.25677685546875,-0.0002569950302131474,0.004176901653409004,0.004259459674358368
1772702711872827000,1.266826904296875,-0.0022807312197983265,0.00686003640294075,0.0023193468805402517
1772702711882875600,1.276875732421875,-0.000006391586794052273,0.008803078904747963,0.003841343568637967
1772702711892925700,1.28692578125,-0.00007696535612922162,0.011408981867134571,0.0011169298086315393
1772702711902975700,1.296975830078125,-0.0027917916886508465,0.0158868208527565,0.0021169467363506556
1772702711913025800,1.30702587890625,-0.004683967679738998,0.016822123900055885,0.0019038938917219639
1772702711923075000,1.317074951171875,-0.002382996492087841,0.013701963238418102,0.0023782027419656515
1772702711933124900,1.327124755859375,-0.004297809209674597,0.01158421766012907,0.002424541860818863
1772702711943175000,1.3371748046875,-0.004485029727220535,0.012354404665529728,0.0014937670202925801
1772702711953225000,1.347224853515625,-0.004273840691894293,0.010889398865401745,0.00008921589324017987
1772702711963275000,1.35727490234375,-0.005289836786687374,0.010301905684173107,0.002124137245118618
1772702711973324800,1.36732470703125,-0.004771851934492588,0.006118080113083124,-0.002606702037155628
1772702711983374800,1.377374755859375,-0.006208094768226147,0.009432650171220303,-0.001433845958672464
1772702711993425000,1.3874248046875,-0.004837898537516594,0.012456935830414295,-0.002285258611664176
1772702712003475000,1.397474853515625,-0.005547630600631237,0.014415157958865166,0.000791491474956274
1772702712013524700,1.407524658203125,-0.004656004719436169,0.014061490073800087,0.00005885586142539978
1772702712023574800,1.41757470703125,-0.0022445120848715305,0.01181910838931799,-0.004640824627131224
1772702712033624800,1.427624755859375,-0.0004905542591586709,0.013848970644176006,0.001466336427256465
1772702712043675000,1.4376748046875,-0.0010724549647420645,0.012434299103915691,-0.001540904981084168
1772702712053724700,1.447724609375,-0.0035260252188891172,0.015103318728506565,-0.0001675128296483308
1772702712063774700,1.457774658203125,-0.0028972530271857977,0.015196263790130615,0.0013962953817099333
1772702712073824800,1.46782470703125,-0.0022570290602743626,0.014311295002698898,-0.0005523395957425237
1772702712083874800,1.477874755859375,-0.0017984326696023345,0.01465670671314001,0.0009414274245500565
1772702712093924900,1.4879248046875,-0.003805390791967511,0.011795672588050365,0.002299905987456441
1772702712103975000,1.497974853515625,-0.002927080262452364,0.009158078581094742,0.0021933794487267733
1772702712114024000,1.50802392578125,-0.005002481862902641,0.006803577765822411,0.0014335796004161239
1772702712124074000,1.518073974609375,-0.0016442356863990426,0.004664526786655188,0.002133458387106657
1772702712134123800,1.528123779296875,-0.001097755040973425,0.008135690353810787,0.0062333946116268635
1772702712144173800,1.538173828125,-0.001163002452813089,0.011749067343771458,0.002575543010607362
1772702712154223900,1.548223876953125,-0.00007536746124969795,0.008039817214012146,0.004907939583063126
1772702712164274000,1.55827392578125,-0.00021305288828443736,0.008651811629533768,0.0012548814993351698
1772702712174323700,1.56832373046875,0.0010394317796453834,0.010085657238960266,-0.00017124126316048205
1772702712184373800,1.578373779296875,0.005109008401632309,0.007761250250041485,0.00005459480235003866
1772702712194423800,1.588423828125,0.0007715177489444613,0.0032091091852635145,0.00018801917030941695
1772702712204473900,1.598473876953125,0.0036397422663867474,0.0036780918017029762,-0.004477039910852909
1772702712214524000,1.60852392578125,0.000496945867780596,-0.0014540859265252948,-0.004831506870687008
1772702712224574000,1.618573974609375,0.004231230355799198,-0.006144179031252861,-0.0034613104071468115
1772702712234624000,1.6286240234375,0.0017212009988725185,-0.006735400762408972,-0.0049643986858427525
1772702712244674000,1.638674072265625,0.0027563716284930706,-0.006684267893433571,-0.006165218073874712
1772702712254723800,1.648723876953125,0.002998985582962632,-0.004040015395730734,-0.00649731419980526
1772702712264774000,1.65877392578125,0.002832538215443492,-0.0036597158759832382,-0.00621208967640996
1772702712274824000,1.668823974609375,0.0037955371662974358,0.005369465332478285,-0.004674912896007299
1772702712284874000,1.6788740234375,0.003487143199890852,0.006958573590964079,-0.002669286448508501
1772702712294923800,1.688923828125,0.002823749789968133,0.002502572489902377,0.00035366779775358737
1772702712304973800,1.698973876953125,0.003175287041813135,0.005862682592123747,-0.0005060005933046341
1772702712315024000,1.70902392578125,0.003320429241284728,0.003162237349897623,-0.0015646071406081319
1772702712325074000,1.719073974609375,-0.0006175870657898486,-0.00005965480886516161,-0.002020540414378047
1772702712335123000,1.729123046875,0.0015912387752905488,0.0027443873696029186,0.00012969593808520585
1772702712345173000,1.739173095703125,0.0016612798208370805,0.0002639192680362612,-0.0022021678742021322
1772702712355223000,1.74922314453125,0.000508663768414408,0.001073786523193121,0.000041012681322172284
1772702712365272800,1.75927294921875,0.0010833739070221782,0.00333267985843122,0.0005984122981317341
1772702712375323000,1.769322998046875,0.0020849888678640127,0.0026317357551306486,-0.00006444849714171141
1772702712385373000,1.779373046875,0.0017571536591276526,0.005652825813740492,-0.001216265605762601
1772702712395423000,1.789423095703125,0.0025965820532292128,0.004795820452272892,-0.0033302828669548035
1772702712405472800,1.79947265625,0.0008450209861621261,0.005539108533412218,0.00024820660473778844
1772702712415522800,1.809522705078125,0.0022122878581285477,0.008592423051595688,-0.0017965685110539198
1772702712425572900,1.81957275390625,0.0010572749888524413,0.005545766558498144,-0.0015824503498151898
1772702712435623000,1.829622802734375,0.00015712650201749057,0.003603257006034255,-0.0014705975772812963
1772702712445672700,1.839672607421875,0.00021305288828443736,0.0016753945965319872,0.001484179636463523
1772702712455722800,1.84972265625,-0.001689775730483234,0.0003355582884978503,-0.0010570086305961013
1772702712465772800,1.859772705078125,0.0009643306257203221,0.0020724718924611807,-0.005567338317632675
1772702712475822800,1.86982275390625,-0.0018407768802717328,0.005322593729943037,-0.0006804376607760787
1772702712485873000,1.879872802734375,-0.0011004181578755379,0.005293565336614847,0.0002271676348755136
1772702712495922700,1.889922607421875,-0.0017230651574209332,0.003706587478518486,-0.00032623723382130265
1772702712505972700,1.89997265625,-0.0022367890924215317,-0.000574177538510412,-0.002508964156731963
1772702712516023000,1.91002294921875,-0.002638659905642271,0.006707437336444855,0.00045673211570829153
1772702712526073000,1.920072998046875,0.000964064325671643,0.007191600278019905,0.0008484831196255982
1772702712536123000,1.930122802734375,-0.001050084363669157,0.0072896042838692665,0.0011323761427775025
1772702712546172000,1.940171875,-0.0012442287988960743,0.011055047623813152,0.00026551715563982725
1772702712556222000,1.950221923828125,-0.002014681464061141,0.013262541964650154,0.00017710021347738802
1772702712566271700,1.960271728515625,-0.001020523370243609,0.012282232753932476,0.00020879182557109743
1772702712576321800,1.97032177734375,-0.0022021678742021322,0.00729359919205308,-0.0002002697146963328
1772702712586371800,1.980371826171875,-0.0018157431622967124,0.007895473390817642,0.003079679561778903
1772702712596422000,1.990421875,-0.0012996225850656629,0.00344586418941617,0.0016104135429486632
1772702712606471700,2.0004716796875,-0.0008194546680897474,0.0049553439021110535,0.00041811628034338355
1772702712616521700,2.010521728515625,-0.002531068166717887,0.012064386159181595,-0.001558748190291226
1772702712626571800,2.02057177734375,-0.001734250457957387,0.013698235154151917,0.0011041465913876891
1772702712636622000,2.0306220703125,-0.0005667206714861095,0.010212157852947712,0.002380866091698408
1772702712646672000,2.040671875,-0.0018908443162217736,0.01122256089001894,0.000017843178284238093
1772702712656722000,2.050721923828125,-0.0018556906143203378,0.005923935677856207,-0.0015491608064621687
1772702712666772000,2.06077197265625,-0.0023843280505388975,0.006336192600429058,-0.0030394657514989376
1772702712676822000,2.070822021484375,-0.003745736088603735,0.0029177593532949686,-0.003163302782922983
1772702712686871800,2.080871826171875,-0.0015225291717797518,-0.0023305322974920273,-0.0028735508676618338
1772702712696921900,2.090921875,-0.001341434195637703,0.001588841900229454,0.0006607302348129451
1772702712706972000,2.100971923828125,0.0015550197567790747,0.006560430862009525,0.0013733921805396676
1772702712717022000,2.11102197265625,-0.00009054747351910919,0.011632154695689678,-0.0004522047529462725
1772702712727071700,2.12107177734375,-0.00001944107498275116,0.018639996647834778,0.0010064085945487022
1772702712737121800,2.131121826171875,-0.002941993996500969,0.021106617525219917,-0.0014985607704147696
1772702712747171800,2.141171875,-0.005914614535868168,0.014846057631075382,-0.002508964156731963
1772702712757222000,2.151221923828125,-0.006482666824012995,0.007949003018438816,-0.0036820864770561457
1772702712767271700,2.161271728515625,-0.0059692091308534145,0.007978031411767006,-0.0034016557037830353
1772702712777321700,2.17132177734375,-0.007769505959004164,0.005315935704857111,-0.007832090370357037
1772702712787371000,2.18137109375,-0.012001534923911095,0.002683401107788086,-0.002879942301660776
1772702712797421000,2.191421142578125,-0.00827657151967287,0.005337241105735302,0.002111886627972126
1772702712807470800,2.201470947265625,-0.007093595806509256,0.010400709696114063,0.0016293219523504376
1772702712817521000,2.21152099609375,-0.004821919370442629,0.014446849934756756,0.0011640676530078053
1772702712827571000,2.221571044921875,-0.005901032127439976,0.0185297429561615,-0.0005222458858042955
1772702712837621000,2.23162109375,-0.0057313889265060425,0.01512861903756857,-0.00011371697473805398
1772702712847670800,2.2416708984375,-0.0051598744466900826,0.008801214396953583,-0.001103880233131349
1772702712857720800,2.251720947265625,-0.002145442645996809,0.005339904222637415,-0.0002884203568100929
1772702712867771000,2.26177099609375,-0.0011914982460439205,0.005917011294513941,-0.0011664645280689
1772702712877821000,2.271821044921875,-0.0013933659065514803,0.006823018658906221,0.0006079996819607913
1772702712887870700,2.28187060546875,0.0013957626651972532,0.006490922532975674,0.0022160164080560207
1772702712897920800,2.291920654296875,-0.001264202524907887,0.007518636528402567,0.002841326640918851
1772702712907970800,2.301970703125,-0.003311907174065709,0.00609437795355916,0.0022032330743968487
1772702712918020900,2.312020751953125,-0.003001648932695389,0.005143363028764725,-0.001270061475224793
1772702712928071000,2.32207080078125,-0.0038597192615270615,-0.0028703550342470407,-0.0022951122373342514
1772702712938121000,2.332120849609375,-0.005691175349056721,-0.008449943736195564,-0.0036916739773005247
1772702712948171000,2.3421708984375,-0.003996339626610279,-0.008227569982409477,-0.0015185344964265823
1772702712958221000,2.352220947265625,-0.0032980586402118206,0.00034700988908298314,-0.0030511836521327496
1772702712968271000,2.36227099609375,-0.0023989754263311625,0.004585164599120617,-0.0016522251535207033
1772702712978321200,2.372321044921875,-0.0025100293569266796,0.007924235425889492,-0.0012924320762977004
1772702712988371000,2.382370849609375,-0.0023699470330029726,0.010604174807667732,-0.0004945489927195013
1772702712998421000,2.3924208984375,0.0006053365068510175,0.010661166161298752,0.0014500912511721253
1772702713008470000,2.402469970703125,-0.002865028567612171,0.009496832266449928,-0.000922519015148282
1772702713018519800,2.412519775390625,-0.000996821210719645,0.006330866366624832,-0.0027172232512384653
1772702713028569900,2.42256982421875,-0.0013555489713326097,-0.0017598168924450874,-0.0013403689954429865
1772702713038620000,2.432619873046875,-0.0028959212359040976,0.0010689928894862533,-0.0038181741256266832
1772702713048670000,2.442669921875,-0.0028844696935266256,-0.001017593895085156,-0.0007603325066156685
1772702713058720000,2.452719970703125,0.0013004215434193611,-0.0003992078418377787,0.0007129282457754016
1772702713068770000,2.46277001953125,-0.0009776464430615306,0.0051681301556527615,0.0007816377910785377
1772702713078820000,2.472820068359375,-0.0007821703911758959,0.007977232336997986,-0.00011052118497900665
1772702713088870100,2.4828701171875,0.0009507485083304346,0.008537028916180134,0.0014447649009525776
1772702713098920200,2.492920166015625,-0.000005060006060375599,0.006493585649877787,0.0024791366886347532
1772702713108970000,2.502969970703125,-0.0006833671359345317,0.0029225528705865145,0.00019361180602572858
1772702713119020000,2.51302001953125,-0.0011262508342042565,0.005002215504646301,-0.0001597896625753492
1772702713129070000,2.523070068359375,0.0016314524691551924,0.0006870955694466829,0.0007816377910785377
1772702713139120000,2.5331201171875,0.000782436749432236,-0.0026940538082271814,0.0018125474452972412
1772702713149170000,2.543169921875,0.0002061286650132388,0.00015339808305725455,0.0017129451734945178
1772702713159220000,2.553219970703125,-0.0012314456980675459,0.006584399379789829,0.0035143073182553053
1772702713169270000,2.56327001953125,-0.0035124430432915688,0.008045942522585392,0.00112465291749686
1772702713179320000,2.573320068359375,-0.001130245509557426,0.008726379834115505,0.0028455876745283604
1772702713189369900,2.583369873046875,-0.001986984396353364,0.007903729565441608,0.004459463059902191
1772702713199420000,2.593419921875,-0.0027750139124691486,0.007389739155769348,0.004533232655376196
1772702713209470000,2.603469970703125,-0.0038365498185157776,0.005542304366827011,0.0028008464723825455
1772702713219520000,2.61352001953125,-0.002266882685944438,0.008709868416190147,0.003103115363046527
1772702713229569800,2.62356982421875,0.0008317052270285785,0.009104282595217228,0.005724730901420116
1772702713239619000,2.633619140625,-0.003427221905440092,0.009534116834402084,0.0063005066476762295
1772702713249669000,2.643669189453125,-0.0027329358272254467,0.015331552363932133,0.005419000051915646
1772702713259719000,2.653718994140625,-0.0022535668686032295,0.01684902049601078,0.00401471508666873
1772702713269769000,2.66376904296875,-0.0018349179299548268,0.010280334390699863,0.00743234995752573
1772702713279819000,2.673819091796875,-0.002829342382028699,0.002775546396151185,0.005593969952315092
1772702713289869000,2.683869140625,-0.003141731023788452,0.007169495802372694,0.004542287439107895
1772702713299918800,2.6939189453125,-0.0029904635157436132,0.006487726699560881,0.002085787709802389
1772702713309969000,2.703968994140625,-0.004553206264972687,0.0048975530080497265,0.0035236284602433443
1772702713320019000,2.71401904296875,-0.004549211822450161,0.008871521800756454,0.003945473115891218
1772702713330069000,2.724069091796875,-0.003570766421034932,0.008638761937618256,0.004730040207505226
1772702713340118800,2.734118896484375,-0.0036916739773005247,0.010982343927025795,0.003350256709381938
1772702713350168800,2.7441689453125,-0.0035958001390099525,0.014826882630586624,0.0029561088886111975
1772702713360219000,2.754218994140625,-0.0041305627673864365,0.013427924364805222,0.00404480891302228
1772702713370269200,2.764269287109375,-0.004059722647070885,0.012614062055945396,0.0035430695861577988
1772702713380319000,2.774319091796875,-0.005805957596749067,0.006558300461620092,0.006872819736599922
1772702713390369000,2.784369140625,-0.005115932319313288,0.009258479811251163,0.0057343184016644955
1772702713400419000,2.794419189453125,-0.004802212119102478,0.004320978652685881,0.006954578682780266
1772702713410469000,2.80446923828125,-0.0024778051301836967,0.0007488809060305357,0.003192331176251173
1772702713420519000,2.814518798828125,-0.0033364081755280495,0.005869340617209673,0.006562827620655298
1772702713430569000,2.82456884765625,-0.002951048780232668,0.016450079157948494,0.006334861274808645
1772702713440619000,2.834618896484375,-0.00101173494476825,0.01895984262228012,0.006739395204931498
1772702713450669000,2.8446689453125,-0.00247594085521996,0.0195502657443285,0.0005994775565341115
1772702713460719000,2.854718994140625,-0.00034647725988179445,0.0164807066321373,0.004400873556733131
1772702713470769000,2.864768798828125,0.000003994741746282671,0.016028767451643944,0.002927879337221384
1772702713480819000,2.87481884765625,-0.002755306428298354,0.018211228772997856,0.0044112601317465305
1772702713490868000,2.884867919921875,-0.0016567525453865528,0.011328554712235928,0.004342816770076752
1772702713500918000,2.89491796875,-0.0004058657505083829,0.006901848129928112,0.00010812433902174234
1772702713510968000,2.904968017578125,-0.0006428870838135481,0.006994792725890875,0.0015017564874142408
1772702713521018000,2.91501806640625,-0.00022770027862861753,0.007977765053510666,0.0031886028591543436
1772702713531068200,2.925068115234375,0.0013156015193089843,0.007268032990396023,-0.0015736619243398309
1772702713541118000,2.935117919921875,0.0025329324416816235,0.011522432789206505,-0.005573197267949581
1772702713551168000,2.94516796875,0.001981924520805478,0.01569826900959015,-0.004187820944935083
1772702713561218000,2.955218017578125,0.0038360171020030975,0.01255014631897211,-0.007276022341102362
1772702713571268000,2.96526806640625,0.0038104509003460407,0.008474977687001228,-0.006613694131374359
1772702713581318000,2.97531787109375,0.0027944548055529594,0.005028048064559698,-0.00803022924810648
1772702713591368000,2.985367919921875,0.0015835155500099063,0.0005507417372427881,-0.007308779284358025
1772702713601418000,2.99541796875,0.002877012826502323,0.001064731739461422,-0.014101704582571983
1772702713611468000,3.005468017578125,0.0018791264155879617,-0.0006559365428984165,-0.009377788752317429
1772702713621517800,3.015517822265625,0.0019592875614762306,-0.00009880327706923708,-0.013652961701154709
1772702713631568000,3.02556787109375,0.0007512777228839695,0.0026136261876672506,-0.011083543300628662
1772702713641618000,3.035617919921875,0.0031414648983627558,0.00675191218033433,-0.014436463825404644
1772702713651668000,3.04566796875,0.0026431872975081205,0.014166153036057949,-0.010066748596727848
1772702713661718000,3.055718017578125,0.003742273896932602,0.010233729146420956,-0.00993305817246437
1772702713671768000,3.06576806640625,0.005644835997372866,0.007540207821875811,-0.010632137767970562
1772702713681818000,3.075818115234375,0.0017534252256155014,0.0029577065724879503,-0.007635282818228006
1772702713691868200,3.0858681640625,0.0003374225052539259,0.007144995033740997,-0.010801248252391815
1772702713701918000,3.09591796875,0.003317766124382615,0.006310626398772001,-0.011540275998413563
1772702713711968000,3.105968017578125,0.0016130766598507762,0.004624579101800919,-0.007879228331148624
1772702713722017000,3.11601708984375,0.0017896442441269755,0.0028479844331741333,-0.00848802737891674
1772702713732067000,3.126067138671875,0.001270594191737473,0.0072866748087108135,-0.005593170877546072
1772702713742116900,3.136116943359375,0.002570216776803136,0.010477674193680286,-0.008925584144890308
1772702713752167000,3.1461669921875,-0.00011957593233091757,0.007408115081489086,-0.008389489725232124
1772702713762217000,3.156217041015625,0.0008269115351140499,0.005140966270118952,-0.008346347138285637
1772702713772267000,3.16626708984375,0.0029939257074147463,0.005360410548746586,-0.0010695254895836115
1772702713782316800,3.17631689453125,0.001975000137463212,0.0012122709304094315,0.002859169617295265
1772702713792367000,3.1863671875,0.002192580606788397,0.0017307883827015758,0.007051517721265554
1772702713802417200,3.196417236328125,-0.00046631949953734875,0.012596218846738338,0.0057007623836398125
1772702713812467200,3.20646728515625,0.0015576828736811876,0.02046532742679119,0.002341983839869499
1772702713822517000,3.21651708984375,-0.0003094593121204525,0.022279206663370132,0.00014514227223116904
1772702713832567000,3.226567138671875,-0.0008961536805145442,0.019666112959384918,-0.0018977685831487179
1772702713842617000,3.2366171875,-0.0019038938917219639,0.014480938203632832,-0.0035483958199620247
1772702713852667100,3.246667236328125,-0.0036338833160698414,0.00980362854897976,-0.0031827439088374376
1772702713862717000,3.256717041015625,-0.0029734193813055754,0.011119229719042778,-0.0033726270776242018
1772702713872767000,3.26676708984375,-0.0035321505274623632,0.016356335952878,-0.00481446273624897
1772702713882817000,3.276817138671875,-0.0013259878614917397,0.023558588698506355,-0.009274192154407501
1772702713892867000,3.2868671875,0.0024775387719273567,0.02070554532110691,-0.007734085898846388
1772702713902916900,3.296916748046875,-0.001668736687861383,0.017792046070098877,-0.010100836865603924
1772702713912967000,3.306966796875,0.00031878036679700017,0.02040913514792919,-0.011771705001592636
1772702713923017200,3.317017333984375,-0.0027182884514331818,0.019145730882883072,-0.013034575618803501
1772702713933067300,3.3270673828125,-0.0014929680619388819,0.01660108007490635,-0.016329437494277954
1772702713943117300,3.337117431640625,0.0024077638518065214,0.018930282443761826,-0.016114788129925728
1772702713953167400,3.34716748046875,0.0003062635369133204,0.0157704409211874,-0.014821822755038738
1772702713963216400,3.35721630859375,-0.0005169195355847478,0.007742874324321747,-0.01677791401743889
1772702713973266400,3.367266357421875,-0.0005281048361212015,0.0031406658235937357,-0.018333200365304947
1772702713983316500,3.37731640625,0.00014381069922819734,0.0036453348584473133,-0.02069462649524212
1772702713993366500,3.387366455078125,0.0005376922199502587,0.0009142631897702813,-0.019208582118153572
1772702714003416300,3.397416259765625,0.0005909554311074317,0.004944424610584974,-0.018734006211161613
1772702714013466400,3.40746630859375,0.000030360035452758893,0.008749815635383129,-0.017704961821436882
1772702714023516400,3.417516357421875,0.003171292133629322,0.013366139493882656,-0.015234346501529217
1772702714033566500,3.42756640625,-0.001654622028581798,0.015388543717563152,-0.013591175898909569
1772702714043616300,3.4376162109375,0.0011102718999609351,0.014926484785974026,-0.00851199496537447
1772702714053666300,3.447666259765625,-0.002662362065166235,0.014270282350480556,-0.006612629164010286
1772702714063716400,3.45771630859375,-0.002551840851083398,0.010371414013206959,-0.007757255341857672
1772702714073766400,3.467766357421875,-0.0017720673931762576,0.010000968351960182,-0.0014125406742095947
1772702714083816200,3.477816162109375,-0.0004122573300264776,0.00740358792245388,0.0012181298807263374
1772702714093866200,3.4878662109375,-0.004791559185832739,0.013141634874045849,-0.000041545314161339775
1772702714103916300,3.497916259765625,-0.001630387152545154,0.019284747540950775,-0.0008500810363329947
1772702714113966600,3.507966552734375,-0.005791310220956802,0.023627031594514847,0.0013411679537966847
1772702714124016400,3.518016357421875,-0.005471996963024139,0.02917439676821232,0.003477289341390133
1772702714134066400,3.52806640625,-0.002650910522788763,0.023729298263788223,0.001826662220992148
1772702714144116500,3.538116455078125,-0.005242432467639446,0.01824212074279785,0.002313754288479686
1772702714154166500,3.54816650390625,-0.004531901329755783,0.012499280273914337,-0.0006838997360318899
1772702714164216300,3.55821630859375,-0.008104798384010792,0.010550378821790218,-0.0007904262165538967
1772702714174266400,3.568266357421875,-0.005913282744586468,0.006895190104842186,0.003641340183094144
1772702714184316400,3.57831640625,-0.007773500867187977,0.009156480431556702,0.002341983839869499
1772702714194366500,3.588366455078125,-0.007743140682578087,0.016588296741247177,0.0012476909905672073
1772702714204415200,3.598415283203125,-0.008285360410809517,0.027949076145887375,-0.0004964132094755769
1772702714214465300,3.60846533203125,-0.0039017973467707634,0.02377590350806713,0.0012727247085422277
1772702714224515300,3.618515380859375,-0.00461579067632556,0.016379239037632942,0.00022290658671408892
1772702714234565400,3.6285654296875,-0.0006740460521541536,0.010290454141795635,0.004537227563560009
1772702714244615400,3.638615478515625,-0.00239231763407588,0.008587629534304142,-0.000511593243572861
1772702714254665500,3.64866552734375,0.0003091930120717734,0.005107942968606949,0.0033182986080646515
1772702714264715500,3.658715576171875,-0.005300755612552166,0.008764729835093021,0.0013763216556981206
1772702714274765300,3.668765380859375,-0.005797967780381441,0.011742143891751766,0.002260757377371192
1772702714284815400,3.6788154296875,-0.0057444386184215546,0.013621802441775799,0.005256547126919031
1772702714294865400,3.688865478515625,-0.004354001954197884,0.010232930071651936,0.0035960664972662926
1772702714304915500,3.69891552734375,-0.0031433289404958487,0.0008380967774428427,0.0036709012929350138
1772702714314965200,3.70896533203125,-0.0068419273011386395,-0.0005368932615965605,0.004150270018726587
1772702714325015300,3.719015380859375,-0.003413107246160507,0.0043444144539535046,0.0014554174849763513
1772702714335065300,3.7290654296875,-0.0043899547308683395,0.006735667120665312,0.00535614974796772
1772702714345115400,3.739115478515625,-0.0026495789643377066,0.009719472378492355,0.003418167121708393
1772702714355165400,3.74916552734375,-0.0019526296528056264,0.013455887325108051,0.005937783978879452
1772702714365215200,3.75921533203125,-0.001133441342972219,0.012117116712033749,0.005124720744788647
1772702714375265300,3.769265380859375,-0.0037113812286406755,0.009527725167572498,0.0049159289337694645
1772702714385315300,3.7793154296875,-0.0007179882377386093,0.007926632650196552,0.002638926263898611
1772702714395365400,3.789365478515625,-0.0029646309558302164,0.006165483966469765,0.0017358483746647835
1772702714405415400,3.79941552734375,-0.0033129723742604256,0.0005147890187799931,-0.00004340952364145778
1772702714415465500,3.809465576171875,-0.0033222935162484646,-0.006968959700316191,-0.0025747441686689854
1772702714425515500,3.819515625,-0.00028096348978579044,-0.0036783581599593163,-0.001907355966977775
1772702714435565600,3.829565673828125,-0.00034647725988179445,0.0008767126128077507,-0.0024716798216104507
1772702714445614300,3.8396142578125,0.0008932242053560913,0.0036613137926906347,-0.0007507451227866113
1772702714455664400,3.849664306640625,-0.00010679275874281302,0.00666269613429904,-0.0016841830220073462
1772702714465714400,3.85971435546875,0.004209125880151987,0.0035960664972662926,-0.000794420950114727
1772702714475764200,3.86976416015625,0.004490888677537441,0.0008103998843580484,-0.0011057445080950856
1772702714485814300,3.879814208984375,0.0036666402593255043,0.0010498181218281388,-0.003032541600987315
1772702714495864300,3.8898642578125,-0.0012905678013339639,0.0001323590986430645,-0.007712780963629484
1772702714505914400,3.899914306640625,0.0006735134520567954,-0.006584932096302509,-0.0032890038564801216
1772702714515964200,3.909964111328125,0.001499359728768468,-0.006052299868315458,-0.004098072182387114
1772702714526014200,3.92001416015625,0.0007805725326761603,-0.003593669505789876,-0.002490321872755885
1772702714536064500,3.930064453125,0.0009768474847078323,0.0023073628544807434,-0.0065111625008285046
1772702714546114600,3.940114501953125,0.0034645062405616045,0.0016157397767528892,-0.0041673146188259125
1772702714556164400,3.950164306640625,0.0008130630594678223,0.0012202603975310922,-0.0014077469240874052
1772702714566214400,3.96021435546875,0.0003336940717417747,0.006623547989875078,-0.0015694007743149996
1772702714576264400,3.970264404296875,0.0007800398743711412,0.004085821565240622,-0.0021204089280217886
1772702714586314500,3.980314453125,-0.0005158542771823704,0.00595615990459919,-0.005526059307157993
1772702714596364300,3.9903642578125,0.0002814961189869791,0.0026402578223496675,-0.002810966456308961
1772702714606414300,4.000414306640625,0.002073803450912237,0.0037238982040435076,-0.0012293151812627912
1772702714616464400,4.01046435546875,0.0023129554465413094,0.0037446708884090185,0.0010050770360976458
1772702714626514400,4.020514404296875,0.0030479878187179565,0.006040315609425306,-0.0035444011446088552
1772702714636564200,4.030564208984375,0.0011347729014232755,0.006729275453835726,-0.0068419273011386395
1772702714646614300,4.0406142578125,-0.0002663161139935255,0.006807039491832256,-0.005985986907035112
1772702714656664300,4.050664306640625,0.0034256239887326956,0.008005994372069836,-0.0009773800848051906
1772702714666714400,4.06071435546875,0.0009318400407209992,0.007697867229580879,-0.0024857944808900356
1772702714676764200,4.07076416015625,-0.0019419770687818527,0.006368949543684721,-0.0015893745003268123
1772702714686813400,4.0808134765625,-0.0014271880500018597,0.0012897689593955874,-0.0032083101104944944
1772702714696863500,4.090863525390625,-0.002713228575885296,-0.0001739044237183407,-0.006981210317462683
1772702714706913500,4.10091357421875,-0.0021736719645559788,0.0011920308461412787,-0.004583566449582577
1772702714716963300,4.11096337890625,-0.0017659420846030116,0.007225422188639641,-0.0021140172611922026
1772702714727013400,4.121013427734375,-0.004655472002923489,0.009317335672676563,0.0017994979862123728
1772702714737063400,4.1310634765625,-0.0008189220097847283,0.00737216230481863,0.0026407905388623476
1772702714747113500,4.141113525390625,-0.001166198286227882,0.007978031411767006,-0.00020639497961383313
1772702714757163300,4.151163330078125,0.0006841660942882299,0.01170352753251791,-0.0005052016349509358
1772702714767213300,4.16121337890625,-0.0023638217244297266,0.01702372543513775,-0.0001525991247035563
1772702714777263400,4.171263427734375,-0.002799781272187829,0.018039453774690628,0.00026498452643863857
1772702714787313400,4.1813134765625,-0.004337224178016186,0.019407520070672035,-0.0036791570018976927
1772702714797363200,4.19136328125,-0.0030154972337186337,0.01757766120135784,-0.004771052859723568
1772702714807413200,4.201413330078125,-0.0030474551022052765,0.007613178342580795,-0.0007057376787997782
1772702714817463300,4.21146337890625,-0.005049353465437889,0.0032945964485406876,-0.0019765980541706085
1772702714827513300,4.221513427734375,-0.00785419438034296,0.002799514913931489,-0.004776645917445421
1772702714837563400,4.2315634765625,-0.008537295274436474,0.004517520312219858,-0.0020445086993277073
1772702714847613400,4.241613525390625,-0.004852279555052519,0.007227818947285414,-0.002472212305292487
1772702714857663500,4.25166357421875,-0.005130846053361893,0.007193730678409338,0.002814162289723754
1772702714867713500,4.261713623046875,0.0026234800461679697,0.011748269200325012,0.0046421559527516365
1772702714877763300,4.271763427734375,-0.0006609965930692852,0.01671905815601349,0.004343083128333092
1772702714887813400,4.2818134765625,0.0012482235906645656,0.021280255168676376,0.005170261021703482
1772702714897863400,4.291863525390625,-0.0015515576815232635,0.019724436104297638,0.0057220677845180035
1772702714907913500,4.30191357421875,-0.0009408948244526982,0.010064885020256042,0.003996872343122959
1772702714917963500,4.311963623046875,-0.00008149272616719827,0.00020373181905597448,0.003436276689171791
1772702714928013600,4.322013671875,-0.002662362065166235,0.005060805007815361,0.0017725999932736158
1772702714938063400,4.3320634765625,-0.000046072687837295234,0.0025268071331083775,0.0011877698125317693
1772702714948113400,4.342113525390625,-0.0015552861150354147,0.00510021997615695,-0.00045087316539138556
1772702714958162400,4.352162353515625,-0.0005081311101093888,0.006864830385893583,0.0008908273885026574
1772702714968212500,4.36221240234375,-0.0010162622202187777,0.007299458142369986,0.00031878036679700017
1772702714978262500,4.372262451171875,-0.002031459240242839,0.00908457487821579,-0.0008082693675532937
1772702714988312600,4.3823125,-0.0015209312550723553,0.009285110980272293,0.0012679309584200382
1772702714998362600,4.392362548828125,-0.00024527712957933545,0.006888798903673887,0.00017976337403524667
1772702715008412400,4.402412353515625,-0.0009150621481239796,0.0076238312758505344,0.0004596615908667445
1772702715018462500,4.41246240234375,0.00024181502521969378,0.005568936001509428,0.002116147894412279
1772702715028512500,4.422512451171875,-0.0005054679932072759,0.014157896861433983,-0.00043516053119674325
1772702715038562600,4.4325625,0.001407214323990047,0.012629508972167969,-0.0014945659786462784
1772702715048612400,4.4426123046875,-0.0007371630053967237,0.00800093449652195,0.0024687503464519978
1772702715058662400,4.452662353515625,-0.001627191435545683,0.005813946947455406,-0.002344913315027952
1772702715068712400,4.46271240234375,0.0008996158139780164,0.0006042712484486401,0.0008729841792955995
1772702715078762500,4.472762451171875,-0.000529702752828598,0.0003382214636076242,-0.004571848548948765
1772702715088812300,4.482812255859375,-0.0005693838465958834,0.0004809668753296137,-0.006527940277010202
1772702715098862300,4.4928623046875,0.0018136126454919577,0.005429120268672705,-0.004501274786889553
1772702715108912400,4.502912353515625,-0.000019707391402334906,0.008787366561591625,-0.0013936321483924985
1772702715118962400,4.51296240234375,-0.0000958738019107841,0.008896023035049438,-0.00013928332191426307
1772702715129012200,4.52301220703125,-0.0005334311863407493,0.009307214990258217,-0.0015875103417783976
1772702715139062500,4.5330625,0.0036136433482170105,0.00717695290222764,0.0028783443849533796
1772702715149112600,4.543112548828125,0.001957689644768834,0.0013403689954429865,0.00037710359902121127
1772702715159162600,4.55316259765625,0.0027438548859208822,0.0029372002463787794,-0.00039228363311849535
1772702715169212400,4.56321240234375,0.00469515286386013,0.008761267177760601,-0.0024767396971583366
1772702715179262500,4.573262451171875,0.0005725796218030155,0.008094944059848785,0.0009001484140753746
1772702715189312500,4.5833125,-0.0015563513152301311,0.004546815063804388,0.003635747591033578
1772702715199362600,4.593362548828125,-0.0007957525085657835,0.0034756914246827364,0.003418433479964733
1772702715209412400,4.603412353515625,-0.0006937534781172872,0.0021054951939731836,0.002350239548832178
1772702715219461400,4.61346142578125,-0.00047883635852485895,0.0054240599274635315,0.0019430422689765692
1772702715229511400,4.623511474609375,-0.0014751249691471457,0.004191282670944929,0.0010317085543647408
1772702715239561500,4.6335615234375,-0.0010346380295231938,-0.000006125270374468528,0.0020397149492055178
1772702715249611300,4.643611328125,0.0018122810870409012,-0.0011765845119953156,0.004697283264249563
1772702715259661300,4.653661376953125,0.0009795106016099453,0.0036935380194336176,0.0036735644098371267
1772702715269711600,4.663711669921875,0.0006181196658872068,0.008531702682375908,-0.0002713761059567332
1772702715279761700,4.67376171875,0.0015281217638403177,0.009226255118846893,0.003025883575901389
1772702715289811500,4.6838115234375,0.001228782464750111,0.005516471806913614,0.003316700691357255
1772702715299861500,4.693861572265625,0.0013113404856994748,0.00788375549018383,0.004093811381608248
1772702715309911600,4.70391162109375,-0.0024322650860995054,0.005847768858075142,0.0031904669012874365
1772702715319961600,4.713961669921875,-0.00506906071677804,0.00535375252366066,0.00029055087361484766
1772702715330011400,4.724011474609375,-0.003931358456611633,0.003011236200109124,0.0002793656021822244
1772702715340061400,4.7340615234375,-0.0019329222850501537,0.0010122675448656082,0.00020825919636990875
1772702715350111500,4.744111572265625,0.0005411543534137309,-0.004137753508985043,0.0006135923322290182
1772702715360161500,4.75416162109375,-0.0018751317402347922,-0.0018269284628331661,0.0029590383637696505
1772702715370211300,4.76421142578125,0.00025726135936565697,0.0013334447285160422,0.0015883093001320958
1772702715380261400,4.774261474609375,-0.001091629732400179,0.007272293791174889,-0.001651426195167005
1772702715390311400,4.7843115234375,-0.0044136568903923035,0.011063836514949799,-0.005260275676846504
1772702715400361500,4.794361572265625,-0.0029819414485245943,0.01344843115657568,-0.002070873975753784
1772702715410411300,4.804411376953125,-0.004756938200443983,0.010259827598929405,-0.005298891570419073
1772702715420461300,4.81446142578125,-0.0025214808993041515,-0.000850879936479032,-0.003493002150207758
1772702715430511400,4.824511474609375,-0.0011171960504725575,-0.0013350426452234387,-0.003796602366492152
1772702715440561400,4.8345615234375,-0.002746251644566655,0.0030306773260235786,-0.0034349451307207346
1772702715450611500,4.844611572265625,-0.0041159153915941715,0.011581022292375565,-0.008493353612720966
1772702715460661500,4.85466162109375,-0.0038035267498344183,0.013040700927376747,-0.0054142065346241
1772702715470711600,4.864711669921875,-0.0019028285751119256,0.01227717287838459,-0.001988049829378724
1772702715480761600,4.87476171875,-0.004042412154376507,0.01636113040149212,-0.0032317459117621183
1772702715490810400,4.884810302734375,-0.003980094101279974,0.017014402896165848,-0.0019419770687818527
1772702715500860400,4.8948603515625,-0.007924768142402172,0.008946357294917107,-0.004910602699965239
1772702715510910500,4.904910400390625,-0.005489840172231197,0.0034091125708073378,-0.002650644164532423
1772702715520960300,4.914960205078125,-0.0072776200249791145,-0.0015981629258021712,-0.003145193215459585
1772702715531010300,4.92501025390625,-0.0046725161373615265,-0.002569417702034116,-0.004175570327788591
1772702715541060400,4.935060302734375,-0.0007350324303843081,-0.0010777813149616122,-0.002496180823072791
1772702715551110400,4.9451103515625,-0.0026101642288267612,0.0004069310089107603,-0.0023752732668071985
1772702715561160400,4.955160400390625,-0.0024197481106966734,-0.0016564861871302128,-0.004641357343643904
1772702715571210500,4.96521044921875,0.00016937704640440643,0.0016671388875693083,-0.004166781902313232
1772702715581260500,4.975260498046875,0.0023347933311015368,0.008885903283953667,-0.002846919232979417
1772702715591310600,4.985310546875,0.00037204360705800354,0.01206678245216608,-0.0068022459745407104
1772702715601360600,4.995360595703125,-0.0020642161834985018,0.005771602503955364,-0.008044610731303692
1772702715611410400,5.005410400390625,-0.0031337416730821133,-0.00026791400159709156,-0.006506635341793299
1772702715621460500,5.01546044921875,-0.005615541245788336,-0.009772202931344509,-0.005498894955962896
1772702715631510500,5.025510498046875,-0.005917011294513941,-0.014312094077467918,-0.008052600547671318
1772702715641560600,5.035560546875,-0.007199855986982584,-0.01061855535954237,-0.005592638161033392
1772702715651610400,5.0456103515625,-0.003698331769555807,-0.00484269205480814,-0.005335377063602209
1772702715661660400,5.055660400390625,-0.007426491007208824,0.003998470026999712,-0.0012721919920295477
1772702715671710500,5.06571044921875,-0.005029646214097738,0.007399593014270067,0.0036458675749599934
1772702715681760500,5.075760498046875,-0.006536195985972881,0.013362943194806576,0.0031968585681170225
1772702715691810300,5.085810302734375,0.0004703142330981791,0.014977618120610714,0.0030503845773637295
1772702715701860400,5.0958603515625,-0.0021670141723006964,0.01763092540204525,0.004483165219426155
1772702715711910400,5.105910400390625,-0.004394481889903545,0.015313709154725075,0.003935087006539106
1772702715721960400,5.11596044921875,-0.004806206561625004,0.01010802760720253,0.004865328781306744
1772702715732010200,5.12601025390625,-0.004237089306116104,0.003724164329469204,0.003943342715501785
1772702715742060500,5.136060546875,-0.0038655782118439674,0.006332997232675552,0.007178816944360733
1772702715752110600,5.146110595703125,-0.005122057627886534,0.0062336609698832035,0.010160758160054684
1772702715762159400,5.156159423828125,-0.004825381562113762,0.007633951026946306,0.008009457029402256
1772702715772209400,5.16620947265625,-0.0039145806804299355,0.011770373210310936,0.008373777382075787
1772702715782259500,5.176259521484375,-0.0012386362068355083,0.013990916311740875,0.01197011023759842
1772702715792309500,5.1863095703125,-0.00169563468080014,0.011122692376375198,0.012414325028657913
1772702715802359300,5.196359375,-0.00452897185459733,0.014779211953282356,0.011606322601437569
1772702715812409300,5.206409423828125,-0.001826662220992148,0.010480870492756367,0.009368734434247017
1772702715822459400,5.21645947265625,-0.0023494407068938017,0.006051767151802778,0.012909673154354095
1772702715832509400,5.226509521484375,-0.003290335414931178,0.0049462891183793545,0.012208196334540844
1772702715842559200,5.236559326171875,-0.002547047333791852,0.009066198952496052,0.009836385026574135
1772702715852609300,5.246609375,-0.002130262553691864,0.011609251610934734,0.011034808121621609
1772702715862659300,5.256659423828125,-0.006313822232186794,0.008953547105193138,0.010926949791610241
1772702715872709600,5.266709716796875,-0.004977714270353317,0.006342051550745964,0.009180715307593346
1772702715882759400,5.276759521484375,-0.0037473340053111315,0.0060211410745978355,0.011153851635754108
1772702715892809500,5.2868095703125,-0.0055063520558178425,0.00401657959446311,0.007231014780700207
1772702715902859500,5.296859619140625,-0.003480751533061266,0.003114833263680339,0.008402539417147636
1772702715912909600,5.30690966796875,-0.005819805897772312,0.004845355171710253,0.009179117158055305
1772702715922959000,5.316958984375,-0.0036916739773005247,0.004298874642699957,0.011187939904630184
1772702715933008100,5.327008056640625,-0.0007574030314572155,0.012064652517437935,0.014214355498552322
1772702715943058000,5.337057861328125,-0.0005693838465958834,0.012234295718371868,0.01284735556691885
1772702715953108000,5.34710791015625,-0.0029467877466231585,0.009194829501211643,0.013193832710385323
1772702715963158000,5.357157958984375,0.00029827404068782926,0.006764695513993502,0.01272991020232439
1772702715973208000,5.3672080078125,-0.0007427555974572897,0.007223824504762888,0.014872689731419086
1772702715983258000,5.377258056640625,0.0043657198548316956,0.006872553378343582,0.012115784920752048
1772702715993308200,5.38730810546875,0.0006988134700804949,0.007761782966554165,0.007025951519608498
1772702716003358200,5.397358154296875,0.0025651566684246063,0.005935653578490019,0.006402505561709404
1772702716013408300,5.407408203125,0.005652293097227812,0.003724164329469204,0.006060022860765457
1772702716023458000,5.4174580078125,0.007821704261004925,0.005652293097227812,0.007168430835008621
1772702716033508000,5.427508056640625,0.0054735951125621796,0.008351673372089863,0.0010468886466696858
1772702716043558100,5.43755810546875,0.0037089844699949026,0.015738217160105705,-0.0000428768944402691
1772702716053608200,5.447608154296875,0.002814695006236434,0.014783740043640137,0.00037204360705800354
1772702716063658000,5.457657958984375,0.004189951345324516,0.004204865079373121,-0.0037462685722857714
1772702716073708000,5.4677080078125,0.0013422331539914012,-0.0025033713318407536,-0.006637929007411003
1772702716083758000,5.477758056640625,0.0019110844004899263,-0.006399043370038271,-0.008933840319514275
1772702716093808000,5.48780810546875,0.0052019525319337845,-0.00740225613117218,-0.010470218025147915
1772702716103858000,5.49785791015625,0.0020932445768266916,-0.008069111965596676,-0.012117649428546429
1772702716113908000,5.507907958984375,0.004263720940798521,0.00007190534961409867,-0.012030829675495625
1772702716123957200,5.517957275390625,0.004935636185109615,0.0022234732750803232,-0.011378355324268341
1772702716134007000,5.528007080078125,0.004367584362626076,0.006595051847398281,-0.01028512790799141
1772702716144057000,5.53805712890625,0.005554288625717163,0.011534150689840317,-0.009311476722359657
1772702716154107100,5.548107177734375,0.004000600427389145,0.0035422705113887787,-0.013312343508005142
1772702716164157200,5.5581572265625,0.005675728898495436,0.002986735198646784,-0.010264622047543526
1772702716174207000,5.56820703125,0.002493517706170678,0.00759906368330121,-0.011457984335720539
1772702716184257000,5.578257080078125,0.0012695288751274347,0.006325540132820606,-0.01188169326633215
1772702716194307000,5.58830712890625,0.0021667478140443563,0.0021909826900810003,-0.008251272141933441
1772702716204357000,5.598357177734375,0.0025875272694975138,0.004287955816835165,-0.003308444982394576
1772702716214407000,5.608406982421875,-0.0009416937828063965,0.013034042902290821,-0.007790012285113335
1772702716224457000,5.61845703125,0.0022660838440060616,0.011566108092665672,-0.004060788080096245
1772702716234507000,5.628507080078125,0.0005222458858042955,0.013509949669241905,-0.007071491796523333
1772702716244557000,5.63855712890625,0.002246110001578927,0.006079996936023235,-0.004914863966405392
1772702716254606800,5.64860693359375,0.0033451966010034084,0.0062640211544930935,-0.005927397403866053
1772702716264657000,5.658656982421875,0.0039020637050271034,0.010656639002263546,-0.0023933828342705965
1772702716274707200,5.668707275390625,0.004532167688012123,0.010778877884149551,-0.006128998938947916
1772702716284757200,5.67875732421875,0.002226402750238776,0.0036605149507522583,-0.0028634308837354183
1772702716294807000,5.68880712890625,-0.0005581985460594296,0.007597998715937138,-0.005527923349291086
1772702716304857000,5.698857177734375,0.002019741339609027,0.01221352256834507,-0.005735650192946196
1772702716314907100,5.7089072265625,-0.0020572920329868793,0.010544253513216972,-0.00643765926361084
1772702716324957200,5.718957275390625,-0.0030029804911464453,0.003808053908869624,-0.010207097046077251
1772702716335007200,5.72900732421875,-0.0007163903210312128,0.0027656927704811096,-0.004050135146826506
1772702716345057000,5.73905712890625,-0.00415453128516674,0.007242732681334019,-0.0044203149154782295
1772702716355107000,5.749107177734375,-0.0012149340473115444,0.0086041409522295,-0.005283977836370468
1772702716365157000,5.7591572265625,0.00015339808305725455,0.007252852898091078,-0.003014432033523917
1772702716375207200,5.769207275390625,-0.00019627496658358723,0.011479555629193783,-0.005532450973987579
1772702716385257000,5.779257080078125,-0.0013430321123450994,0.012777847237884998,-0.0036490634083747864
1772702716395307000,5.78930712890625,-0.00015952334797475487,0.010269948281347752,-0.000431432097684592
1772702716405357000,5.799357177734375,-0.002820287598297,0.00845526996999979,-0.0024056334514170885
1772702716415407000,5.809406982421875,-0.004733502399176359,0.006388390902429819,0.00036751621519215405
1772702716425457000,5.819456787109375,-0.0037462685722857714,0.010192716494202614,-0.0006799050024710596
1772702716435507000,5.8295068359375,-0.0031473238486796618,0.006714361719787121,-0.0015491608064621687
1772702716445557000,5.839556884765625,-0.0033848776947706938,0.008607069961726665,-0.0037846181076020002
1772702716455607300,5.849607177734375,-0.004181695636361837,0.006155630573630333,-0.0015033544041216373
1772702716465657000,5.859656982421875,-0.0014508900931105018,0.007698133587837219,-0.002267415402457118
1772702716475707100,5.86970703125,-0.00350392097607255,0.013042032718658447,-0.002400839701294899
1772702716485756200,5.879756103515625,0.00016831177345011383,0.013039901852607727,-0.0017124125733971596
1772702716495806000,5.889805908203125,-0.0037113812286406755,0.014118748717010021,-0.0017270599491894245
1772702716505856000,5.89985595703125,-0.004566788673400879,0.023441409692168236,-0.005131378769874573
1772702716515906000,5.909906005859375,-0.006286125164479017,0.024141555652022362,-0.005154281854629517
1772702716525956000,5.9199560546875,-0.0049337721429765224,0.016765929758548737,-0.004555070772767067
1772702716536006000,5.930005859375,-0.006025934591889381,0.011010306887328625,-0.000322775129461661
1772702716546056000,5.940055908203125,-0.0057042245753109455,0.00774740194901824,0.000764593540225178
1772702716556106000,5.95010595703125,-0.006176136899739504,0.009364739991724491,-0.0008964200387708843
1772702716566156000,5.960156005859375,-0.008016647771000862,0.009591374546289444,0.00038056570338085294
1772702716576206000,5.9702060546875,-0.004313788376748562,0.00920228660106659,0.0007653924985788763
1772702716586256100,5.980256103515625,-0.0031164311803877354,0.016936372965574265,0.003370763035491109
1772702716596306200,5.99030615234375,-0.0031609057914465666,0.02528112195432186,0.0014764565275982022
1772702716606356200,6.000356201171875,-0.004565989598631859,0.024884844198822975,-0.0011033476330339909
1772702716616406000,6.010406005859375,-0.004322310443967581,0.021930333226919174,-0.0028820729348808527
1772702716626456000,6.0204560546875,-0.006429936271160841,0.016384832561016083,-0.004058391321450472
1772702716636506000,6.030506103515625,-0.004150536376982927,0.010206032544374466,-0.002478337613865733
1772702716646556200,6.04055615234375,-0.005453355144709349,0.004577441141009331,-0.0038128476589918137
1772702716656606000,6.05060595703125,-0.0065559037029743195,0.012720854952931404,-0.002117745578289032
1772702716666656000,6.060656005859375,-0.00307595101185143,0.01155891828238964,-0.002739860210567713
1772702716676706000,6.0707060546875,-0.0038096518255770206,0.015307317487895489,-0.004222441930323839
1772702716686756000,6.080756103515625,-0.0046874298714101315,0.01583169400691986,-0.002423742786049843
1772702716696806100,6.09080615234375,-0.0043771713972091675,0.023363113403320312,-0.005043760873377323
1772702716706856000,6.10085595703125,-0.004516987595707178,0.016749419271945953,-0.007404652889817953
1772702716716906000,6.110906005859375,-0.002141714096069336,0.01528521254658699,-0.00583631731569767
1772702716726956000,6.1209560546875,-0.0021411816123872995,0.013674000278115273,-0.0065654912032186985
1772702716737006000,6.131006103515625,-0.002013616031035781,0.013816479593515396,-0.0062882560305297375
1772702716747056000,6.14105615234375,0.00021651499264407903,0.008393751457333565,-0.0044051348231732845
1772702716757106200,6.151106201171875,-0.0028517129831016064,0.009523464366793633,-0.005402754992246628
1772702716767156200,6.16115625,0.0019076223252341151,0.010892861522734165,-0.005575594026595354
1772702716777206300,6.171206298828125,-0.0004037352045997977,0.011689945124089718,-0.0030160299502313137
1772702716787256000,6.181256103515625,-0.001847701147198677,0.021565213799476624,-0.004299407359212637
1772702716797306000,6.19130615234375,-0.0026469158474355936,0.028854018077254295,-0.0034591800067573786
1772702716807355100,6.201355224609375,-0.0034794199746102095,0.021617943421006203,-0.005950300954282284
1772702716817405000,6.211405029296875,-0.0043926178477704525,0.011382617056369781,-0.004775846842676401
1772702716827455000,6.221455078125,-0.0070371367037296295,0.009755425155162811,-0.005951898638159037
1772702716837505000,6.231505126953125,-0.006713562645018101,0.009276589378714561,-0.00350392097607255
1772702716847555000,6.24155517578125,-0.01101723127067089,0.013520069420337677,-0.003964381758123636
1772702716857604900,6.25160498046875,-0.006136988289654255,0.01864985004067421,-0.0030868700705468655
1772702716867655000,6.261655029296875,-0.005327653605490923,0.01841788925230503,0.000606668065302074
1772702716877705200,6.271705322265625,-0.005399292800575495,0.015158446505665779,0.003272492438554764
1772702716887755300,6.28175537109375,-0.004269846249371767,0.0170892383903265,0.004218447022140026
1772702716897805000,6.29180517578125,-0.004707936197519302,0.019209381192922592,0.0019409117521718144
1772702716907855000,6.301855224609375,-0.000639691308606416,0.019028818234801292,0.002660231664776802
1772702716917905200,6.3119052734375,0.000517718493938446,0.016870858147740364,0.0027300063520669937
1772702716927955200,6.321955078125,0.00022423815971706063,0.014514493755996227,0.005516738165169954
1772702716938005000,6.3320048828125,-0.0028666264843195677,0.013530190102756023,0.002814428647980094
1772702716948055000,6.342054931640625,-0.003242664970457554,0.0162961483001709,0.000857005245052278
1772702716958105000,6.35210498046875,-0.0055034225806593895,0.011157846078276634,0.007877363823354244
1772702716968155100,6.362155029296875,-0.0007281082216650248,0.004769987892359495,0.0022479742765426636
1772702716978205000,6.372204833984375,-0.004472779110074043,0.0022623552940785885,0.0028935244772583246
1772702716988255000,6.3822548828125,-0.0046149916015565395,0.004702077247202396,-0.0012271846644580364
1772702716998305000,6.392304931640625,-0.007701861672103405,0.0020362529903650284,0.0059753344394266605
1772702717008355000,6.40235498046875,-0.0038541266694664955,0.011914982460439205,0.0021869877818971872
1772702717018404900,6.41240478515625,-0.0046818372793495655,0.014335263520479202,0.00199337606318295
1772702717028455000,6.422454833984375,-0.005795038305222988,0.015727564692497253,0.0009811085183173418
1772702717038505000,6.4325048828125,-0.005049353465437889,0.016269251704216003,0.0000673779723001644
1772702717048555000,6.442554931640625,-0.005400624126195908,0.016933443024754524,-0.0010362359462305903
1772702717058605300,6.452605224609375,-0.002877279184758663,0.00794154591858387,0.004250671248883009
1772702717068655000,6.462655029296875,-0.0028519791085273027,0.006150304339826107,-0.0004886900424025953
1772702717078705200,6.472705078125,-0.0028698223177343607,0.006825681775808334,-0.000594950164668262
1772702717088755200,6.482755126953125,-0.0052442969754338264,0.0015124091878533363,-0.00015899071877356619
1772702717098805200,6.49280517578125,-0.0041039311327040195,-0.006404635962098837,0.0037446708884090185
1772702717108855000,6.50285498046875,-0.004206196404993534,-0.005239236634224653,0.0014056164072826505
1772702717118905000,6.512905029296875,-0.0019715381786227226,0.00512711750343442,0.0011440940434113145
1772702717128955100,6.522955078125,-0.004740160424262285,0.008702411316335201,-0.0034503915812820196
1772702717139004000,6.53300390625,-0.004600610584020615,0.013552027754485607,-0.0032533176708966494
1772702717149054000,6.543053955078125,-0.000657534459605813,0.01065024733543396,-0.002419215627014637
1772702717159104000,6.55310400390625,-0.0037641117814928293,0.010236658155918121,-0.00624058535322547
1772702717169154000,6.563154052734375,-0.0017118799732998013,0.008358597755432129,-0.002816825406625867
1772702717179204000,6.5732041015625,-0.005705023650079966,0.006100769154727459,-0.001674861996434629
1772702717189254100,6.583254150390625,-0.002659965306520462,0.006686132401227951,-0.003573695896193385
1772702717199304200,6.59330419921875,-0.0009446232579648495,0.004033623728901148,-0.00421258807182312
1772702717209354200,6.603354248046875,-0.0008261125767603517,0.003335609333589673,-0.0012159993639215827
1772702717219404000,6.613404052734375,-0.00458809407427907,0.008934905752539635,-0.0029609024059027433
1772702717229454000,6.6234541015625,-0.0038778288289904594,0.009319465607404709,-0.005477056838572025
1772702717239504100,6.633504150390625,-0.0020503676496446133,0.011596468277275562,-0.0031558459158986807
1772702717249554200,6.64355419921875,-0.0016580841038376093,0.014299044385552406,-0.003168895374983549
1772702717259604000,6.65360400390625,-0.0031244205310940742,0.016051670536398888,-0.0021433120127767324
1772702717269654000,6.663654052734375,-0.000743820914067328,0.016627445816993713,-0.001591505017131567
1772702717279704000,6.6737041015625,-0.0033518546260893345,0.014345915988087654,0.00021971078240312636
1772702717289754000,6.683754150390625,-0.003225354477763176,0.014123542234301567,0.00020133497309871018
1772702717299804000,6.693803955078125,-0.0029523803386837244,0.0147485863417387,-0.000642620783764869
1772702717309854000,6.70385400390625,-0.0017635452095419168,0.013140569441020489,-0.0035183019936084747
1772702717319904000,6.713904052734375,-0.0011835087789222598,0.011288607493042946,-0.002576075727120042
1772702717329954000,6.7239541015625,-0.0006953513366170228,0.013340040110051632,-0.0036221654154360294
1772702717340003800,6.73400390625,-0.0022682142443954945,0.012534167617559433,-0.005602492019534111
1772702717350054100,6.74405419921875,-0.004087153356522322,0.014713698998093605,-0.005863481666892767
1772702717360104200,6.754104248046875,-0.0033547841012477875,0.015023957006633282,-0.003766242414712906
1772702717370154200,6.764154296875,-0.0027113643009215593,0.015692677348852158,-0.00532499048858881
1772702717380204000,6.7742041015625,-0.0012088088551536202,0.010202569887042046,-0.005176119972020388
1772702717390254000,6.784254150390625,-0.00101120222825557,0.008251538500189781,-0.006586529780179262
1772702717400304000,6.79430419921875,-0.0014982944121584296,0.011499263346195221,-0.0051598744466900826
1772702717410354200,6.804354248046875,0.0012570120161399245,0.009761816821992397,-0.006237922236323357
1772702717420404000,6.814404052734375,-0.004595817066729069,0.013994112610816956,-0.006887999828904867
1772702717430454000,6.8244541015625,-0.002270078519359231,0.008461128920316696,-0.003960120491683483
1772702717440504000,6.834504150390625,-0.003126551164314151,0.004198473412543535,-0.0011731224367395043
1772702717450554000,6.84455419921875,-0.003054911969229579,0.02484969049692154,-0.006444317288696766
1772702717460604200,6.854604248046875,-0.003576891729608178,0.03743499144911766,-0.006809968966990709
1772702717470653200,6.864653076171875,-0.006275472696870565,0.017477260902523994,-0.006710633169859648
1772702717480703200,6.874703125,-0.006534065585583448,0.003709783311933279,-0.0038932752795517445
1772702717490753300,6.884753173828125,-0.00358781055547297,0.020427776500582695,-0.004977447912096977
1772702717500803000,6.894802978515625,-0.006454703398048878,0.04033144563436508,-0.007794539909809828
1772702717510853000,6.90485302734375,-0.006028331350535154,0.014297712594270706,-0.006839263718575239
1772702717520903200,6.914903076171875,-0.0029529130551964045,0.009284578263759613,0.012498214840888977
1772702717530953200,6.924953125,-0.008470715954899788,0.09846612066030502,0.1820819228887558
1772702717541003000,6.9350029296875,-0.01497974805533886,-0.0005661880713887513,0.17587915062904358
1772702717551053000,6.945052978515625,-0.004473844077438116,-0.07587265968322754,0.04260285571217537
1772702717561103000,6.95510302734375,-0.005306348204612732,0.01008113007992506,-0.011442537419497967
1772702717571153200,6.965153076171875,-0.0038282941095530987,0.02515914849936962,-0.02646995708346367
1772702717581203000,6.975202880859375,-0.0018261295044794679,-0.02406725287437439,-0.04439462721347809
1772702717591253000,6.9852529296875,-0.0016498282784596086,-0.016415458172559738,-0.05194175988435745
1772702717601303000,6.995302978515625,0.0010657970560714602,0.0031755531672388315,-0.057129330933094025
1772702717611353000,7.00535302734375,-0.0011795139871537685,0.011333348229527473,-0.05687819793820381
1772702717621403000,7.01540283203125,0.0008780442294664681,0.02201422117650509,-0.04120283201336861
1772702717631453000,7.025452880859375,0.00344479875639081,0.021434985101222992,-0.03069319762289524
1772702717641503000,7.0355029296875,-0.003186205867677927,0.01025689858943224,-0.025886457413434982
1772702717651553300,7.04555322265625,-0.004504736978560686,0.002058357233181596,-0.01895052194595337
1772702717661603000,7.05560302734375,-0.003658917034044862,-0.0075913406908512115,-0.0036735644098371267
1772702717671653000,7.065653076171875,-0.004029096569865942,-0.003988349810242653,0.00015899071877356619
