time,seconds_elapsed,z,y,x
1772702710678137000,0.07213720703125,0.004478389397263527,-0.014741094782948494,0.004726849962025881
1772702710688187000,0.082186767578125,0.0038014138117432594,-0.0010705562308430672,0.002590462565422058
1772702710698237000,0.09223681640625,0.002267407486215234,0.008453872054815292,0.005376697983592749
1772702710708287000,0.102286865234375,0.0037124387454241514,0.0043536704033613205,0.007110415492206812
1772702710718337000,0.1123369140625,0.002277693012729287,-0.00210949731990695,0.008812995627522469
1772702710728386800,0.12238671875,0.004632459953427315,-0.011465714313089848,0.011406914331018925
1772702710738436000,0.13243603515625,0.0033860872499644756,-0.01965991035103798,0.010595601052045822
1772702710748486100,0.142486083984375,0.00028377072885632515,-0.010178525000810623,0.008761482313275337
1772702710758536000,0.152535888671875,0.0005586682818830013,-0.0038235026877373457,0.004021240398287773
1772702710768586000,0.1625859375,0.0009546803194098175,-0.007074423599988222,0.004848684184253216
1772702710778636000,0.172635986328125,0.0012578284367918968,-0.008852578699588776,0.006630743853747845
1772702710788686000,0.18268603515625,0.0032077948562800884,-0.00924219936132431,0.007787354756146669
1772702710798736000,0.19273583984375,0.003991296980530024,-0.000299038365483284,0.004466925747692585
1772702710808786000,0.202785888671875,0.006687747780233622,0.006449944339692593,0.0032061850652098656
1772702710818836000,0.2128359375,0.007647221442312002,-0.006749368272721767,0.0035861136857420206
1772702710828886000,0.222885986328125,0.005666894838213921,-0.0179293192923069,0.003557617776095867
1772702710838935800,0.232935791015625,0.009251902811229229,-0.01204262487590313,0.0072777303867042065
1772702710848985900,0.24298583984375,0.009752044454216957,-0.006671295966953039,0.006219923030585051
1772702710859036000,0.253035888671875,0.01003536768257618,-0.008379999548196793,0.004769484046846628
1772702710869086000,0.2630859375,0.01039968803524971,-0.0073480247519910336,0.0006927172653377056
1772702710879135700,0.2731357421875,0.010593350976705551,-0.005879090167582035,0.0002244622737634927
1772702710889185800,0.283185791015625,0.007180509623140097,-0.015143428929150105,0.00030062865698710084
1772702710899235800,0.29323583984375,0.009583698585629463,-0.02043963223695755,-0.0023510728497058153
1772702710909286100,0.3032861328125,0.008210038766264915,-0.0146001186221838,-0.0006703518447466195
1772702710919336700,0.313336669921875,0.007533596362918615,-0.008260730654001236,0.0007797394064255059
1772702710929386800,0.32338671875,0.005138615611940622,-0.0056947749108076096,-0.0020365535747259855
1772702710939436800,0.333436767578125,0.008518261834979057,-0.00445136521011591,0.0016346762422472239
1772702710949486800,0.34348681640625,0.007370439358055592,-0.0020816847681999207,0.00016461123595945537
1772702710959537000,0.353536865234375,0.007954942993819714,-0.0005396339111030102,0.0037671513855457306
1772702710969585700,0.363585693359375,0.010177616961300373,-0.0007556164637207985,-0.0009663510136306286
1772702710979635700,0.3736357421875,0.005332339089363813,-0.0059239426627755165,-0.00137093267403543
1772702710989685800,0.383685791015625,0.004879068583250046,-0.008484305813908577,-0.001847638632170856
1772702710999735800,0.39373583984375,0.0037701912224292755,-0.002691510133445263,-0.00014098017709329724
1772702711009785600,0.40378564453125,0.005998724605888128,-0.004048656672239304,0.0009919285075739026
1772702711019835600,0.413835693359375,0.0044380007311701775,-0.006004611495882273,-0.0034282163251191378
1772702711029885700,0.4238857421875,0.0035279986914247274,-0.0038170909974724054,-0.0034998555202037096
1772702711039935700,0.433935791015625,0.0048255533911287785,-0.002580163534730673,0.0013722364092245698
1772702711049985500,0.443985595703125,0.004061492625623941,0.002921661362051964,0.00037940993206575513
1772702711060035600,0.45403564453125,0.004861732013523579,0.0014422610402107239,-0.001516570569947362
1772702711070086000,0.4640859375,0.004953877069056034,-0.0007476559840142727,-0.0012766197323799133
1772702711080136000,0.474135986328125,0.0003284922568127513,-0.0010525505058467388,-0.0003444300382398069
1772702711090185700,0.484185791015625,0.004621774423867464,-0.006847322918474674,-0.0046140095219016075
1772702711100235800,0.49423583984375,0.0034559378400444984,-0.000021663494408130646,-0.003615529974922538
1772702711110285800,0.504285888671875,0.0004995627677999437,0.004604779649525881,-0.005611036904156208
1772702711120336000,0.5143359375,0.0012277488131076097,0.006032541859894991,-0.0038396259769797325
1772702711130385700,0.5243857421875,-0.0006423228187486529,-0.0024416367523372173,-0.0033751707524061203
1772702711140435700,0.534435791015625,-0.0007246300810948014,-0.005894577130675316,-0.00019379501463845372
1772702711150485800,0.54448583984375,-0.0013041339116171002,0.0008954186923801899,-0.0019512149738147855
1772702711160535800,0.554535888671875,-0.00041040952783077955,0.004620825406163931,-0.005344837438315153
1772702711170585600,0.564585693359375,0.0015941518358886242,0.008093055337667465,-0.002712568733841181
1772702711180635600,0.5746357421875,-0.00142259884160012,0.012513969093561172,-0.001374912215396762
1772702711190685700,0.584685791015625,-0.0021227439865469933,0.012000778689980507,-0.0020843783859163523
1772702711200735000,0.59473486328125,-0.0016889452235773206,0.00913858599960804,-0.0019642282277345657
1772702711210784800,0.60478466796875,-0.0010194265050813556,0.0034612598828971386,-0.0008267920929938555
1772702711220834800,0.614834716796875,-0.004360754508525133,0.0026721227914094925,-0.003223846899345517
1772702711230884900,0.624884765625,-0.0025221079122275114,-0.00020675407722592354,-0.006257986184209585
1772702711240935000,0.634934814453125,-0.002231534104794264,0.0009971349500119686,-0.005407078191637993
1772702711250984700,0.644984619140625,0.0025573621969670057,0.0033846586011350155,-0.003221421968191862
1772702711261034800,0.65503466796875,0.000610147719271481,0.007991915568709373,-0.0028668874874711037
1772702711271084800,0.665084716796875,0.0005960329435765743,0.012009026482701302,-0.004968920256942511
1772702711281134800,0.675134765625,-0.0010307022603228688,0.012589791789650917,-0.0064810155890882015
1772702711291184600,0.6851845703125,-0.0010986129054799676,0.004924947861582041,-0.004594166297465563
1772702711301234700,0.695234619140625,-0.0009173149010166526,0.0021559055894613266,-0.0032427164260298014
1772702711311284700,0.70528466796875,-0.0022430364042520523,-0.0034633642062544823,-0.0044645750895142555
1772702711321334800,0.715334716796875,0.00026421714574098587,0.0032247710041701794,-0.004957620985805988
1772702711331384600,0.725384521484375,-0.0032500899396836758,0.0028785602189600468,-0.005010085646063089
1772702711341434600,0.7354345703125,-0.0020103740971535444,0.004100864287465811,-0.0064576673321425915
1772702711351484700,0.745484619140625,-0.0009823937434703112,0.00038016168400645256,-0.0048022461123764515
1772702711361534700,0.75553466796875,-0.00026128755416721106,0.0038200998678803444,-0.0031121554784476757
1772702711371584800,0.765584716796875,-0.0014240237651392817,0.007922699674963951,-0.0030455763917416334
1772702711381634800,0.775634765625,-0.002869411837309599,0.008847364224493504,-0.005100271664559841
1772702711391684900,0.785684814453125,-0.005337096750736237,0.012348621152341366,-0.006876599974930286
1772702711401735000,0.79573486328125,-0.002955647651106119,0.004952461924403906,-0.005963945295661688
1772702711411784700,0.80578466796875,-0.0015481669688597322,-0.0026564556173980236,-0.008406597189605236
1772702711421834800,0.815834716796875,-0.0014947514282539487,-0.005120270885527134,-0.008366210386157036
1772702711431883800,0.8258837890625,-0.0017706550424918532,0.0019118054769933224,-0.007802952080965042
1772702711441933600,0.83593359375,0.0006742666009813547,0.005088648293167353,-0.009270030073821545
1772702711451983600,0.845983642578125,-0.0022386987693607807,0.0022582407109439373,-0.005130146164447069
1772702711462033700,0.85603369140625,0.0028797851409763098,-0.0028644781559705734,-0.0020910431630909443
1772702711472083700,0.866083740234375,0.001866186037659645,0.00006553158164024353,0.0011122068390250206
1772702711482133500,0.876133544921875,0.0010921668726950884,0.0014462154358625412,-0.0013468696270138025
1772702711492183800,0.886183837890625,0.0034860821906477213,0.0013245083391666412,-0.001940488233231008
1772702711502233900,0.89623388671875,0.005317565519362688,-0.0012882216833531857,0.0006848180782981217
1772702711512284000,0.906283935546875,0.004740991163998842,0.0013890541158616543,0.0022635399363934994
1772702711522334000,0.916333984375,0.0022039099130779505,-0.001950688660144806,0.0027909413911402225
1772702711532383700,0.9263837890625,0.003962128888815641,-0.0023578861728310585,0.0024692313745617867
1772702711542433800,0.936433837890625,0.003907597158104181,-0.0039758686907589436,0.001536963158287108
1772702711552483800,0.94648388671875,0.0009765222202986479,-0.008484600111842155,0.0049764360301196575
1772702711562534000,0.956533935546875,0.0004287100164219737,-0.013012240640819073,-0.002177613787353039
1772702711572583700,0.966583740234375,0.006725754588842392,-0.01760752499103546,0.00005198456346988678
1772702711582633700,0.9766337890625,0.0032383580692112446,-0.01513086911290884,-0.0008637621649540961
1772702711592683800,0.986683837890625,0.003638631198555231,-0.005066250450909138,0.0009125663200393319
1772702711602733800,0.99673388671875,0.0018928400240838528,-0.0038020354695618153,-0.00023372587747871876
1772702711612783600,1.00678369140625,0.003900863230228424,-0.008581344038248062,-0.0005594304529950023
1772702711622833700,1.016833740234375,0.003136156126856804,-0.0046791392378509045,-0.0026650195941329002
1772702711632883700,1.0268837890625,0.005127667915076017,-0.0032812459394335747,-0.002195504494011402
1772702711642933800,1.036933837890625,0.008070881478488445,-0.0064326925203204155,-0.002444073325023055
1772702711652982800,1.046982666015625,0.0037994375452399254,-0.012008286081254482,-0.0015836060047149658
1772702711663032800,1.05703271484375,0.00456036813557148,-0.017152272164821625,-0.0008582495502196252
1772702711673083000,1.067082763671875,0.004003767855465412,-0.011086123064160347,0.0007590881432406604
1772702711683132700,1.077132568359375,0.007382377050817013,-0.010127098299562931,-0.0003806079039350152
1772702711693182700,1.0871826171875,0.006037214305251837,-0.014911200851202011,0.001761638792231679
1772702711703232800,1.097232666015625,0.0069146775640547276,-0.013042702339589596,0.0007421888294629753
1772702711713282800,1.10728271484375,0.006348489783704281,-0.007675367407500744,-0.0005624937475658953
1772702711723332600,1.11733251953125,0.004093043971806765,-0.0037311394698917866,-0.004468664992600679
1772702711733382700,1.127382568359375,0.00507335364818573,-0.003076001536101103,0.003134926315397024
1772702711743432700,1.1374326171875,0.005243529565632343,-0.005174572579562664,0.00077802874147892
1772702711753482800,1.147482666015625,0.0033329776488244534,-0.00888062734156847,0.005273977294564247
1772702711763532500,1.157532470703125,0.002328181639313698,-0.007496935781091452,0.0022426138166338205
1772702711773582600,1.16758251953125,0.0015300323721021414,-0.007958994247019291,0.001866042846813798
1772702711783632600,1.177632568359375,0.004245579708367586,-0.005001621320843697,0.0005494246142916381
1772702711793682700,1.1876826171875,0.0028146635740995407,-0.0077145835384726524,0.0016567669808864594
1772702711803732700,1.197732666015625,0.00245212996378541,-0.007409453857690096,0.0061309258453547955
1772702711813782800,1.20778271484375,-0.0011362131917849183,-0.004202475305646658,0.0011087364982813597
1772702711823832800,1.217832763671875,-0.0006378585239872336,-0.006272481754422188,0.006539406254887581
1772702711833883000,1.2278828125,0.0016186378197744489,-0.002782941795885563,0.005072005093097687
1772702711843932700,1.2379326171875,0.0027175210416316986,0.0002691945992410183,0.004529091063886881
1772702711853982700,1.247982666015625,0.002351070288568735,0.0002833097241818905,0.003695521503686905
1772702711864032800,1.25803271484375,0.0026032861787825823,-0.004481438547372818,0.0050146980211138725
1772702711874082800,1.268082763671875,0.0013633184134960175,-0.00008961930871009827,0.004074336029589176
1772702711884131600,1.278131591796875,-0.00042920687701553106,0.0006067720241844654,0.00397232873365283
1772702711894181600,1.288181640625,0.0027644559741020203,0.0036638150922954082,0.001294786692596972
1772702711904231700,1.298231689453125,-0.0033957650884985924,0.008221926167607307,0.003768226131796837
1772702711914281700,1.30828173828125,-0.0033547524362802505,0.009580405429005623,0.0022470285184681416
1772702711924331000,1.3183310546875,-0.0029642838053405285,0.00944029726088047,0.0024432940408587456
1772702711934380800,1.328380859375,-0.001591157983057201,0.0028100903145968914,0.0035274671390652657
1772702711944430800,1.338430908203125,-0.0032299612648785114,0.004376192111521959,0.0016919281333684921
1772702711954481000,1.34848095703125,-0.004579651169478893,0.002166567835956812,0.0010314640821889043
1772702711964531000,1.358531005859375,-0.0036284788511693478,0.0004947679117321968,-0.0005399004439823329
1772702711974580700,1.368580810546875,-0.003257500473409891,-0.0015899548307061195,-0.0007249900954775512
1772702711984630800,1.378630859375,-0.004166735336184502,0.00039214594289660454,-0.0008597025298513472
1772702711994680800,1.388680908203125,-0.003863667603582144,0.004826575983315706,-0.0013007221277803183
1772702712004731000,1.39873095703125,-0.00003944349009543657,0.005983407609164715,-0.0013152479659765959
1772702712014780700,1.40878076171875,-0.0007590295281261206,0.006731489673256874,-0.001404996495693922
1772702712024830700,1.418830810546875,0.0012178320903331041,0.0016861092299222946,-0.0009241023799404502
1772702712034880800,1.428880859375,-0.0016706323949620128,0.009729121811687946,0.0015856606187298894
1772702712044930800,1.438930908203125,0.00030374445486813784,0.006093122996389866,0.0017528411699458957
1772702712054980900,1.44898095703125,-0.00022409402299672365,0.006559176370501518,0.0000524127681273967
1772702712065031000,1.459031005859375,-0.0024706311523914337,0.007305025588721037,0.000014508055755868554
1772702712075081000,1.4690810546875,-0.002108973450958729,0.00962463952600956,0.0008989438647404313
1772702712085131000,1.479131103515625,-0.0035476284101605415,0.007390866056084633,-0.0019166625570505857
1772702712095180800,1.489180908203125,-0.0015859439736232162,0.005183904431760311,-0.0015488800127059221
1772702712105230800,1.49923095703125,-0.0006808919133618474,-0.0007787561044096947,0.0022484292276203632
1772702712115280000,1.50927978515625,-0.00403381185606122,-0.0019396278075873852,0.0018574772402644157
1772702712125330000,1.519329833984375,-0.0003805971937254071,-0.003560318611562252,0.0053218090906739235
1772702712135379700,1.529379638671875,-0.0021715727634727955,-0.0018044961616396904,0.0042482889257371426
1772702712145429800,1.5394296875,0.001462282845750451,0.0015539187006652355,0.00372608145698905
1772702712155479800,1.549479736328125,0.0017403168603777885,0.0005712122656404972,0.002209943952038884
1772702712165529900,1.55952978515625,0.0035879681818187237,0.0003139795735478401,0.0014890360180288553
1772702712175580000,1.569579833984375,0.002816450549289584,0.001870596781373024,0.004402267746627331
1772702712185630000,1.5796298828125,0.0036590611562132835,-0.0008220411837100983,-0.0022672004997730255
1772702712195680000,1.589679931640625,0.005001560784876347,-0.004540612921118736,-0.0009707737481221557
1772702712205730000,1.59972998046875,0.002807284239679575,-0.00344014260917902,-0.005504255648702383
1772702712215779800,1.60977978515625,0.001665587187744677,-0.007324895355850458,-0.004804642871022224
1772702712225830000,1.619829833984375,0.0024577369913458824,-0.014217644929885864,-0.0024006639141589403
1772702712235880000,1.6298798828125,0.0009871394140645862,-0.015479184687137604,-0.006087543908506632
1772702712245930000,1.639929931640625,0.003612436354160309,-0.013398166745901108,-0.0016254105139523745
1772702712255979800,1.649979736328125,0.005247350782155991,-0.012179503217339516,-0.00516874622553587
1772702712266029800,1.66002978515625,0.005636079702526331,-0.009862534701824188,-0.005387188866734505
1772702712276079900,1.670079833984375,0.0023550649639219046,-0.003283195663243532,-0.004340300336480141
1772702712286130000,1.6801298828125,0.0042364150285720825,-0.002087455242872238,-0.004238237626850605
1772702712296179700,1.6901796875,0.004338413942605257,-0.0018839896656572819,-0.0005849134759046137
1772702712306229800,1.700229736328125,0.005983671173453331,-0.0008317828178405762,-0.002710721455514431
1772702712316279800,1.71027978515625,0.004252616316080093,-0.0031109158881008625,-0.0016113686142489314
1772702712326329900,1.720329833984375,0.0008915948565118015,-0.007774770725518465,-0.0012055984698235989
1772702712336379000,1.73037890625,0.001280150143429637,-0.005871942266821861,-0.0008660454768687487
1772702712346429000,1.740428955078125,0.0038962606340646744,-0.00916624628007412,0.0004403664206620306
1772702712356479000,1.75047900390625,0.0016488188412040472,-0.008934018202126026,0.0006307824514806271
1772702712366528800,1.76052880859375,0.0014143255539238453,-0.008007506839931011,-0.0016418169252574444
1772702712376578800,1.770578857421875,0.0024329847656190395,-0.004590936936438084,-0.001218374352902174
1772702712386628900,1.78062890625,0.0015475171385332942,-0.0018297112546861172,-0.0010778801515698433
1772702712396679000,1.790678955078125,0.002323295921087265,-0.0030856579542160034,-0.0023442134261131287
1772702712406729000,1.80072900390625,0.0033112489618360996,0.0020693843252956867,-0.0022372938692569733
1772702712416778800,1.81077880859375,0.002172481268644333,0.0003830711357295513,-0.0007142319227568805
1772702712426828800,1.820828857421875,0.0008932558121159673,-0.0026589506305754185,-0.001018806011416018
1772702712436878800,1.83087890625,0.003439770545810461,-0.006690709851682186,0.0009013330563902855
1772702712446929000,1.840928955078125,0.0037292419001460075,-0.005947070196270943,0.000780578120611608
1772702712456978700,1.850978759765625,-0.0007896098541095853,-0.007081842981278896,-0.004227229859679937
1772702712467028700,1.86102880859375,0.002617526799440384,-0.003910944797098637,-0.004426796920597553
1772702712477079000,1.8710791015625,-0.00029916735365986824,-0.0008999751880764961,0.0019333644304424524
1772702712487129000,1.881129150390625,-0.0008826969424262643,-0.0018425327725708485,0.0005241379840299487
1772702712497179000,1.891178955078125,0.0008022850379347801,-0.004313147626817226,0.0009643585071898997
1772702712507229000,1.90122900390625,-0.0012539579765871167,-0.006584202405065298,-0.001370812300592661
1772702712517279000,1.911279052734375,0.00025285850279033184,-0.00028529390692710876,-0.0001920972135849297
1772702712527329000,1.9213291015625,-0.0003217053599655628,-0.001453168224543333,0.002937623765319586
1772702712537378800,1.93137890625,-0.000959266209974885,0.0009442092850804329,0.0005964390002191067
1772702712547427800,1.941427734375,0.0009902877500280738,0.0030812076292932034,0.0010076567996293306
1772702712557478000,1.951477783203125,0.0005412788013927639,0.008201135322451591,0.004009838216006756
1772702712567527700,1.961527587890625,0.00020344904623925686,0.0036346563138067722,0.0025511691346764565
1772702712577577700,1.97157763671875,-0.0038576051592826843,0.0006686937995254993,0.00031544524244964123
1772702712587627800,1.981627685546875,-0.00286357244476676,-0.0027740178629755974,0.0011037969961762428
1772702712597677800,1.991677734375,-0.0008797839982435107,-0.003149523865431547,0.0027981000021100044
1772702712607727900,2.001727783203125,0.00013703061267733574,-0.0010406868532299995,0.0005893060588277876
1772702712617778000,2.01177783203125,-0.00030824996065348387,0.005984998308122158,0.0002979562268592417
1772702712627828000,2.021827880859375,-0.0004532081075012684,0.0056094578467309475,-0.0002409383305348456
1772702712637878000,2.0318779296875,0.0004948772257193923,0.002452812623232603,0.003939691931009293
1772702712647927800,2.041927734375,-0.000497572822496295,0.00386255607008934,-0.0017532494384795427
1772702712657977900,2.051977783203125,-0.00042699906043708324,0.0008835438638925552,-0.0043343850411474705
1772702712668028000,2.06202783203125,0.0015106694772839546,-0.0004615951329469681,-0.001472278730943799
1772702712678078000,2.072077880859375,-0.002013757824897766,-0.00582919642329216,-0.0019031781703233719
1772702712688127700,2.082127685546875,-0.0013570849550887942,-0.007830983959138393,-0.0009195117163471878
1772702712698177800,2.092177734375,-0.0006534777348861098,-0.004179789684712887,0.0011942391283810139
1772702712708227800,2.102227783203125,0.0008762116194702685,-0.0007534590549767017,-0.0008611469529569149
1772702712718278000,2.11227783203125,0.002927111927419901,0.004955559503287077,0.0002954639494419098
1772702712728327700,2.12232763671875,-0.00010220345575362444,0.011133918538689613,0.0006885048933327198
1772702712738377700,2.132377685546875,-0.0010806488571688533,0.011827938258647919,0.00037238767254166305
1772702712748427800,2.142427734375,-0.0020232349634170532,0.005695763975381851,-0.001468452624976635
1772702712758477800,2.152477783203125,-0.0064771054312586784,0.0018890416249632835,-0.0049779657274484634
1772702712768528000,2.16252783203125,-0.003460136242210865,-0.00008174125105142593,-0.002941923215985298
1772702712778578000,2.172577880859375,-0.005347518250346184,-0.005155862309038639,-0.003625556593760848
1772702712788627000,2.182626953125,-0.006777334026992321,-0.005976855754852295,-0.001492487033829093
1772702712798677000,2.192677001953125,-0.006229788530617952,-0.0057901679538190365,0.0009195380262099206
1772702712808726800,2.202726806640625,-0.007515911012887955,0.0026019499637186527,0.0006261869566515088
1772702712818776800,2.21277685546875,-0.0024023759178817272,0.008820697665214539,0.0004775825364049524
1772702712828827000,2.222826904296875,-0.004453902132809162,0.01095550786703825,0.0006325152353383601
1772702712838877000,2.232876953125,-0.0032890355214476585,0.0050837695598602295,-0.0021182638593018055
1772702712848926700,2.2429267578125,-0.0028099329210817814,-0.00002177618443965912,0.000736378540750593
1772702712858976800,2.252976806640625,-0.0010450558038428426,-0.004762469325214624,0.0002777822082862258
1772702712869026800,2.26302685546875,-0.00122024433221668,-0.00264125969260931,0.0016738798003643751
1772702712879076900,2.273076904296875,0.0006615452002733946,-0.00013842061161994934,0.0012437793193385005
1772702712889126700,2.283126708984375,0.0004253531224094331,0.00006963731721043587,0.004130262415856123
1772702712899177000,2.293177001953125,-0.0006455038674175739,0.00009520398452877998,0.00036961259320378304
1772702712909227000,2.30322705078125,0.000054156873375177383,-0.0007863272912800312,0.00007292840746231377
1772702712919277000,2.313277099609375,-0.002857211045920849,-0.001415366306900978,-0.003527931636199355
1772702712929327000,2.3233271484375,-0.004586301278322935,-0.009800918400287628,-0.00010339310392737389
1772702712939377200,2.333377197265625,-0.0012227286351844668,-0.01606227643787861,-0.0020778607577085495
1772702712949427000,2.343427001953125,-0.0024688919074833393,-0.013122262433171272,0.0002497211971785873
1772702712959477000,2.35347705078125,-0.001870479783974588,-0.004823586903512478,-0.002942876424640417
1772702712969527000,2.363527099609375,0.0004305109032429755,-0.0026665464974939823,0.0020535120274871588
1772702712979577000,2.3735771484375,-0.001215855241753161,0.0018949154764413834,0.0010204717982560396
1772702712989627000,2.383626953125,-0.0006528199883177876,0.0011401851661503315,0.0021113757975399494
1772702712999677000,2.393677001953125,0.0007895480375736952,0.004416938405483961,-0.001079357462003827
1772702713009726000,2.403725830078125,-0.0011302769416943192,0.003138330765068531,-0.0008444738341495395
1772702713019776000,2.41377587890625,-0.000647445791400969,-0.0028931964188814163,-0.004220030270516872
1772702713029826000,2.423825927734375,0.00047987018479034305,-0.00959344394505024,-0.0018767151050269604
1772702713039876000,2.4338759765625,-0.0012578425230458379,-0.0055848537012934685,-0.002149156527593732
1772702713049926100,2.443926025390625,-0.0018860819982364774,-0.00841845665127039,0.0009318545926362276
1772702713059976200,2.45397607421875,0.0011712268460541964,-0.0076780980452895164,0.0029009957797825336
1772702713070026000,2.46402587890625,0.002870753640308976,-0.002269600983709097,-0.0008125466993078589
1772702713080076000,2.474075927734375,-0.0007580695673823357,0.004022649955004454,0.0009142468916252255
1772702713090126000,2.4841259765625,0.0010636202059686184,0.0011847480200231075,0.002045551547780633
1772702713100176100,2.494176025390625,0.0023344806395471096,-0.0031748460605740547,0.0019968156702816486
1772702713110226000,2.504225830078125,0.002743791788816452,-0.003999804146587849,0.001497362507507205
1772702713120276000,2.51427587890625,0.0009312444599345326,-0.0030112387612462044,0.0033549172803759575
1772702713130326000,2.524325927734375,0.0027180840261280537,-0.006737489718943834,0.0009332493646070361
1772702713140376000,2.5343759765625,0.0018645409727469087,-0.008849643170833588,0.001798776676878333
1772702713150425900,2.54442578125,-0.0001971531892195344,-0.006319861393421888,0.001702580600976944
1772702713160476000,2.554475830078125,-0.0012720049126073718,0.000047756824642419815,0.0026008649729192257
1772702713170526000,2.56452587890625,-0.0028548752889037132,-0.0005595567636191845,0.004432225599884987
1772702713180576000,2.574575927734375,-0.0010854710126295686,-0.0015486548654735088,0.001356008229777217
1772702713190625800,2.584625732421875,-0.0014227691572159529,-0.001539022196084261,0.0052130091935396194
1772702713200675800,2.59467578125,-0.0005300777265802026,0.001074870117008686,0.004517924971878529
1772702713210726100,2.60472607421875,-0.000805368646979332,-0.0027557555586099625,0.00587049312889576
1772702713220776200,2.614776123046875,-0.0021454712841659784,0.00020248349756002426,0.005127737298607826
1772702713230826000,2.624825927734375,-0.0009588950779289007,0.00003756815567612648,0.0073522599413990974
1772702713240875000,2.634875,0.0007002541678957641,0.0009973719716072083,0.005909092724323273
1772702713250925000,2.644925048828125,0.0014433389296755195,0.007053554989397526,0.007789921946823597
1772702713260974800,2.654974853515625,-0.0006243393290787935,0.009780366905033588,0.004630081355571747
1772702713271025000,2.66502490234375,0.0008300280896946788,0.0007321895100176334,0.0032661226578056812
1772702713281075000,2.675074951171875,-0.005130392964929342,-0.0028431047685444355,0.005981747526675463
1772702713291125000,2.685125,-0.0008937575621530414,-0.002841439563781023,0.007103954441845417
1772702713301174800,2.6951748046875,-0.003349991049617529,0.0011080284602940083,0.0034759300760924816
1772702713311224800,2.705224853515625,-0.0037782429717481136,-0.00009696464985609055,0.0029674209654331207
1772702713321275000,2.71527490234375,-0.001244245213456452,-0.0021979324519634247,0.003394592087715864
1772702713331325000,2.725324951171875,-0.0006782911950722337,-0.0007719867862761021,0.003363655414432287
1772702713341375000,2.735375,-0.002760084345936775,0.0049178567714989185,0.0049058920703828335
1772702713351425000,2.745425048828125,-0.0008250930113717914,0.005326202604919672,0.005929695442318916
1772702713361475000,2.75547509765625,-0.0020421575754880905,0.007495347876101732,0.008339323103427887
1772702713371525000,2.765525146484375,-0.0018298403592780232,0.002301538363099098,0.004826185759156942
1772702713381575200,2.7755751953125,-0.00278511643409729,-0.0015422017313539982,0.005452028941363096
1772702713391625000,2.785625,-0.002850506454706192,0.00015670200809836388,0.006923980545252562
1772702713401675000,2.795675048828125,-0.0005689765093848109,-0.0020356117747724056,0.005784946493804455
1772702713411725000,2.80572509765625,0.00039309856947511435,-0.006179535295814276,0.006649463437497616
1772702713421775000,2.815775146484375,0.00006339920219033957,-0.0011152680963277817,0.0070486715994775295
1772702713431825000,2.825824951171875,0.00035240768920630217,0.010426916182041168,0.005985748954117298
1772702713441875000,2.835875,0.0015012953663244843,0.014462938532233238,0.006862461566925049
1772702713451925000,2.845925048828125,-0.00018135400023311377,0.009016767144203186,0.0036697937175631523
1772702713461975000,2.85597509765625,0.002941735088825226,0.00808492861688137,0.005185665097087622
1772702713472024800,2.86602490234375,0.0007902625948190689,0.008319536224007607,0.0021587801165878773
1772702713482075000,2.876074951171875,-0.00006407941691577435,0.007934708148241043,0.006255254149436951
1772702713492124200,2.886124267578125,-0.0014989906921982765,0.0030443458817899227,0.0013497117906808853
1772702713502174000,2.896174072265625,-0.0011295813601464033,0.0019844076596200466,0.000019196566427126527
1772702713512224000,2.90622412109375,0.0008534311782568693,-0.0018514110706746578,0.0036859530955553055
1772702713522274000,2.916274169921875,0.004481988027691841,0.00036087632179260254,0.0010704625165089965
1772702713532324000,2.926323974609375,0.00298580015078187,0.0003643389791250229,-0.0014190603978931904
1772702713542374000,2.936373779296875,0.002141578122973442,0.008312276564538479,-0.004686226136982441
1772702713552424000,2.946423828125,0.002264911774545908,0.008383184671401978,-0.0061803762800991535
1772702713562474000,2.956473876953125,0.007020785007625818,0.004307216499000788,-0.0050882138311862946
1772702713572524000,2.96652392578125,0.0066331541165709496,-0.0027695586904883385,-0.005458449013531208
1772702713582573800,2.97657373046875,0.004414474591612816,-0.003879830241203308,-0.007050486747175455
1772702713592623900,2.986623779296875,0.0025501525960862637,-0.005068263970315456,-0.005615408066660166
1772702713602674000,2.996673828125,0.005246337037533522,-0.007007844280451536,-0.008533700369298458
1772702713612724000,3.006723876953125,0.004195907153189182,-0.010074540972709656,-0.010940882377326488
1772702713622773800,3.016773681640625,0.003779122605919838,-0.005045694299042225,-0.012553160078823566
1772702713632824000,3.026823974609375,0.002156367525458336,-0.00406986940652132,-0.010481476783752441
1772702713642874000,3.0368740234375,0.0030179000459611416,0.0013187709264457226,-0.011295071803033352
1772702713652924200,3.046924072265625,0.002042038133367896,0.005491346586495638,-0.011169319972395897
1772702713662974000,3.056973876953125,0.00286362343467772,0.00432994170114398,-0.008852901868522167
1772702713673024000,3.06702392578125,0.00685730017721653,-0.0017540771514177322,-0.00933607667684555
1772702713683074000,3.077073974609375,0.006780601106584072,-0.005510199815034866,-0.008186123333871365
1772702713693124000,3.0871240234375,0.00012064538896083832,-0.0017468179576098919,-0.008855423890054226
1772702713703174000,3.097173828125,0.004861072171479464,-0.0015601301565766335,-0.00855342112481594
1772702713713224000,3.107223876953125,0.004982386250048876,-0.0028315656818449497,-0.00613628001883626
1772702713723273000,3.11727294921875,0.0036121897865086794,-0.0032691233791410923,-0.007067320868372917
1772702713733323000,3.127322998046875,0.0013199596432968974,-0.001297827810049057,-0.006325889844447374
1772702713743372800,3.137372802734375,0.0033053462393581867,-0.001065600197762251,-0.0075775752775371075
1772702713753422800,3.1474228515625,0.003518965095281601,-0.0009496905840933323,-0.004156066570430994
1772702713763473200,3.15747314453125,0.0020923097617924213,-0.0017558294348418713,-0.008611534722149372
1772702713773523200,3.167523193359375,0.0031692860648036003,-0.003016178961843252,-0.0006353390053845942
1772702713783573000,3.177572998046875,0.001321851392276585,-0.007093478459864855,0.0013404602650552988
1772702713793623000,3.187623046875,0.003623656462877989,-0.0033613559789955616,0.009322683326900005
1772702713803673000,3.197673095703125,0.0022811570670455694,0.0056718201376497746,0.004585452377796173
1772702713813723100,3.20772314453125,0.0026890754234045744,0.01262340135872364,0.004250742495059967
1772702713823773000,3.21777294921875,0.0008152752998284996,0.012652695178985596,0.0021724114194512367
1772702713833823000,3.227822998046875,0.0023331393022090197,0.010911586694419384,-0.0032052933238446712
1772702713843873000,3.237873046875,-0.0034509801771491766,0.008326190523803234,-0.0035373896826058626
1772702713853923000,3.247923095703125,-0.001438824227079749,0.0029755672439932823,-0.0032820089254528284
1772702713863972900,3.257972900390625,-0.0008667772635817528,0.005800648592412472,-0.004096136894077063
1772702713874023000,3.26802294921875,-0.0014728894457221031,0.009992124512791634,-0.005625145044177771
1772702713884073000,3.278072998046875,0.00034551694989204407,0.012465668842196465,-0.008358613587915897
1772702713894123000,3.288123046875,0.0019327376503497362,0.012648435309529305,-0.007609911262989044
1772702713904172800,3.2981728515625,0.0014754729345440865,0.010829228907823563,-0.008981705643236637
1772702713914222800,3.308222900390625,-0.0002676132135093212,0.013916390016674995,-0.012540481984615326
1772702713924273200,3.318273193359375,-0.0013725586468353868,0.011682264506816864,-0.013577782548964024
1772702713934323200,3.3283232421875,0.0024735480546951294,0.011151403188705444,-0.017256099730730057
1772702713944373200,3.338373291015625,0.003375827334821224,0.012395365163683891,-0.017289122566580772
1772702713954423600,3.348423583984375,0.0009080475429072976,0.00458569498732686,-0.017077121883630753
1772702713964472300,3.358472412109375,0.0015274988254532218,-0.002488726284354925,-0.016368187963962555
1772702713974522400,3.3685224609375,0.00025544047821313143,-0.004533977247774601,-0.016402531415224075
1772702713984572400,3.378572509765625,0.0024075410328805447,-0.004163265228271484,-0.01896449364721775
1772702713994622500,3.38862255859375,0.0021862396970391273,-0.004037399776279926,-0.01789172738790512
1772702714004672300,3.39867236328125,0.0034272726625204086,-0.000018423423171043396,-0.016710348427295685
1772702714014722300,3.408722412109375,0.00169662619009614,0.005310783628374338,-0.01617686077952385
1772702714024772400,3.4187724609375,0.0020209993235766888,0.007088976446539164,-0.014886826276779175
1772702714034822400,3.428822509765625,0.0012258875649422407,0.009810861200094223,-0.011204906739294529
1772702714044872200,3.4388720703125,0.00165838492102921,0.007393775042146444,-0.009390494786202908
1772702714054922200,3.448922119140625,-0.0010703682200983167,0.006588900927454233,-0.0039211115799844265
1772702714064972300,3.45897216796875,-0.002092223148792982,0.002899091225117445,-0.005471870303153992
1772702714075022300,3.469022216796875,-0.002346775960177183,0.0030182297341525555,-0.0029309303499758244
1772702714085072400,3.479072265625,0.000961136247497052,0.0002631903626024723,0.00349634257145226
1772702714095122400,3.489122314453125,-0.00284362630918622,0.004876710940152407,-0.0004770554951392114
1772702714105172500,3.49917236328125,-0.0008241512114182115,0.01300201565027237,0.0015496101696044207
1772702714115222500,3.509222412109375,-0.002639440121129155,0.01788591966032982,0.0020399473141878843
1772702714125272300,3.519272216796875,-0.0045356107875704765,0.020128566771745682,0.0017065193969756365
1772702714135322400,3.529322265625,-0.000846408773213625,0.015612599439918995,0.0029641855508089066
1772702714145372400,3.539372314453125,-0.0031324659939855337,0.00968520063906908,0.004335180856287479
1772702714155422500,3.54942236328125,-0.0059753283858299255,0.005992617923766375,-0.0021047694608569145
1772702714165472300,3.55947216796875,-0.00508396839722991,0.002831180114299059,0.001961344853043556
1772702714175522300,3.569522216796875,-0.00832166988402605,-0.0016732662916183472,0.0032095087226480246
1772702714185572400,3.579572265625,-0.005135197192430496,0.0007376936264336109,0.005059340503066778
1772702714195622400,3.589622314453125,-0.005244476720690727,0.008471021428704262,0.0011375778121873736
1772702714205671400,3.59967138671875,-0.007645849604159594,0.02216952294111252,0.000987109262496233
1772702714215721500,3.609721435546875,-0.0025634285993874073,0.01779044046998024,0.00047383896890096366
1772702714225771500,3.619771484375,-0.002127202693372965,0.009376716800034046,0.0008458825759589672
1772702714235821600,3.629821533203125,-0.0009334321366623044,0.0047353398986160755,0.004769382067024708
1772702714245871400,3.639871337890625,0.001025855541229248,0.0007214234210550785,0.0018974289996549487
1772702714255921400,3.64992138671875,-0.0001664233859628439,-0.0013593966141343117,0.0031774532981216908
1772702714265971500,3.659971435546875,-0.0024588722735643387,-0.0008544609881937504,0.002430436434224248
1772702714276021500,3.670021484375,-0.0030956966802477837,0.0024783285334706306,0.004463121294975281
1772702714286071300,3.6800712890625,-0.0027819760143756866,0.0046860892325639725,0.0038322184700518847
1772702714296121300,3.690121337890625,-0.004445359576493502,-0.0005594664253294468,0.005575410556048155
1772702714306171400,3.70017138671875,-0.006335405167192221,-0.004996292758733034,0.00322943227365613
1772702714316221400,3.710221435546875,-0.004572313278913498,-0.008772057481110096,0.002514855470508337
1772702714326271200,3.720271240234375,-0.00560748390853405,-0.0033653080463409424,0.005351122003048658
1772702714336321300,3.7303212890625,-0.002216044347733259,-0.0033495710231363773,0.005598469637334347
1772702714346371300,3.740371337890625,0.0011943996651098132,0.0003104112111032009,0.0027291798032820225
1772702714356421400,3.75042138671875,-0.00045702653005719185,0.005251906346529722,0.006824855227023363
1772702714366471200,3.76047119140625,0.0004449861007742584,0.005152836907655001,0.006252808030694723
1772702714376521500,3.770521484375,-0.0011690459214150906,0.0032384218648076057,0.0037961406633257866
1772702714386571500,3.780571533203125,0.0003042146563529968,-0.003215216565877199,0.0032238273415714502
1772702714396621600,3.79062158203125,-0.0024272610899060965,-0.0019277785904705524,0.000930595735553652
1772702714406671400,3.80067138671875,-0.0021508249919861555,-0.00827782042324543,0.0018592400010675192
1772702714416721400,3.810721435546875,-0.0009292671456933022,-0.01414591446518898,-0.0006046706112101674
1772702714426771500,3.820771484375,0.002072914270684123,-0.011611917987465858,-0.002088317647576332
1772702714436821500,3.830821533203125,0.0017977639799937606,-0.0059255147352814674,0.001012405613437295
1772702714446870300,3.840870361328125,0.0019583525136113167,-0.005580635741353035,0.0009298476506955922
1772702714456920300,3.85092041015625,0.003388711018487811,0.00022018840536475182,-0.0006178696639835835
1772702714466970400,3.860970458984375,0.0029594094958156347,-0.006458220537751913,0.0012095915153622627
1772702714477020200,3.871020263671875,0.005001796409487724,-0.005144053604453802,-0.001771240495145321
1772702714487070200,3.8810703125,0.0019452862907201052,-0.006958198733627796,-0.0026604700833559036
1772702714497120300,3.891120361328125,0.002780233509838581,-0.006343030836433172,-0.00498594855889678
1772702714507170600,3.901170654296875,0.0023501329123973846,-0.01633867248892784,-0.0038439847994595766
1772702714517220400,3.911220458984375,0.0030370731838047504,-0.014783257618546486,-0.002957587130367756
1772702714527270400,3.9212705078125,0.0026940577663481236,-0.009812201373279095,-0.004237502347677946
1772702714537320400,3.931320556640625,0.0025030612014234066,-0.005174281075596809,-0.0055030290968716145
1772702714547370500,3.94137060546875,0.0035408949479460716,-0.0075732567347586155,-0.0033559887669980526
1772702714557420300,3.951420166015625,-0.000009568524546921253,-0.0032854126766324043,-0.002279167529195547
1772702714567470300,3.96147021484375,0.0015630280831828713,-0.000984175130724907,-0.0021167146041989326
1772702714577520400,3.971520263671875,0.0025720996782183647,-0.0011676670983433723,-0.0012112397234886885
1772702714587570400,3.9815703125,0.004404088482260704,-0.001782058272510767,-0.003857622854411602
1772702714597620200,3.9916201171875,0.0012263120152056217,-0.004918417893350124,0.0005243539344519377
1772702714607670300,4.001670166015625,0.003983216360211372,-0.004129589535295963,-0.001173677621409297
1772702714617720300,4.01172021484375,0.0030011842027306557,-0.0029695620760321617,-0.001237272284924984
1772702714627770400,4.021770263671875,0.004322378896176815,-0.0007303762249648571,-0.0012953290715813637
1772702714637820400,4.0318203125,0.0032082987017929554,-0.0008875681087374687,-0.007251704577356577
1772702714647870200,4.0418701171875,0.0020865751430392265,0.0002123177982866764,-0.0026087495498359203
1772702714657920300,4.051920166015625,0.0015804957365617156,0.0034615746699273586,0.00036019267281517386
1772702714667970300,4.06197021484375,0.0007096420740708709,0.0006008069030940533,0.0005990782519802451
1772702714678020400,4.072020263671875,0.002737967763096094,-0.002602820284664631,-0.00022053741849958897
1772702714688069400,4.0820693359375,-0.0013009823160246015,-0.006294760853052139,-0.0009278729557991028
1772702714698119400,4.092119384765625,-0.0014238441362977028,-0.007071563974022865,-0.002441870979964733
1772702714708169500,4.10216943359375,-0.0006909421645104885,-0.006146381609141827,-0.0012157517485320568
1772702714718219300,4.11221923828125,0.00125550024677068,-0.0007877256721258163,-0.001321851508691907
1772702714728269300,4.122269287109375,-0.0027405726723372936,0.0020243064500391483,0.003123230766505003
1772702714738319400,4.1323193359375,0.0018908632919192314,-0.00465933745726943,0.00207483465783298
1772702714748369400,4.142369384765625,0.0002945645246654749,-0.000689629465341568,0.00040769579936750233
1772702714758419200,4.152419189453125,0.0008630716474726796,0.0029415227472782135,-0.0006796242669224739
1772702714768469200,4.16246923828125,-0.0017372387228533626,0.008282226510345936,-0.0007632474880665541
1772702714778519300,4.172519287109375,0.0007632240303792059,0.012161582708358765,-0.0000967431697063148
1772702714788569300,4.1825693359375,-0.0015310893068090081,0.008956201374530792,-0.0017460386734455824
1772702714798619400,4.192619384765625,-0.004308808594942093,0.007626501843333244,-0.0033082475420087576
1772702714808669400,4.20266943359375,-0.004461940377950668,-0.00006843544542789459,-0.00005120143759995699
1772702714818719500,4.212719482421875,-0.005874864757061005,-0.004547218792140484,-0.0016015926375985146
1772702714828769500,4.22276953125,-0.005747033283114433,-0.002665429376065731,-0.004063684958964586
1772702714838819300,4.2328193359375,-0.007693315856158733,-0.0043455990962684155,-0.0005757397739216685
1772702714848869400,4.242869384765625,-0.004710841458290815,-0.002035573124885559,-0.0017888095462694764
1772702714858919400,4.25291943359375,-0.0008866464486345649,0.0011297203600406647,0.005183508154004812
1772702714868969500,4.262969482421875,0.0019829096272587776,0.006282937712967396,0.0022790643852204084
1772702714879019300,4.273019287109375,0.001208610599860549,0.009425323456525803,0.0017952693160623312
1772702714889069300,4.2830693359375,0.0018738682847470045,0.011861050501465797,0.0045588319189846516
1772702714899119400,4.293119384765625,0.002454987959936261,0.008811373263597488,0.004358937498182058
1772702714909169400,4.30316943359375,-0.00047768501099199057,0.0010024509392678738,0.002652916591614485
1772702714919219500,4.313219482421875,-0.0002485116710886359,-0.004058839753270149,0.000590034294873476
1772702714929269500,4.32326953125,0.0014095723163336515,-0.0027536246925592422,0.0016196123324334621
1772702714939319300,4.3333193359375,0.0013463328359648585,-0.0063620805740356445,0.0028077545575797558
1772702714949369300,4.343369384765625,-0.0010172226466238499,-0.003278672695159912,0.0000990533153526485
1772702714959418600,4.353418701171875,-0.0016829933738335967,-0.0013567632995545864,-0.000007099239155650139
1772702714969468400,4.363468505859375,-0.00001026177778840065,-0.0021005840972065926,0.00017612622468732297
1772702714979518500,4.3735185546875,-0.00048149365466088057,0.0020079961977899075,-0.00010207237210124731
1772702714989568500,4.383568603515625,-0.0005763020599260926,0.002433303277939558,0.0014438927173614502
1772702714999618600,4.39361865234375,0.0002718972973525524,0.0011750501580536366,0.0013782689347863197
1772702715009668400,4.40366845703125,-0.00009029265493154526,-0.0016969027929008007,0.002143128775060177
1772702715019718400,4.413718505859375,0.0008060651598498225,-0.00278629083186388,0.0014388833660632372
1772702715029768400,4.4237685546875,0.0024838566314429045,0.005211181472986937,0.0005981234717182815
1772702715039818500,4.433818603515625,0.0019496623426675797,0.0035004504024982452,0.005325985606759787
1772702715049868300,4.443868408203125,0.0009973158594220877,0.000044199638068675995,0.001628452679142356
1772702715059918300,4.45391845703125,-0.0009688070276752114,-0.004607316106557846,-0.0004887678078375757
1772702715069968400,4.463968505859375,-0.0001877020113170147,-0.006563674658536911,0.0002185678167734295
1772702715080018400,4.474018310546875,-0.0007686619646847248,-0.006868117954581976,-0.00508000236004591
1772702715090068200,4.484068115234375,0.00269051780924201,-0.004959164187312126,-0.00441873911768198
1772702715100118300,4.4941181640625,0.0015885375905781984,-0.0023071053437888622,-0.001328455051407218
1772702715110168600,4.50416845703125,-0.000003500026650726795,0.0011864295229315758,-0.0007827734225429595
1772702715120218600,4.514218505859375,0.0029182182624936104,0.001868115272372961,0.0009307522559538484
1772702715130268400,4.524268310546875,0.0009123252821154892,0.00000496814027428627,0.0008212963584810495
1772702715140318500,4.534318359375,0.004690360743552446,-0.0012249844148755074,0.004342961590737104
1772702715150368500,4.544368408203125,0.004663462750613689,-0.006586993113160133,0.0022627662401646376
1772702715160418600,4.55441845703125,0.0024439888074994087,-0.00469890795648098,0.00003694463521242142
1772702715170468600,4.564468505859375,0.005392640829086304,-0.0001939050853252411,0.00018182059284299612
1772702715180518400,4.574518310546875,0.004236012697219849,0.00033801840618252754,-0.0007008608663454652
1772702715190568400,4.584568359375,0.0036815423518419266,-0.003746737726032734,0.004276054445654154
1772702715200618500,4.594618408203125,-0.000196960405446589,-0.0034430925734341145,0.0021992663387209177
1772702715210668500,4.60466845703125,-0.0017407949781045318,-0.0050047701224684715,0.00026767558301799
1772702715220717300,4.61471728515625,0.0029828264378011227,-0.002407992724329233,0.00346012064255774
1772702715230767600,4.624767578125,-0.00017168780323117971,-0.0050314730033278465,0.001397502375766635
1772702715240817700,4.634817626953125,0.003278784453868866,-0.006123305298388004,0.0031346306204795837
1772702715250867500,4.644867431640625,0.002826846204698086,-0.00862880703061819,0.006365310866385698
1772702715260917500,4.65491748046875,0.001846908126026392,-0.003146018832921982,0.003859379794448614
1772702715270967600,4.664967529296875,0.00493484316393733,0.00006628595292568207,0.0018937005661427975
1772702715281017600,4.675017578125,0.0033560162410140038,0.0019940100610256195,0.0037412988021969795
1772702715291067400,4.6850673828125,0.003570400644093752,0.0008967872709035873,0.0034092022106051445
1772702715301117400,4.695117431640625,0.0011070820037275553,-0.0017401361837983131,0.0026345918886363506
1772702715311167500,4.70516748046875,-0.0010082669323310256,-0.00028525153174996376,0.0013525462709367275
1772702715321217500,4.715217529296875,0.000644881569314748,-0.004547329153865576,0.005165871232748032
1772702715331267300,4.725267333984375,-0.0020731405820697546,-0.004057041369378567,0.0005210523959249258
1772702715341317400,4.7353173828125,-0.0010448383400216699,-0.009013194590806961,-0.0004434850998222828
1772702715351367400,4.745367431640625,-0.0021793446503579617,-0.008571109734475613,0.0007919553900137544
1772702715361417500,4.75541748046875,-0.0005030825268477201,-0.008575314655900002,0.0006616123137064278
1772702715371467300,4.76546728515625,-0.0010690042981877923,-0.005923605524003506,0.0010775980772450566
1772702715381517300,4.775517333984375,-0.0015251489821821451,-0.0012740017846226692,-0.0021234608720988035
1772702715391567400,4.7855673828125,-0.0021651065908372402,0.0020046159625053406,-0.0009996069129556417
1772702715401617400,4.795617431640625,-0.0009024942992255092,0.008415274322032928,-0.002209436148405075
1772702715411667500,4.80566748046875,-0.0017147584585472941,-0.0009084520861506462,-0.0032818911131471395
1772702715421717500,4.815717529296875,-0.0017188778147101402,-0.008004222065210342,-0.001548117958009243
1772702715431767600,4.825767578125,0.000837490486446768,-0.007485971320420504,-0.004730328917503357
1772702715441817600,4.835817626953125,-0.0021940921433269978,-0.0028487457893788815,-0.003100576577708125
1772702715451867400,4.845867431640625,-0.0033573610708117485,0.00033053522929549217,-0.004441744647920132
1772702715461917400,4.85591748046875,-0.0025302451103925705,0.004578121472150087,-0.004290316719561815
1772702715471967500,4.865967529296875,-0.0012862825533375144,0.004280645865947008,-0.003358476795256138
1772702715482017500,4.876017578125,-0.003395337611436844,0.007847977802157402,-0.0032362958882004023
1772702715492066300,4.88606640625,-0.0051567526534199715,0.008636007085442543,-0.0023121789563447237
1772702715502116400,4.896116455078125,-0.005527632776647806,-0.0005226312205195427,-0.0036745937541127205
1772702715512166400,4.90616650390625,-0.004251446109265089,-0.004322429187595844,-0.0019403434125706553
1772702715522216400,4.916216552734375,-0.0024347687140107155,-0.009151333943009377,-0.0010244962759315968
1772702715532266500,4.9262666015625,-0.0033580861054360867,-0.008629887364804745,-0.0032897810451686382
1772702715542316500,4.936316650390625,-0.0008611528901383281,-0.009330809116363525,-0.00436915410682559
1772702715552366600,4.94636669921875,-0.0013226786395534873,-0.009078341536223888,-0.0033028244506567717
1772702715562416600,4.956416748046875,0.0006058933213353157,-0.009294817224144936,-0.002703605219721794
1772702715572466400,4.966466552734375,0.0006596891907975078,-0.004398063290864229,-0.003307876642793417
1772702715582516500,4.9765166015625,0.00084406923269853,0.0029474287293851376,-0.006381704937666655
1772702715592566500,4.98656640625,0.0003420633729547262,0.0045533147640526295,-0.005984627641737461
1772702715602616600,4.996616455078125,-0.00033936044201254845,-0.0014640316367149353,-0.00724461954087019
1772702715612666400,5.006666259765625,-0.0031865458004176617,-0.009382141754031181,-0.00619080662727356
1772702715622716400,5.01671630859375,-0.0035635940730571747,-0.018290158361196518,-0.0062730382196605206
1772702715632766500,5.026766357421875,-0.002661048900336027,-0.019610822200775146,-0.004887661896646023
1772702715642816500,5.03681640625,-0.0033995192497968674,-0.017004311084747314,-0.004117853008210659
1772702715652866300,5.0468662109375,-0.0017363751539960504,-0.012995453551411629,-0.0016371184028685093
1772702715662916400,5.056916259765625,-0.0028655182104557753,-0.002852989826351404,0.0007146698771975935
1772702715672966400,5.06696630859375,-0.004550766199827194,0.0007476033642888069,0.0035895523615181446
1772702715683016400,5.077016357421875,-0.0008563591400161386,0.006447088439017534,0.003180907340720296
1772702715693066200,5.087066162109375,0.000873896642588079,0.005683826748281717,0.00494471937417984
1772702715703116500,5.097116455078125,-0.00046711252070963383,0.009875772520899773,0.004899877123534679
1772702715713166600,5.10716650390625,-0.0027694152668118477,0.006170250941067934,0.00722162052989006
1772702715723216600,5.117216552734375,-0.002712714020162821,-0.00043046893551945686,0.006609470583498478
1772702715733266400,5.127266357421875,-0.00400221673771739,-0.004785269498825073,0.007760222535580397
1772702715743316500,5.13731640625,-0.003969869110733271,-0.001403008121997118,0.008555122651159763
1772702715753366500,5.147366455078125,-0.0023421451915055513,0.0001160590909421444,0.009995359927415848
1772702715763415300,5.157415283203125,-0.0017152911750599742,0.002515041269361973,0.009236562997102737
1772702715773465300,5.16746533203125,-0.0044434331357479095,0.003833306021988392,0.010563616640865803
1772702715783515400,5.177515380859375,0.0015086005441844463,0.006548454985022545,0.013687247410416603
1772702715793565400,5.1875654296875,-0.002134870272129774,0.003865320235490799,0.011780424043536186
1772702715803615200,5.197615234375,-0.0030314328614622355,0.007484602741897106,0.012348955497145653
1772702715813665300,5.207665283203125,-0.0009778693784028292,0.004593474790453911,0.01227651722729206
1772702715823715300,5.21771533203125,0.00015016435645520687,0.00024420302361249924,0.013673929497599602
1772702715833765600,5.227765625,-0.0016557251801714301,-0.002348384354263544,0.008245342411100864
1772702715843815700,5.237815673828125,-0.0004663309082388878,0.0033388682641088963,0.010572565719485283
1772702715853865500,5.247865478515625,-0.003303130157291889,0.0020182072184979916,0.010533683933317661
1772702715863915500,5.25791552734375,-0.0025393622927367687,-0.0003709872253239155,0.008657599799335003
1772702715873965600,5.267965576171875,-0.0033673387952148914,0.0013723177835345268,0.010631534270942211
1772702715884015600,5.278015625,-0.0023202819284051657,-0.0021853717043995857,0.007709722965955734
1772702715894065400,5.2880654296875,-0.0024169546086341143,-0.0021803113631904125,0.009288445115089417
1772702715904115500,5.298115478515625,-0.0026694475673139095,-0.003982545807957649,0.010377789847552776
1772702715914165500,5.30816552734375,-0.001861977158114314,-0.005123177543282509,0.011812700890004635
1772702715924215000,5.318215087890625,-0.0013663083082064986,-0.0025909030809998512,0.012799439951777458
1772702715934264000,5.32826416015625,0.0005482382257468998,0.005085658747702837,0.011896096169948578
1772702715944314000,5.338314208984375,0.0022282288409769535,0.002782195806503296,0.013656619004905224
1772702715954364200,5.3483642578125,0.0001866496168076992,0.003045848570764065,0.01565851829946041
1772702715964414200,5.358414306640625,0.0004939362406730652,-0.0006727064028382301,0.011599595658481121
1772702715974464300,5.36846435546875,0.0007735681720077991,0.0010458314791321754,0.014162355102598667
1772702715984514000,5.37851416015625,0.003205566667020321,-0.0017254543490707874,0.012061120942234993
1772702715994564000,5.388564208984375,-0.00015454343520104885,-0.003330008592456579,0.00951780192553997
1772702716004614100,5.3986142578125,0.0033681627828627825,0.0000953013077378273,0.005776381120085716
1772702716014664200,5.408664306640625,0.006031057797372341,-0.0039287349209189415,0.008352989330887794
1772702716024714000,5.4187138671875,0.00801556371152401,-0.0021783015690743923,0.0025295079685747623
1772702716034764000,5.428763916015625,0.008335143327713013,-0.0005646920762956142,0.0025771786458790302
1772702716044814000,5.43881396484375,0.006234750617295504,0.010647200047969818,-0.001088930875994265
1772702716054864100,5.448864013671875,0.00797086488455534,0.005929409060627222,-0.0031014815904200077
1772702716064914000,5.458913818359375,0.007208668626844883,-0.0042579807341098785,-0.002295875456184149
1772702716074964000,5.4689638671875,0.003340000519528985,-0.009779108688235283,-0.0069768112152814865
1772702716085014000,5.479013916015625,0.0042936960235238075,-0.01449885405600071,-0.00853278674185276
1772702716095064000,5.48906396484375,0.00521355215460062,-0.01617691107094288,-0.012100357562303543
1772702716105113900,5.49911376953125,0.003445845562964678,-0.013538281433284283,-0.012403102591633797
1772702716115164200,5.5091640625,0.004122022073715925,-0.008506238460540771,-0.011534912511706352
1772702716125214200,5.519214111328125,0.005750340409576893,-0.005810696631669998,-0.011587269604206085
1772702716135264300,5.52926416015625,0.00790323968976736,0.0014211172237992287,-0.011652251705527306
1772702716145314000,5.53931396484375,0.006285921670496464,0.00018318556249141693,-0.010041996836662292
1772702716155364000,5.549364013671875,0.005582048557698727,-0.003552963025867939,-0.011542155407369137
1772702716165414100,5.5594140625,0.004593606572598219,-0.003859178861603141,-0.012616794556379318
1772702716175464200,5.569464111328125,0.004372564144432545,0.0011560861021280289,-0.012891366146504879
1772702716185513000,5.579512939453125,0.003078144509345293,-0.0007364037446677685,-0.01402288954705
1772702716195563000,5.58956298828125,0.004936232231557369,-0.005966585595160723,-0.005692788399755955
1772702716205613000,5.599613037109375,0.00008979183621704578,-0.0035299654118716717,-0.0041466644033789635
1772702716215662800,5.609662841796875,0.00021948781795799732,0.004714381881058216,-0.004607657436281443
1772702716225713000,5.619712890625,0.004517872352153063,0.003166536334902048,-0.0058337789960205555
1772702716235763200,5.62976318359375,0.0029836255125701427,0.003651497419923544,-0.005517129320651293
1772702716245813200,5.639813232421875,0.003957649692893028,-0.0004791948013007641,-0.004111144691705704
1772702716255863300,5.64986328125,0.0031203520484268665,-0.0027535343542695045,-0.0020618417765945196
1772702716265913000,5.6599130859375,0.00434495322406292,0.0023989486508071423,-0.0028696293011307716
1772702716275963100,5.669963134765625,0.004480774514377117,0.0009139697067439556,-0.006520024500787258
1772702716286013200,5.68001318359375,0.0027718422934412956,-0.0033066999167203903,-0.0031478204764425755
1772702716296063200,5.690063232421875,0.0036165970377624035,-0.0007604514248669147,-0.0029611331410706043
1772702716306113000,5.700113037109375,0.001550578512251377,0.005989753175526857,-0.004256388638168573
1772702716316163000,5.7101630859375,0.0028786968905478716,0.001749733928591013,-0.0052287089638412
1772702716326213000,5.720213134765625,-0.0011276560835540295,-0.00600552000105381,-0.008481125347316265
1772702716336263200,5.73026318359375,-0.00043283740524202585,-0.005632677581161261,-0.005760972388088703
1772702716346313000,5.74031298828125,0.0005622983444482088,0.0006043063476681709,-0.003505588276311755
1772702716356363000,5.750363037109375,-0.0002161436714231968,0.0025361627340316772,-0.00255563878454268
1772702716366413000,5.7604130859375,-0.001155024510808289,0.0016815834678709507,-0.004896671511232853
1772702716376463000,5.770463134765625,0.0020037509966641665,0.0034488574601709843,-0.00224496191367507
1772702716386513000,5.780512939453125,0.0015384088037535548,0.005189803428947926,-0.001384221250191331
1772702716396563000,5.79056298828125,0.0026651923544704914,0.001797468401491642,0.00035562191624194384
1772702716406613000,5.800613037109375,-0.0019860805477946997,0.0007344451732933521,-0.002320961095392704
1772702716416663300,5.810663330078125,-0.0018433351069688797,0.00003483239561319351,-0.0017398594645783305
1772702716426713000,5.820713134765625,-0.0014718242455273867,0.00222554849460721,-0.003675444982945919
1772702716436763100,5.83076318359375,-0.0015495885163545609,-0.0025508305989205837,-0.0015438507543876767
1772702716446813200,5.840813232421875,-0.000774650601670146,-0.0013017929159104824,-0.003866925137117505
1772702716456863200,5.85086328125,-0.0028066423255950212,-0.001400595996528864,-0.0025798194110393524
1772702716466913000,5.8609130859375,0.00027744530234485865,0.0020720232278108597,-0.0014308292884379625
1772702716476963000,5.870963134765625,0.0006329772877506912,0.006713912822306156,-0.0004888690891675651
1772702716487012000,5.88101220703125,-0.0019189435988664627,0.0025814203545451164,-0.0014853731263428926
1772702716497062000,5.891061767578125,-0.002035856479778886,0.006989751011133194,-0.000037945108488202095
1772702716507112000,5.90111181640625,-0.003679032437503338,0.012915650382637978,-0.003757628845050931
1772702716517162000,5.911161865234375,-0.003924043383449316,0.015070946887135506,-0.003803435480222106
1772702716527212000,5.9212119140625,-0.0037103542126715183,0.006755099631845951,-0.004065918270498514
1772702716537262000,5.931261962890625,-0.005074691493064165,0.0018277186900377274,0.0013618702068924904
1772702716547312000,5.94131201171875,-0.0053584217093884945,-0.0028744987212121487,-0.001506458967924118
1772702716557362200,5.951362060546875,-0.0037940810434520245,0.0006701690144836903,-0.001532824244350195
1772702716567412200,5.961412109375,-0.005272606387734413,0.00092305988073349,-0.00011272047413513064
1772702716577462000,5.9714619140625,-0.0031221038661897182,0.0033523952588438988,0.00012190401321277022
1772702716587512000,5.981511962890625,-0.0026933965273201466,0.008045261725783348,0.00043871390516869724
1772702716597562000,5.99156201171875,-0.0004827065858989954,0.01797698810696602,0.0021295549813658
1772702716607612200,6.001612060546875,-0.0021573295816779137,0.016987701877951622,-0.000639508303720504
1772702716617662200,6.011662109375,-0.002335228957235813,0.014477405697107315,-0.0021050458308309317
1772702716627712000,6.0217119140625,-0.0025656463112682104,0.009683839976787567,-0.002293903147801757
1772702716637762000,6.031761962890625,-0.0041654072701931,0.003397715277969837,-0.0013407578226178885
1772702716647812000,6.04181201171875,-0.006171931512653828,0.00002591637894511223,-0.0052415463142097
1772702716657862100,6.051862060546875,-0.00393008254468441,0.001422744244337082,-0.0009562539053149521
1772702716667912000,6.061911865234375,-0.00290825217962265,0.007934629917144775,-0.003706922521814704
1772702716677962000,6.0719619140625,-0.0018464497989043593,0.009801505133509636,-0.0038890826981514692
1772702716688012000,6.082011962890625,-0.002029142342507839,0.008888041600584984,-0.0042789694853127
1772702716698062000,6.09206201171875,-0.001918887603096664,0.015417579561471939,-0.006279003340750933
1772702716708112100,6.102112060546875,-0.0019859992899000645,0.007606262341141701,-0.0063652899116277695
1772702716718162200,6.112162109375,-0.0006823820294812322,0.006485870108008385,-0.007028150837868452
1772702716728212200,6.122212158203125,-0.00034231552854180336,0.007977599278092384,-0.004933948628604412
1772702716738262300,6.13226220703125,-0.0005218125879764557,0.006508068181574345,-0.0024071414954960346
1772702716748312000,6.14231201171875,0.0009665857069194317,0.0026142760179936886,-0.0067262547090649605
1772702716758362000,6.152362060546875,-0.003050792496651411,0.003429470118135214,-0.0029746596701443195
1772702716768412200,6.162412109375,0.003703577909618616,0.0023198872804641724,-0.0034033223055303097
1772702716778462200,6.172462158203125,0.00015278533101081848,0.004260266199707985,-0.0014834494795650244
1772702716788512000,6.182511962890625,-0.0010825528297573328,0.012661973014473915,-0.0028517283499240875
1772702716798562000,6.19256201171875,-0.0017555335070937872,0.019291114062070847,-0.002344129839912057
1772702716808611000,6.202611083984375,-0.0028840587474405766,0.012832198292016983,-0.004301872570067644
1772702716818660900,6.212660888671875,-0.005557073280215263,0.006002787500619888,-0.0050451611168682575
1772702716828711000,6.2227109375,-0.007333872839808464,0.001843087375164032,-0.0073044802993535995
1772702716838761200,6.23276123046875,-0.006873412057757378,0.0019781095907092094,-0.005707382224500179
1772702716848811300,6.242811279296875,-0.006663123611360788,0.008000345900654793,-0.0011156144319102168
1772702716858861000,6.252861083984375,-0.0061589875258505344,0.011920785531401634,-0.00025647867005318403
1772702716868911000,6.2629111328125,-0.0065369089134037495,0.007926670834422112,0.004127774853259325
1772702716878961200,6.272961181640625,-0.001942689879797399,0.005325560923665762,0.002269953954964876
1772702716889011200,6.28301123046875,-0.0006117841694504023,0.008579456247389317,0.005967698525637388
1772702716899061000,6.29306103515625,-0.00151539477519691,0.0090801315382123,0.002182281343266368
1772702716909111000,6.303111083984375,0.0005339258350431919,0.011105107143521309,0.0042623188346624374
1772702716919161000,6.3131611328125,-0.0006594365695491433,0.011222818866372108,0.004187750164419413
1772702716929211100,6.323211181640625,0.0016866428777575493,0.005677553825080395,0.005282897502183914
1772702716939261000,6.333260986328125,-0.0001336276764050126,0.005568630062043667,0.006337775848805904
1772702716949311000,6.34331103515625,-0.0033376768697053194,0.009359373711049557,0.0011363555677235126
1772702716959361000,6.353361083984375,-0.005084177479147911,0.0014239521697163582,0.008556455373764038
1772702716969411000,6.3634111328125,0.0018394074868410826,-0.0021814038045704365,0.006203230936080217
1772702716979461000,6.373461181640625,-0.0016394798876717687,-0.002827220596373081,0.003172819735482335
1772702716989511000,6.383510986328125,-0.0022614318877458572,-0.0019192229956388474,0.002105053747072816
1772702716999561000,6.39356103515625,-0.002873959019780159,-0.001996987033635378,0.0036483556032180786
1772702717009611000,6.403611083984375,-0.0026152227073907852,0.0041809664107859135,0.003108852542936802
1772702717019661300,6.413661376953125,-0.0008705860236659646,0.008666794747114182,0.002386070555076003
1772702717029711000,6.423711181640625,-0.00314922584220767,0.008806265890598297,0.002660693833604455
1772702717039761200,6.43376123046875,-0.0012115099234506488,0.007872828282415867,-0.0003867613850161433
1772702717049811200,6.443811279296875,-0.0012043615570291877,0.0070557864382863045,0.003450855379924178
1772702717059861200,6.453861328125,-0.002383875660598278,0.00013769324868917465,0.0012601390480995178
1772702717069911000,6.4639111328125,-0.0018782841507345438,-0.0028002592734992504,0.0018505080370232463
1772702717079961000,6.473961181640625,-0.002572303870692849,-0.002394659910351038,-0.0010440816404297948
1772702717090011100,6.48401123046875,-0.0033978833816945553,-0.007981616072356701,-0.00017647765344008803
1772702717100061200,6.494061279296875,-0.003181368112564087,-0.01647843047976494,0.0019212942570447922
1772702717110111000,6.504111083984375,-0.0031337128020823,-0.009642452001571655,-0.0009702648385427892
1772702717120161000,6.5141611328125,-0.0016687080496922135,-0.004929722286760807,0.0030961157754063606
1772702717130211000,6.524211181640625,-0.0030447859317064285,0.002802151720970869,-0.001963621936738491
1772702717140260000,6.534260009765625,0.0009851092472672462,0.004478877875953913,-0.001755362842231989
1772702717150310100,6.54431005859375,0.0009923774050548673,0.005007938947528601,-0.0036028993781656027
1772702717160360200,6.554360107421875,-0.0009045922197401524,0.0029543754644691944,-0.004032467491924763
1772702717170410200,6.56441015625,-0.0017014502082020044,0.001935107633471489,-0.002458220114931464
1772702717180460000,6.5744599609375,-0.004602431319653988,-0.00018982868641614914,-0.003912040032446384
1772702717190510000,6.584510009765625,-0.0009039983851835132,-0.00020264368504285812,-0.0033449986949563026
1772702717200560000,6.59456005859375,-0.002726132981479168,-0.0013262317515909672,-0.002991863526403904
1772702717210610200,6.604610107421875,-0.0007743226597085595,-0.004810616839677095,-0.0007836770382709801
1772702717220660000,6.614659912109375,-0.003922445233911276,0.0018592695705592632,-0.0027485571336001158
1772702717230710000,6.6247099609375,-0.0002552090445533395,-0.00026915036141872406,-0.0011801705695688725
1772702717240760000,6.634760009765625,-0.003492813790217042,0.00559086911380291,-0.003630545223131776
1772702717250810000,6.64481005859375,0.0007101232768036425,0.006328320596367121,-0.0031557546462863684
1772702717260860000,6.65485986328125,-0.002330407965928316,0.008440207690000534,-0.0015826253220438957
1772702717270910000,6.664909912109375,0.00004392489790916443,0.009047010913491249,-0.00023197830887511373
1772702717280960000,6.6749599609375,-0.0039265817031264305,0.0066379159688949585,0.0024748584255576134
1772702717291010000,6.685010009765625,-0.0008228729711845517,0.0034151156432926655,0.00262383627705276
1772702717301059800,6.695059814453125,-0.0015605684602633119,0.0062718880362808704,-0.0018619922921061516
1772702717311110100,6.705110107421875,-0.002350743394345045,0.0027718734927475452,-0.0015431107021868229
1772702717321160200,6.71516015625,-0.00008971977513283491,0.0021691997535526752,-0.002323683351278305
1772702717331210200,6.725210205078125,-0.00192527926992625,0.0036605224013328552,-0.005511746741831303
1772702717341260000,6.735260009765625,-0.0009172727586701512,0.005375065840780735,-0.0014725306537002325
1772702717351310000,6.74531005859375,-0.0015564074274152517,0.007255599834024906,-0.00486897025257349
1772702717361360100,6.755360107421875,-0.0022307198960334063,0.0065530575811862946,-0.004075614735484123
1772702717371410200,6.76541015625,-0.000030316179618239403,0.009087914600968361,-0.007217875216156244
1772702717381460200,6.775460205078125,-0.000049224705435335636,0.0022475854493677616,-0.005217841360718012
1772702717391510000,6.785510009765625,0.0002038178499788046,0.0009968583472073078,-0.00608544796705246
1772702717401560000,6.79556005859375,0.0014714825665578246,0.0035822554491460323,-0.004981301259249449
1772702717411610000,6.805610107421875,0.00019373896066099405,0.0015850509516894817,-0.00701419822871685
1772702717421660200,6.81566015625,-0.0005002807592973113,0.0059462436474859715,-0.007370795588940382
1772702717431710000,6.8257099609375,0.000771212624385953,0.0000948924571275711,-0.0034758136607706547
1772702717441760000,6.835760009765625,-0.00136810471303761,-0.0011120522394776344,-0.004890484735369682
1772702717451810000,6.84581005859375,-0.0007283524610102177,0.02346561849117279,-0.006968442350625992
1772702717461860000,6.855860107421875,-0.003150497330352664,0.028915779665112495,-0.0013156170025467873
1772702717471909000,6.8659091796875,-0.003451189026236534,0.00677515147253871,-0.00516186049208045
1772702717481959200,6.875959228515625,-0.004013116005808115,-0.002032454591244459,-0.0031495760194957256
1772702717492009200,6.88600927734375,-0.0019200341776013374,0.01713818497955799,-0.0026597152464091778
1772702717502059000,6.89605908203125,-0.005519829224795103,0.032631658017635345,-0.010027349926531315
1772702717512109000,6.906109130859375,-0.004500082693994045,0.004496152047067881,-0.008616888895630836
1772702717522159000,6.9161591796875,0.0018012230284512043,0.011347666382789612,0.02746015600860119
1772702717532209200,6.926209228515625,-0.006986308842897415,0.08979921042919159,0.1958969384431839
1772702717542259000,6.936259033203125,-0.012437799945473671,-0.02710024267435074,0.162470281124115
1772702717552309000,6.94630908203125,-0.0028254473581910133,-0.07994124293327332,0.031355563551187515
1772702717562359000,6.956359130859375,-0.0027588685043156147,0.013884315267205238,-0.014962667599320412
1772702717572409000,6.9664091796875,-0.0020263362675905228,0.008304762654006481,-0.028043633326888084
1772702717582459000,6.976458984375,0.0007633249624632299,-0.03527706861495972,-0.04406441003084183
1772702717592509000,6.986509033203125,0.0012413655640557408,-0.02160697802901268,-0.05356689542531967
1772702717602559000,6.99655908203125,0.00470880139619112,-0.004143833182752132,-0.059417326003313065
1772702717612609000,7.006609130859375,-0.0012660230277106166,0.005665219854563475,-0.05140690878033638
1772702717622659000,7.0166591796875,0.002950559835880995,0.014509843662381172,-0.03936862200498581
1772702717632709000,7.026709228515625,0.0035416577011346817,0.012066258117556572,-0.025479329749941826
1772702717642759200,7.03675927734375,0.002633253578096628,0.000819195993244648,-0.02461167238652706
1772702717652809200,7.046809326171875,-0.002684997860342264,-0.008692754432559013,-0.017249681055545807
1772702717662859000,7.05685888671875,-0.001034636632539332,-0.014519484713673592,-0.0032137581147253513
1772702717672909000,7.066908935546875,-0.0064933993853628635,-0.006666416767984629,0.001846567029133439
