time,seconds_elapsed,z,y,x
1772702658086813200,0.067813232421875,0.07781155395507812,-0.041512452344596384,0.06563070229589939
1772702658096862200,0.0778623046875,0.07464286079108715,-0.05249386508613824,0.03215104202032089
1772702658106912300,0.087912353515625,0.004676467378437518,-0.04005962318778038,-0.007880524116754531
1772702658116962600,0.097962646484375,-0.03927987098693848,-0.044997664111852645,-0.006602174744009971
1772702658127012400,0.108012451171875,-0.08057984962463378,-0.007003741282224655,-0.012143442258238792
1772702658137062400,0.1180625,-0.04128653463423252,-0.0022825579792261123,0.024995909568667412
1772702658147112400,0.128112548828125,-0.002591185536980629,-0.006508943502604961,0.053417117410898204
1772702658157162500,0.13816259765625,0.014842472083866595,-0.005733282954990863,0.043296705412864685
1772702658167212300,0.14821240234375,-0.00495090040564537,-0.010603811600804328,0.06145546243786811
1772702658177261300,0.15826123046875,-0.009307342049479484,-0.016623218020796776,0.04171498917937279
1772702658187311400,0.168311279296875,-0.024860008229315278,-0.009484744442999363,0.029910569617152213
1772702658197361200,0.178361083984375,-0.005059621477127075,0.010789397300779819,0.024950316861271856
1772702658207411200,0.1884111328125,0.0004521276816725731,0.009370762674510478,0.015707272219657897
1772702658217461200,0.198461181640625,0.00412175610512495,-0.00971621511131525,0.021593992170691488
1772702658227511300,0.20851123046875,0.0013183891221880911,-0.0017994506374001502,0.025512042397260664
1772702658237561300,0.218561279296875,-0.007016893024742603,0.01786123538315296,0.01253916357755661
1772702658247611400,0.228611328125,0.00324555779248476,-0.015075404056906699,-0.0065653498649597165
1772702658257660400,0.238660400390625,-0.0022808044135570523,-0.00658434682637453,-0.008141805401444435
1772702658267710200,0.248710205078125,-0.009893032982945442,-0.001972176855802536,-0.01135842936038971
1772702658277760300,0.25876025390625,0.024478023174405096,-0.018375614646077156,0.0067488897383213035
1772702658287810300,0.268810302734375,0.011063245806097983,-0.008271861521899699,0.014285714983940124
1772702658297860400,0.2788603515625,-0.0013256956458091735,-0.0013119593814015387,0.0024777882903814314
1772702658307910400,0.288910400390625,-0.012570435498654841,0.003438450016081333,0.008121347135305405
1772702658317960200,0.298960205078125,-0.001899403880536556,0.0029500819772481915,0.007871171766519545
1772702658328010200,0.30901025390625,-0.010226210460066795,0.027722704184055327,-0.0025724808365106583
1772702658338059500,0.3190595703125,-0.0005132102191448212,0.027691432262957096,0.002689385214447975
1772702658348109300,0.329109375,-0.011319266393780707,0.019799509969353674,0.0010720131456851958
1772702658358159400,0.339159423828125,-0.017940438099205494,0.01789922930598259,-0.01020809028148651
1772702658368209400,0.34920947265625,-0.013503332434594631,-0.011864040794968604,-0.016492869639396668
1772702658378259500,0.359259521484375,-0.017380758389830588,0.0036237434551119802,0.0023936171382665634
1772702658388309200,0.369309326171875,-0.005084171396493912,-0.002622457458078861,0.0003752630531787872
1772702658398359300,0.379359375,0.0074962009742856025,0.005396013824641705,-0.0048036008894443505
1772702658408409300,0.389409423828125,0.008760521821677685,0.0005462357059121131,0.02323299154937267
1772702658418459400,0.39945947265625,0.026805297078192233,0.006900865429639816,0.05613046802282333
1772702658428508200,0.409508056640625,0.019920798261463642,0.014931027150154113,0.02965980972647667
1772702658438558500,0.419558349609375,-0.003703238432109356,0.037924949246644975,-0.007969371443986892
1772702658448608500,0.4296083984375,-0.02284486901462078,0.04379997875988483,-0.02063362270593643
1772702658458658300,0.439658203125,-0.04093611376136541,0.034272271957993504,-0.02063011557459831
1772702658468708400,0.449708251953125,-0.02655219909995794,0.018066110305488107,-0.028645664247870444
1772702658478758400,0.45975830078125,-0.009436229126155375,0.00554565142840147,-0.03235211755037307
1772702658488808400,0.469808349609375,0.009418985730409621,0.004950023622810841,-0.008598901519179344
1772702658498858200,0.479858154296875,0.012052256843447684,-0.0008557400465011596,0.003849661165475845
1772702658508907300,0.4899072265625,0.014965806202590465,0.004294774584472179,0.020341946282982824
1772702658518957300,0.499957275390625,-0.00012099603116512298,0.010353928492963313,-0.008398995032906531
1772702658529007400,0.51000732421875,-0.02257686572819948,0.02085720232874155,-0.0017079729616641998
1772702658539057200,0.52005712890625,-0.023441665863990782,0.02683335412889719,-0.005009937116503715
1772702658549107200,0.530107177734375,-0.028521745607256888,0.0321592253267765,-0.0010959785431623459
1772702658559157200,0.5401572265625,-0.017705168038606642,0.020122458313405513,-0.006903788039088248
1772702658569207600,0.55020751953125,-0.02481032386869192,0.029098668712377547,0.007554945424199104
1772702658579257300,0.56025732421875,-0.03047317193597555,-0.002412029577791691,0.010898410633206367
1772702658589306400,0.570306396484375,-0.009631751698255538,-0.011759995898604393,0.006859948897361755
1772702658599356400,0.5803564453125,0.005244914916157722,-0.00258066414296627,0.01471066239774227
1772702658609406200,0.59040625,0.005126549233496189,-0.014795710332691668,0.027384850531816482
1772702658619456300,0.600456298828125,-0.012814181126654148,-0.004812953239679336,0.032224691778421403
1772702658629506300,0.61050634765625,-0.022206278850138185,0.006344985112547874,0.004012158250808716
1772702658639556400,0.620556396484375,-0.013539280530810355,-0.011560673934221267,-0.005138531932234764
1772702658649606100,0.630606201171875,-0.029283962151408195,-0.009138415223360062,0.004594342052936554
1772702658659656200,0.64065625,-0.02799626042842865,-0.014340075519680976,0.0023556232154369355
1772702658669706200,0.650706298828125,-0.019408757086098193,0.003013210341334343,0.008107903131842613
1772702658679755300,0.66075537109375,-0.0075546531632542605,0.002622457458078861,0.007082651737332343
1772702658689805300,0.670805419921875,-0.0165828860104084,-0.009677928927540779,0.00029050737917423245
1772702658699855400,0.68085546875,-0.005534253251552581,0.016086919187009333,0.0030997195810079574
1772702658709905400,0.690905517578125,-0.015425824929773806,0.0308718158647418,-0.00566109450161457
1772702658719955200,0.700955078125,-0.013304010470211505,0.001265197630226612,-0.02637538122832775
1772702658730005200,0.711005126953125,-0.01641775857657194,-0.008903729684650898,-0.008496025666594504
1772702658740055300,0.72105517578125,-0.02251461414694786,-0.004748655831813812,0.04298632428944111
1772702658750105300,0.731105224609375,-0.02283347083777189,0.012291326296329497,0.06670329996347427
1772702658760155400,0.7411552734375,-0.021209376767277716,-0.005036532862484455,0.054476271075010296
1772702658770204400,0.751204345703125,0.007170330020785332,0.00403290877789259,0.01643383292853832
1772702658780254500,0.76125439453125,0.02410100655555725,0.0035942250996828075,-0.027459084811806676
1772702658790304500,0.771304443359375,-0.019499650239944457,0.003981763112545013,-0.0037210663497447964
1772702658800354300,0.781354248046875,-0.05440349809974432,0.005134148018062114,0.0017377835780382155
1772702658810404400,0.791404296875,-0.06166764388382435,-0.018354864118993282,-0.000834112736582756
1772702658820454400,0.801454345703125,-0.03042524114102125,-0.04876432316899299,-0.013984101688861847
1772702658830504400,0.81150439453125,-0.013600363068282604,-0.031125498364865778,-0.0012339257091283798
1772702658840554200,0.82155419921875,-0.015341361516714095,-0.023844985967874526,0.005026888251304626
1772702658850603300,0.831603271484375,-0.026105916637182234,-0.010485445918142796,-0.003994622594118118
1772702658860653300,0.8416533203125,-0.027604338501393794,0.003180383601784706,-0.0013397241711616515
1772702658870703900,0.851703857421875,-0.029261750319600103,-0.010697919625043868,0.0074848027974367135
1772702658880753700,0.861753662109375,-0.03953501479178667,-0.01650134520679712,0.017587094616889953
1772702658890803700,0.8718037109375,-0.035812487137317654,-0.01128565638512373,0.04400748403072357
1772702658900853800,0.881853759765625,-0.027511107259988784,0.004993278242647648,0.04330664228498936
1772702658910903800,0.89190380859375,-0.01100245552957058,-0.008683657193183899,0.047288405397534365
1772702658920953900,0.901953857421875,0.01800853489935398,0.008168693408370018,0.06804127056896686
1772702658931003000,0.9120029296875,-0.016490239290893077,0.018653554804623124,0.04358487470448017
1772702658941053000,0.922052978515625,-0.04598112219125032,0.013564122711122036,0.006667641195654868
1772702658951102700,0.932102783203125,-0.04009498676210642,0.021758827343583104,0.0023638065218925474
1772702658961152800,0.94215283203125,-0.03015811463743448,0.015393091703951358,-0.00024608371555805207
1772702658971202800,0.952202880859375,0.003099135059118271,-0.006822831757366657,0.0016898527830839156
1772702658981252900,0.9622529296875,0.003140343852341175,-0.00338671982884407,-0.003143558722734451
1772702658991302700,0.972302734375,0.00846446148455143,-0.015066051706671715,0.0003267477363348007
1772702659001352700,0.982352783203125,-0.004614800319075584,-0.014779635980725287,-0.02419336101412773
1772702659011402000,0.992402099609375,-0.022645547050237653,0.024174071791768073,-0.00954582698047161
1772702659021451800,1.00245166015625,-0.006091887134313583,0.025544191101193426,0.006365443378686905
1772702659031501800,1.012501708984375,-0.014259119237959384,0.011809972520172596,0.004960252755880356
1772702659041552000,1.0225517578125,0.004114449581503868,0.023433190296590328,0.007761281651258468
1772702659051602000,1.032601806640625,0.016086334665119648,0.02476151629090309,0.01602349856197834
1772702659061651700,1.042651611328125,0.009551672199368475,0.010717208847403526,0.010396890851855278
1772702659071701800,1.05270166015625,0.007844283759593963,0.0012450316250324249,0.023179215535521505
1772702659081751800,1.062751708984375,0.00563625232130289,-0.0009928104296326637,0.017903320959210395
1772702659091801900,1.0728017578125,0.008755553385615348,0.022081191165745258,-0.002976385462284088
1772702659101850600,1.0828505859375,0.0009302665874361991,0.005818915411829948,0.004489128112792969
1772702659111901000,1.09290087890625,-0.01076017120629549,0.010222411067783831,-0.0037350948750972746
1772702659121951000,1.102950927734375,-0.0034451720178127285,0.01899462332725525,-0.007599953609704971
1772702659132001000,1.1130009765625,0.017792261800169944,0.014523907653987407,0.01090659393966198
1772702659142050800,1.12305078125,0.020862170764803886,0.0041501054167747495,0.006488777497410773
1772702659152100900,1.133100830078125,0.010815700785815716,0.013373276314139365,0.0038408933371305463
1772702659162151000,1.14315087890625,0.017230536264181136,0.008773673564195632,0.02523380997776985
1772702659172201000,1.153200927734375,0.018068740653991697,0.0324272286131978,0.013630465945601463
1772702659182249700,1.163249755859375,0.01136748944967985,0.04248246642053127,0.006993804410099983
1772702659192299800,1.1732998046875,0.018255787658691406,0.0385185312256217,0.006932429611682891
1772702659202349800,1.183349853515625,-0.001685176607966423,0.03442980060726404,-0.010675707793235779
1772702659212399600,1.193399658203125,0.012314122650027274,0.010991641874611376,0.010994856745004652
1772702659222449700,1.20344970703125,0.005231470912694931,0.02690817293077707,0.003986439287662506
1772702659232499700,1.213499755859375,0.015667524731159208,0.026145664125680923,0.0063087447553873055
1772702659242550000,1.223550048828125,0.012179098093509673,0.005845218896865845,-0.008661445361375808
1772702659252599800,1.233599853515625,-0.0012613982379436493,0.006935936743021011,-0.005557049605250358
1772702659262648800,1.24364892578125,-0.0034890111595392223,0.006404314084351062,0.017042904737591742
1772702659272699000,1.253698974609375,0.025592706418037414,0.015924714362621308,0.01668693090677261
1772702659282749000,1.2637490234375,0.03106061643511057,0.006457213315367698,0.02756488327383995
1772702659292798700,1.273798828125,0.027202187441289424,-0.004246843789517879,0.03656125967800617
1772702659302848800,1.283848876953125,-0.0004658639460802078,0.0073828037276864045,0.03683130879104137
1772702659312898800,1.29389892578125,0.007982230925559997,0.02284223866611719,-0.0046446109354496
1772702659322948900,1.303948974609375,0.005197568643093109,0.021173720932006836,0.00037000235617160797
1772702659332998700,1.31399853515625,0.005510872375965118,0.0073655603319406505,0.02551438048481941
1772702659343048000,1.3240478515625,0.020228256775438783,0.01933218471854925,0.00810673408806324
1772702659353098000,1.334097900390625,0.019383038122951984,0.011625555863976478,0.01657937887907028
1772702659363147800,1.344147705078125,0.0013125439032912255,-0.0001949380502104759,-0.012806874603033066
1772702659373197800,1.35419775390625,0.0014841010779142378,0.01275660572052002,-0.004279869276285171
1772702659383248000,1.364247802734375,-0.004898585696518421,-0.01884469346255064,0.01633329516351223
1772702659393298000,1.3742978515625,-0.008311901271343231,-0.010514379751682281,0.004722352346777915
1772702659403347700,1.38434765625,0.0016267244189977644,-0.01762245819121599,0.041835985210537906
1772702659413397800,1.394397705078125,0.030531331863999363,-0.0288370951667428,0.0437491253554821
1772702659423447800,1.40444775390625,0.04165624472945929,-0.016144494593143464,0.02956511718034744
1772702659433496800,1.414496826171875,0.03197480867058038,-0.005427870267629623,0.012620412120223044
1772702659443547000,1.424546875,0.0062421092599630355,-0.0021077859342098237,-0.011506313398480414
1772702659453597000,1.434596923828125,-0.011672317615151405,0.01601034681946039,0.00445464132130146
1772702659463647000,1.44464697265625,-0.020044424641132354,0.012742284934222697,0.02632686591148376
1772702659473696800,1.45469677734375,-0.007858604545891285,0.005822422543168068,0.032605215528607366
1772702659483746800,1.464746826171875,0.0011006547182798386,-0.008079553820192813,0.049915831291675566
1772702659493796900,1.474796875,0.03301525763422251,0.0012815642431378365,0.02652794144153595
1772702659503847000,1.484846923828125,0.04309650666564703,-0.00265343711823225,0.01753448764681816
1772702659513895700,1.494895751953125,0.02729483416080475,0.02126023017168045,0.01189560497701168
1772702659523945700,1.50494580078125,0.013331775259971618,0.004252981269359589,0.021132219877839087
1772702659533995800,1.514995849609375,-0.003344341991841793,0.020382862815260885,0.0003314239114522934
1772702659544045800,1.5250458984375,0.0005842296287417412,0.0022089082211256025,-0.006166705936193466
1772702659554095900,1.535095947265625,-0.015153729990124702,0.011653028392791748,-0.01719780303835869
1772702659564146000,1.54514599609375,-0.0130406833589077,0.0021072014123201368,0.008359247544407844
1772702659574196000,1.555196044921875,-0.030775662013888358,-0.0011596914291381836,0.0027291327029466627
1772702659584246000,1.56524609375,-0.03223579769432545,-0.005350128856301308,0.024312018957734105
1772702659594294800,1.575294677734375,-0.015852818170189856,-0.016506605903804303,0.02611877611875534
1772702659604344800,1.5853447265625,-0.01730652410984039,-0.02018237180709839,0.01900631376504898
1772702659614395000,1.595394775390625,-0.009399696508049964,-0.02059095260798931,0.03163900084495544
1772702659624444700,1.605444580078125,-0.016515081471204757,-0.013685118742287158,0.03225742500424385
1772702659634494700,1.61549462890625,-0.007899228817224503,-0.006697451812028884,0.0384422511190176
1772702659644544800,1.625544677734375,-0.016308160722255705,0.021960195134580134,0.0523760839253664
1772702659654594800,1.6355947265625,-0.026442601245641708,0.02697393164336681,0.014892448705434798
1772702659664644600,1.64564453125,-0.0065653498649597165,0.022511399276554583,0.002359130346775055
1772702659674694000,1.65569384765625,-0.0021887422159314156,0.042052258309721945,-0.005607903009653091
1772702659684744000,1.665743896484375,0.009836042098701,0.028367139567434786,-0.009871990194916724
1772702659694794000,1.6757939453125,0.004962298582494259,8.767828345298767e-7,0.012362637966871261
1772702659704843800,1.68584375,-0.007106324873864651,-0.016235095486044883,0.01538870778977871
1772702659714893800,1.695893798828125,0.012012509354948997,-0.004924012398719787,0.005811901149153709
1772702659724944000,1.70594384765625,0.008171616017818451,0.003054419134557247,-0.0030512042641639707
1772702659734994000,1.715993896484375,0.0007806289836764335,0.014263503152132033,-0.01633329516351223
1772702659745043700,1.726043701171875,-0.007519581849873065,0.044130233627557754,-0.009176409146189689
1772702659755092700,1.7360927734375,0.02045066735446453,0.038868075315654275,-0.024198621711134908
1772702659765143000,1.74614306640625,0.01381751295030117,0.03307604791074991,-0.016893267133831977
1772702659775192800,1.75619287109375,0.006757657566666603,0.023010288709402082,0.009329553881287575
1772702659785243000,1.766242919921875,0.0036506314620375633,0.006866086377203464,0.021406360644102094
1772702659795293000,1.77629296875,-0.01685118155777454,0.013677227696776388,0.024886603975296018
1772702659805343000,1.786343017578125,-0.004655424590408802,0.0008636310920119285,0.02034428437054157
1772702659815392800,1.796392822265625,-0.017208908954262733,-0.0024143676653504372,0.01797054097652435
1772702659825442800,1.80644287109375,-0.009641104048490523,0.00003185644298791885,-0.006410451564192772
1772702659835492900,1.816492919921875,0.006234510475397109,0.030825930896401402,-0.009300912308692932
1772702659845541600,1.826541748046875,-0.00047872342765331263,0.04895633860975503,-0.010606734210252761
1772702659855591700,1.836591796875,-0.00007920271605253219,0.02232932070791721,-0.0035439562171697614
1772702659865641700,1.846641845703125,0.007827040363848209,0.011598083335161208,0.016420973446965217
1772702659875691500,1.85669140625,-0.018524959988892076,0.017544716779887674,0.018083938223123548
1772702659885741600,1.866741455078125,-0.013522329396009444,0.0044493806242942805,0.014186346262693404
1772702659895791600,1.87679150390625,-0.01169774431735277,0.002564297530055046,0.008524667239189147
1772702659905841400,1.88684130859375,-0.0028568507358431813,0.009027063803374766,0.007917933517694473
1772702659915891500,1.896891357421875,0.008986147271096706,0.010737374852597712,0.01600947003662586
1772702659925940500,1.9069404296875,0.02731558468788862,0.005244330394268036,0.018786533534526823
1772702659935990300,1.916990234375,0.007694061633944511,0.022721827156841755,0.0036520927667617795
1772702659946040300,1.927040283203125,-0.008419453299045563,0.0036181904971599576,0.01602642117142677
1772702659956090400,1.93709033203125,-0.01629354767501354,-0.0004617722928524017,0.016631401327252385
1772702659966140400,1.947140380859375,-0.007045242336392402,-0.00044072950482368465,-0.0028740941315889357
1772702659976190500,1.9571904296875,0.000535129790008068,0.011183072793483734,-0.011274842730164528
1772702659986240500,1.967240478515625,0.030333178943395614,0.011481471218168735,0.013607085070014
1772702659996290600,1.97729052734375,0.023696517407894132,-0.003181552645564079,0.026747721672058102
1772702660006339600,1.987339599609375,0.01167728605121374,0.007898936556279658,0.031472996628284455
1772702660016389400,1.997389404296875,-0.010397475373744964,0.0006733692169189453,0.004804185411334038
1772702660026439400,2.007439453125,-0.014856792870163917,-0.011368658493459223,0.02310848838686943
1772702660036489500,2.017489501953125,-0.0029006898775696755,-0.01426408767402172,0.02856441570520401
1772702660046539500,2.02753955078125,0.026330665303766727,-0.012644962039589881,0.01980243257880211
1772702660056589300,2.03758935546875,0.01906155108362436,0.007243979778885841,0.024860885012149808
1772702660066639400,2.047639404296875,0.014516893391311167,0.0053708793833851815,0.00887830298244953
1772702660076689400,2.057689453125,0.018040099081397056,0.009613923780620098,0.00584931055009365
1772702660086738400,2.067738525390625,0.009751578685641289,-0.00607113660722971,0.020425532913208005
1772702660096788500,2.07778857421875,-0.013945230983197688,-0.001619125634431839,0.01907294926047325
1772702660106838500,2.087838623046875,-0.007072714865207672,-0.01387976453155279,0.007234042906761169
1772702660116888600,2.097888671875,-0.000015197569131851195,-0.0032549101427197455,-0.010955693778395652
1772702660126938400,2.1079384765625,-0.019555179819464683,0.02706950097233057,0.004321954852342606
1772702660136988400,2.117988525390625,0.0006666472151875496,0.004994155025482177,0.01992342860996723
1772702660147038500,2.12803857421875,0.011283026036620139,-0.0032131168276071545,0.04792611877918243
1772702660157088500,2.138088623046875,0.020702304027974603,-0.00854717133194208,0.024782559078931808
1772702660167137300,2.14813720703125,0.026344109307229517,0.000056990884244441985,0.008658522751927375
1772702660177187300,2.158187255859375,0.012439210334420204,-0.006027589726448059,0.0002776478976011276
1772702660187237400,2.1682373046875,-0.015327917513251304,-0.0218985280752182,-0.0014116203635931015
1772702660197287700,2.17828759765625,-0.015210720874369144,-0.0005558803170919418,0.033414778345823286
1772702660207337500,2.18833740234375,-0.0038663200393319126,-0.0005906593695282936,0.05017477448880672
1772702660217387500,2.198387451171875,0.006828092454373836,0.0157005502179265,0.03655775254666805
1772702660227437600,2.2084375,0.022438041779398916,0.0004436521142721176,0.029757424882054326
1772702660237487600,2.218487548828125,0.006386486166715622,0.00758650960624218,0.01669803682267666
1772702660247537400,2.228537353515625,0.016149170768260956,0.014071779972314834,0.0026005378872156143
1772702660257586400,2.23858642578125,0.0022457331001758574,0.016369827781617642,-0.0019505495458841324
1772702660267636500,2.248636474609375,0.007668927192687988,0.022582710947096348,0.005403904870152473
1772702660277686300,2.258686279296875,0.008400164076685906,0.006587269435822963,0.01765606819987297
1772702660287736300,2.268736328125,0.005711071123182773,-0.020278817918896675,-0.000006429740786552429
1772702660297786400,2.278786376953125,-0.004971650932729244,0.001120236201584339,-0.012957096728682517
1772702660307836400,2.28883642578125,-0.02095510974526405,0.013541326357424258,-0.0005704933643341064
1772702660317886500,2.298886474609375,-0.016280395932495594,-0.012023323009908198,0.002148117944598198
1772702660327936500,2.3089365234375,-0.01714753415584564,-0.013807868339121341,0.0042968204110860825
1772702660337985500,2.318985595703125,-0.013134499122202395,-0.032382512688636775,0.017172668597102165
1772702660348035300,2.329035400390625,0.0038569676890969273,-0.015976736810803412,0.02912204958796501
1772702660358085400,2.33908544921875,-0.005180032986402511,0.0026212884142994878,0.029961423021554946
1772702660368135400,2.349135498046875,0.013522621656954288,0.01702683038562536,0.05357260023355484
1772702660378185500,2.359185546875,0.010544774889945983,0.00881342105269432,0.034577392384409905
1772702660388235300,2.3692353515625,-0.00011807342171669006,0.013320961605012416,0.03200315798223018
1772702660398285300,2.379285400390625,-0.008586626559495925,0.019375147077441215,0.028166356298327443
1772702660408335400,2.38933544921875,-0.003348725906014442,0.01903553985953331,0.003511222991347313
1772702660418384600,2.399384521484375,-0.0067991586208343505,0.03380903836041689,0.017401801177859305
1772702660428434400,2.409434326171875,0.007020107895135879,0.01784516103118658,0.002269113975763321
1772702660438484500,2.419484375,0.011058861891925334,0.023092121773958203,-0.002877601262927055
1772702660448534500,2.429534423828125,-0.0034288054049015043,-0.001325111123919487,-0.02937397852241993
1772702660458584600,2.43958447265625,-0.0037497079223394393,-0.007743161472678184,-0.017794015365839005
1772702660468634400,2.44963427734375,-0.00013385551273822782,-0.017354454904794692,-0.025566987454891204
1772702660478684400,2.459684326171875,-0.013235913670063017,0.014165303474664687,-0.01495557706952095
1772702660488734500,2.469734375,-0.00007423427999019622,0.01671703378409147,0.001322188514471054
1772702660498783200,2.479783203125,0.025215689799189565,0.010019289711117743,0.011116437298059462
1772702660508833500,2.48983349609375,0.021298224094510078,0.029260873536765573,0.01576338632106781
1772702660518883600,2.499883544921875,0.0011538462102413177,0.03804682206064462,0.010249591335654258
1772702660528933600,2.50993359375,-0.014199790266156196,0.03604395780563354,-0.0038888241320848465
1772702660538983400,2.5199833984375,-0.03339899625480175,0.026648352950811385,-0.008851999497413634
1772702660549033500,2.530033447265625,-0.03283288680464029,0.021511282323300837,0.0037391865283250805
1772702660559083500,2.54008349609375,-0.01888210286349058,0.017054010653495787,0.02601063956916332
1772702660569133600,2.550133544921875,-0.001403144796192646,-0.008295534658432007,0.01783259381055832
1772702660579182300,2.560182373046875,-0.00786269619911909,-0.012580664631724357,0.03120119394958019
1772702660589232400,2.570232421875,0.012269991247355937,-0.010653788222372531,0.01946516344845295
1772702660599282400,2.580282470703125,0.010851356621086597,0.012215046189725399,0.011323358047008514
1772702660609332500,2.59033251953125,0.007460545139014721,0.006535539248585701,0.017670681247115134
1772702660619382300,2.60038232421875,-0.0029369302347302434,0.022495032663643357,0.0037526305317878723
1772702660629432300,2.610432373046875,-0.029364041650295256,0.01596592315584421,0.021007716715335845
1772702660639482600,2.620482666015625,-0.0357668944299221,0.015203414350748061,0.022797522741556168
1772702660649532700,2.63053271484375,-0.02359597964286804,0.027450901505351066,0.015320318728685379
1772702660659582500,2.64058251953125,-0.001204115092754364,0.008852584019303321,0.017213585129380225
1772702660669631500,2.650631591796875,0.007500000366568565,0.011104162338376045,0.030212767434120175
1772702660679681500,2.660681640625,0.016855857732892037,0.02339431959092617,0.010817746612429619
1772702660689731300,2.6707314453125,0.015977613593637943,0.020161036758124827,0.002943652236461639
1772702660699781400,2.680781494140625,0.017232874351739882,0.022268238170444963,-0.003181552645564079
1772702660709831400,2.69083154296875,0.00943038390725851,0.010926467683911322,0.011437339815497398
1772702660719881500,2.700881591796875,0.014321955341100692,0.023110826474428175,0.013917466193437575
1772702660729931300,2.71093115234375,-0.017627426627278328,0.02131809783875942,-0.00033668460845947266
1772702660739981300,2.720981201171875,0.006749181999266147,0.004790741407871246,0.010364742147922516
1772702660750030600,2.731030517578125,-0.00006546645164489745,0.003673720076680183,0.033086277043819425
1772702660760080400,2.741080322265625,0.01250292322039604,0.0069081719532608984,0.02434241409599781
1772702660770130400,2.75113037109375,0.011316928306221961,-0.007995967189967632,0.026357261049747466
1772702660780180500,2.761180419921875,0.004175824379920959,0.0037359716579318043,0.013200257834792136
1772702660790230500,2.77123046875,-0.00017038813084363936,0.009684066407382487,0.0009428338080644607
1772702660800280300,2.7812802734375,0.007653729623556137,0.0022317045748233796,-0.018512977290153502
1772702660810330400,2.791330322265625,0.017156886506080625,-0.0026136896297335624,0.006694529202580452
1772702660820380400,2.80138037109375,0.0289721197232604,0.01688829869776964,0.015036825612187384
1772702660830429400,2.811429443359375,0.03420242159217596,0.01941109517365694,0.03958674497902393
1772702660840479500,2.8214794921875,0.007054302425682544,0.003480243331193924,0.045458267360925675
1772702660850529500,2.831529541015625,-0.016971300806105136,-0.007122691486775874,0.037027708145976064
1772702660860579600,2.84157958984375,0.005639467191696166,0.0030529578298330307,0.03787058871090412
1772702660870629600,2.851629638671875,-0.0011439093381166458,0.004774374794960022,0.01864683280289173
1772702660880679700,2.8616796875,0.004954992058873176,0.006638999623060226,0.00701660076379776
1772702660890729700,2.871729736328125,0.00768149441331625,0.009338906231522559,0.03182721689343452
1772702660900779500,2.881779541015625,0.004217033173143863,-0.008186229065060615,0.027902736926078794
1772702660910828500,2.89182861328125,0.0442851319283247,-0.005396890607476234,0.024098083946108816
1772702660920878600,2.901878662109375,0.0280681566208601,-0.007600830392539501,0.0074801266223192215
1772702660930928400,2.911928466796875,0.022578327032923697,0.020718086118996143,-0.013742694148421287
1772702660940978400,2.921978515625,0.0031917817786335945,0.012688508920371532,0.009407879814505577
1772702660951028500,2.932028564453125,-0.014033786049485205,0.019016250637173653,0.014519523739814758
1772702660961078500,2.94207861328125,-0.02163315513730049,0.012773849116265773,0.01206160919368267
1772702660971128600,2.952128662109375,-0.00807926155924797,0.016637831068038938,0.018151158240437507
1772702660981178600,2.9621787109375,0.011491408090293406,0.03536357432603836,0.024064766198396682
1772702660991227600,2.9722275390625,0.023214579109847543,0.012972002036869525,0.02847206124663353
1772702661001277700,2.982277587890625,0.040594752977788445,0.014777005632221698,0.01679389841258526
1772702661011327500,2.992327392578125,0.0460734766498208,-0.005818330889940261,0.008126023310422897
1772702661021377500,3.00237744140625,0.008776596173644065,0.00513999323695898,0.02692833893597126
1772702661031427600,3.012427490234375,-0.009435352343320847,0.012111585815250873,0.0074538231372833245
1772702661041477600,3.0224775390625,-0.0063327101528644555,0.01303892979323864,0.01101765309870243
1772702661051527400,3.03252734375,-0.015490706859529017,0.010165127922594547,0.006671732848882675
1772702661061577500,3.042577392578125,-0.020815116752684115,0.010075111551582812,-0.00807926155924797
1772702661071627500,3.05262744140625,-0.030954817973077295,0.017582710702717302,-0.010391630154848099
1772702661081676500,3.062676513671875,-0.02163490870296955,0.016736615267395973,-0.0038648587346076964
1772702661091726600,3.0727265625,-0.01356003105789423,0.012917933762073517,-0.006318097105622291
1772702661101776600,3.082776611328125,-0.0010766893208026885,-0.014184592697024344,0.021674656191468238
1772702661111826700,3.09282666015625,0.010793196693062782,-0.035865094107389445,0.04995733234584331
1772702661121876500,3.10287646484375,0.027562837447226048,-0.031415128961205484,0.04821721068024635
1772702661131926500,3.112926513671875,0.03341916225999594,-0.012649930475652217,0.08001403243541717
1772702661141976600,3.1229765625,0.020445114396512507,0.03380582349002361,0.07735971853435039
1772702661152026600,3.133026611328125,-0.0018105565533041953,0.02703852131217718,0.04682371049523353
1772702661162075400,3.143075439453125,-0.03058773822635412,0.019833412238955496,0.009012743017077446
1772702661172125700,3.153125732421875,-0.026108546985685824,0.03561930265277624,-0.00442541522681713
1772702661182175700,3.16317578125,-0.016810557286441326,0.02153729354739189,0.003017301994562149
1772702661192225500,3.1732255859375,0.0089624741345644,0.007947744134068489,0.0029138416200876235
1772702661202275600,3.183275634765625,0.011293547430634498,-0.010973521696031092,0.011188918012380599
1772702661212325600,3.19332568359375,0.033144144710898396,-0.01293693072348833,-0.011585223853588103
1772702661222375700,3.203375732421875,0.06544482433497906,0.014667700038850307,-0.00691547847688198
1772702661232425700,3.21342578125,0.03107756756991148,0.028959260241687296,-0.01712006162703037
1772702661242474500,3.223474609375,0.02042319482564926,0.04204407500326633,-0.0024602526336908338
1772702661252524500,3.233524658203125,0.00898380918353796,0.031712066081166265,0.02450023500621319
1772702661262574600,3.24357470703125,0.017257132010161876,0.03507891216576099,0.03032674920260906
1772702661272624400,3.253624267578125,0.013681903871893882,0.04840834933817386,0.017529811471700667
1772702661282674400,3.26367431640625,-0.007330196757614612,0.03620528584718704,0.00014496142864227294
1772702661292724700,3.273724853515625,-0.0022191373541951176,0.028681320083141327,-0.002477203768491745
1772702661302774800,3.28377490234375,0.003892623524367809,0.00893061769157648,-0.018259294790029523
1772702661312824600,3.293824462890625,0.03666384326964617,0.026104747593402863,-0.015355390042066572
1772702661322873600,3.30387353515625,0.009424830949306488,0.019969021317362785,-0.00873977129459381
1772702661332923600,3.313923583984375,0.013001228131353855,0.004577683179080486,-0.0031879823863506314
1772702661342973400,3.323973388671875,0.0026049218013882635,0.0012044073536992073,-0.007426935130357742
1772702661353023500,3.3340234375,0.012365560576319694,-0.0006102408528327941,0.023946108254790304
1772702661363073500,3.344073486328125,-0.0025128596037626264,0.006987666930258274,0.022272037562727928
1772702661373123600,3.35412353515625,0.014117372679710386,0.002334288166463375,0.04155366113781929
1772702661383173400,3.36417333984375,0.030714287215471266,-0.007129705749452113,0.04497603680193424
1772702661393223400,3.374223388671875,0.02765110025256872,0.014559563489258288,0.026185996136069298
1772702661403273500,3.3842734375,0.03415741340667009,0.025372049404680727,0.026024083572626113
1772702661413322800,3.39432275390625,0.006550736817717551,0.04332973089963198,-0.002374327915906906
1772702661423372500,3.40437255859375,0.000886135184764862,0.03612812895774841,0.0004822305589914322
1772702661433422600,3.414422607421875,0.003488426637649536,0.027400340361893174,-0.006358429116010665
1772702661443472600,3.42447265625,0.010531038625538348,0.02543254742026329,0.0025999533653259274
1772702661453522700,3.434522705078125,0.0299503171056509,-0.008231821772456169,0.005398059651255607
1772702661463572500,3.444572509765625,0.04369418029785156,-0.02724544206112623,0.026897943797707557
1772702661473622500,3.45462255859375,0.05728899040818214,0.007542670464515686,0.008781856870651245
1772702661483672600,3.464672607421875,0.029061259311437604,0.007000526411831379,0.010657003092765807
1772702661493721600,3.4747216796875,0.004711246430873871,0.0069631170108914375,-0.01520692148208618
1772702661503771600,3.484771728515625,-0.026299685643613336,0.03575198912173509,-0.0027022446960210797
1772702661513821700,3.49482177734375,-0.03240852391272783,0.01102116023004055,-0.018891162952780722
1772702661523871700,3.504871826171875,-0.019748948825895785,0.0014469839379191397,-0.012335749959945679
1772702661533921500,3.514921630859375,0.0233101484388113,0.028407179316878316,0.010845803663134574
1772702661543971600,3.5249716796875,0.04657441190928221,0.02094604965597391,0.04134966299831867
1772702661554021600,3.535021728515625,0.05013385795652866,0.013134206861257552,0.011016484054923057
1772702661564071700,3.54507177734375,0.01934825907051563,0.0036567689418792724,0.013590133935213088
1772702661574121500,3.55512158203125,0.005056114345788955,0.009154489575326443,-0.006622633010149002
1772702661584170500,3.56517041015625,0.002144903074204922,0.009761223296821117,-0.02267886479794979
1772702661594220500,3.575220458984375,0.006035188511013984,0.0046110009267926215,0.0035223289072513577
1772702661604270300,3.585270263671875,0.01605009430795908,-0.001194178220629692,0.030014614513516426
1772702661614320600,3.595320556640625,0.010775076514482498,0.010197568887472152,0.01872749682366848
1772702661624370700,3.60537060546875,0.010189677841961384,0.005268295791745185,0.018294950625300406
1772702661634420700,3.615420654296875,0.026499007607996464,0.0065586278632283205,0.007899813339114188
1772702661644470800,3.625470703125,0.01197451543211937,0.010102584080398082,-0.01852349868416786
1772702661654520600,3.6355205078125,-0.0029699557214975356,0.015587152971327303,-0.02923310874700546
1772702661664569600,3.645569580078125,0.00021919570863246916,0.00029050737917423245,-0.034765023910999296
1772702661674619600,3.65561962890625,-0.044260289748013014,0.006354045201838016,0.02182955449223518
1772702661684669400,3.66566943359375,-0.027248364670574662,0.013608254113793372,0.029307927548885344
1772702661694719500,3.675719482421875,-0.002363514260947704,0.01856353843361139,0.021892682856321333
1772702661704769500,3.68576953125,0.019692250202596188,0.019995909324288366,0.01614975529015064
1772702661714819600,3.695819580078125,0.02566606391519308,0.024183424142003057,0.04036182100474834
1772702661724869400,3.705869384765625,0.017138474066555498,0.016451953107118604,0.02895779893696308
1772702661734919400,3.71591943359375,0.0001654196947813034,0.013693886570632457,0.02713701325058937
1772702661744968700,3.72596875,-0.03968319109082222,0.00097118311971426,0.038896424627304076
1772702661755018500,3.7360185546875,-0.04033230264931917,-0.027196342222392558,0.035707857719063756
1772702661765068500,3.746068603515625,-0.02052080998122692,-0.016160861206054686,0.015309212812781333
1772702661775118600,3.75611865234375,-0.010886135673522949,-0.014560148011147975,-0.007929039433598517
1772702661785168600,3.766168701171875,-0.004608370578289032,-0.012471651299297809,-0.026889760491251944
1772702661795218400,3.776218505859375,-0.01897884123623371,0.00272357974499464,-0.03542436460256576
1772702661805268500,3.7862685546875,-0.022366730108857154,0.013170739479362963,-0.004277531188726425
1772702661815318500,3.796318603515625,-0.03406652025282383,-0.00009264671951532363,-0.021405776122212408
1772702661825367800,3.806367919921875,-0.05890723925977945,-0.0009685527712106704,0.004804185411334038
1772702661835417600,3.81641748046875,-0.04389993200302124,-0.007101356437802314,0.03696574882566929
1772702661845467600,3.826467529296875,-0.019313772279024123,-0.011632570126652716,0.045209845557808874
1772702661855517700,3.836517578125,-0.004657762677967548,-0.004140753066539764,0.07051321364045143
1772702661865567700,3.846567626953125,0.006958440835773945,-0.003870411692559719,0.058151160195469856
1772702661875617000,3.856616943359375,0.005635375538468361,0.0028530513435602186,0.047449148917198175
1772702661885667000,3.8666669921875,-0.01452683026343584,0.02537760236263275,0.03293956204950809
1772702661895717000,3.876717041015625,-0.012542086187005043,0.04414981511086225,0.019089315873384475
1772702661905767200,3.88676708984375,-0.03014730098247528,0.01168956101089716,0.013602993416786193
1772702661915816200,3.896816162109375,-0.04638122742474079,0.017923486964404583,-0.0034311434924602507
1772702661925866200,3.9068662109375,-0.040515842522680756,-0.008797346700727939,-0.023821020570397377
1772702661935916300,3.916916259765625,-0.004289513887465,-0.015391338138282298,-0.021821955707669257
1772702661945966000,3.926966064453125,0.0008849661409854889,-0.010589490814507007,-0.0006809680014848708
1772702661956016000,3.93701611328125,-0.01239274084419012,-0.008166355320811272,0.005981412497162819
1772702661966066200,3.947066162109375,0.0006058569386601447,-0.005153729501366615,0.01722293747961521
1772702661976116200,3.9571162109375,-0.009346505016088484,0.007619535093009472,0.021912556600570676
1772702661986166000,3.967166015625,-0.012869418445229529,0.01871960577815771,0.00900514423251152
1772702661996215000,3.977215087890625,-0.032623920229077334,0.028147651597857475,-0.004672083464264869
1772702662006265000,3.98726513671875,-0.04027472724318504,0.013650339689850806,-0.007693477112054824
1772702662016315100,3.997315185546875,-0.0409258846282959,0.017309446719288826,-0.011963409516215323
1772702662026365000,4.007364990234375,-0.0188376791998744,0.004164133942127227,-0.01158580837547779
1772702662036415000,4.0174150390625,-0.016021452735364435,-0.00289046074450016,0.030679800423979758
1772702662046465300,4.02746533203125,-0.006601005700230598,0.006950842051208019,0.018698855251073836
1772702662056515300,4.037515380859375,0.006420680697262287,0.006938859352469444,0.02601122409105301
1772702662066565000,4.047565185546875,-0.00017243395745754242,0.01776332796663046,0.027545594051480292
1772702662076614100,4.0576142578125,-0.0028510055169463154,0.0034779052436351775,0.005555880561470985
1772702662086664200,4.067664306640625,-0.01589841087758541,0.0026329788520932196,0.016717910566926
1772702662096714000,4.0777138671875,0.0069356444820761675,0.02846767733246088,0.01203939736187458
1772702662106764000,4.087763916015625,0.00414835185110569,0.022369652718305585,0.022140520137548445
1772702662116814000,4.09781396484375,-0.02036123550534248,0.038670214655995364,0.0015916531056165695
1772702662126864100,4.107864013671875,-0.011488777741789817,0.0262447405859828,0.011861702707409858
1772702662136914000,4.117913818359375,-0.013235036887228489,0.023659108006954192,0.014475684598088264
1772702662146964000,4.1279638671875,-0.01908785456866026,0.019891864427924157,-0.007547346639633178
1772702662157013200,4.13801318359375,0.006475041233003139,0.0019084639698266981,-0.0019259996265172958
1772702662167063000,4.14806298828125,0.031256431268155575,-0.010020751015841961,0.023894670328497885
1772702662177113000,4.158113037109375,0.02177256360799074,-0.009467793308198452,0.013805822512507438
1772702662187163100,4.1681630859375,0.020648820275068282,0.0038324177697300907,0.003957797715067863
1772702662197213200,4.178213134765625,-0.0028179800301790237,-0.0045811903104186055,0.014546996268630027
1772702662207263200,4.18826318359375,0.0032028876945376394,0.011292086125910282,-0.005444821402430534
1772702662217313000,4.19831298828125,0.009420447035133839,0.015294015243649482,0.009402619117498397
1772702662227363000,4.208363037109375,0.022293080350756642,0.01168079318255186,0.024458149430155753
1772702662237413000,4.2184130859375,0.02853986578583717,0.009544657936692237,0.00594692570567131
1772702662247462100,4.228462158203125,0.011395254239439963,0.0005950432837009429,0.01950958711206913
1772702662257512200,4.23851220703125,-0.002329319730401039,0.007136427751183509,0.015502105036377906
1772702662267562200,4.248562255859375,-0.009526537758111953,0.017793430843949316,-0.00594341857433319
1772702662277612300,4.2586123046875,0.01350596278309822,0.021296178267896173,0.006968085446953773
1772702662287662000,4.268662109375,0.01058978307545185,0.007236088733375072,0.014539397484064102
1772702662297712000,4.278712158203125,0.017639701586961744,0.010485445918142796,-0.002848375168442726
1772702662307762200,4.28876220703125,0.03993833489567041,0.011236264285445212,0.006509820285439491
1772702662317812200,4.298812255859375,0.015811024855077266,-0.009397942942380905,0.03515314644575119
1772702662327861000,4.308861083984375,0.025715456014871595,-0.008496902449429035,0.038384383451938626
1772702662337911000,4.3189111328125,0.029055998614430426,0.005497428372502326,0.02824059057831764
1772702662347961000,4.328961181640625,-0.00220423204600811,-0.004609247361123562,0.011966332125663757
1772702662358011000,4.339010986328125,0.003896422916650772,0.007564882296323776,-0.00570727173089981
1772702662368061200,4.349061279296875,-0.0010936404556035994,0.01898497871607542,-0.002824409770965576
1772702662378111200,4.359111328125,-0.007578326299786567,-0.0017737316742539404,-0.004071779483556747
1772702662388161300,4.369161376953125,-0.022889000417292117,0.004674421551823616,-0.007089081478118896
1772702662398211000,4.379211181640625,-0.009202128109335898,0.01300707335025072,0.028708208090066908
1772702662408261000,4.38926123046875,0.013470014686882494,0.016154723726212978,0.03709668172895908
1772702662418310100,4.39931005859375,0.03709901981651783,0.0036178982362151143,0.015460019460320471
1772702662428360200,4.409360107421875,0.030990181547403333,-0.006771393831074238,-0.00367079746723175
1772702662438410000,4.419409912109375,0.011617664818465708,-0.0026432079851627347,-0.01705517969727516
1772702662448460000,4.4294599609375,-0.0031321605458855626,0.009521569322049617,0.0020738836646080018
1772702662458510000,4.439510009765625,-0.006451660357415676,-0.007212415596842765,0.001205284136533737
1772702662468560100,4.44956005859375,-0.014091653716564177,0.0061091305300593375,0.0009013327538967132
1772702662478610000,4.45960986328125,-0.02733399712741375,0.007366144853830337,0.010102291819453239
1772702662488660200,4.46966015625,-0.029024142171442505,0.02350888588130474,-0.01516600494980812
1772702662498709200,4.479709228515625,-0.029940087972581384,-0.008523790456354617,-0.01815875702500343
1772702662508759000,4.489759033203125,-0.030144962894916534,-0.02796966468244791,-0.002699322086572647
1772702662518809000,4.49980908203125,-0.0035460020437836645,-0.027813305076956747,0.04173720101118088
1772702662528859100,4.509859130859375,-0.00017681787163019178,-0.022888708156347273,0.051420975157618516
1772702662538909200,4.5199091796875,-0.003398410266637802,-0.025741759499907493,0.06214812087714672
1772702662548959000,4.529958984375,-0.019384207166731355,-0.015011983431875705,0.050208092236518856
1772702662559009000,4.540009033203125,-0.010120411998033523,0.004848609074950218,0.039048400318622584
1772702662569059000,4.55005908203125,-0.02307487837821245,0.021953473132848737,0.015870353826880453
1772702662579108000,4.560108154296875,-0.01009001685976982,0.029704817911982536,0.011223989325761794
1772702662589158100,4.570158203125,0.004233692046999931,0.044021512556076045,0.006976268753409385
1772702662599208200,4.580208251953125,-0.009319617009162902,0.044940380966663356,-0.005715455037355423
1772702662609258200,4.59025830078125,-0.025281448511779308,0.022270283997058868,0.011210545322299002
1772702662619308300,4.600308349609375,-0.013092121285200119,0.013925649499893188,0.0023451018214225767
1772702662629358000,4.610358154296875,0.0040332010388374325,-0.00710720165669918,-0.008791793742775916
1772702662639408000,4.620408203125,-0.004938917706906795,-0.017800152845680713,-0.0035194062978029248
1772702662649458200,4.630458251953125,0.004114157320559025,-0.008570552207529544,-0.004900047001242637
1772702662659508200,4.64050830078125,0.0391457232132554,0.015050854137539862,-0.017545593562722204
1772702662669557000,4.650556884765625,0.03620733167380094,0.024018004447221755,-0.006288871011137962
1772702662679607000,4.66060693359375,0.0037082068681716916,0.01673193909227848,0.0038882396101951595
1772702662689657000,4.670656982421875,-0.016521803472936154,0.015480769987404346,0.022957097217440603
1772702662699707100,4.68070703125,-0.017471943804621696,0.04001636856794357,0.009693711018562316
1772702662709757200,4.690757080078125,-0.017919395311176776,0.04702946220040321,0.013836802172660827
1772702662719807200,4.70080712890625,-0.012985446040332317,0.04034516213089227,0.012196049228310584
1772702662729857300,4.710857177734375,-0.018875673122704027,0.035247254469990726,0.004700140514969826
1772702662739907000,4.720906982421875,-0.011598083335161208,0.026246494151651856,-0.009255904123187065
1772702662749956000,4.7309560546875,0.002618658065795898,-0.0021828969970345497,-0.005308043280243873
1772702662760006100,4.741006103515625,0.03246960645020008,-0.007117723050713539,0.019070026651024818
1772702662770056000,4.751055908203125,0.03259118700325489,0.003099135059118271,0.012086159113049506
1772702662780106000,4.76110595703125,0.024277532166242597,0.00034282208830118175,0.01570844126343727
1772702662790156000,4.771156005859375,-0.005628361275792122,0.02374415594190359,0.014935118803381919
1772702662800206000,4.7812060546875,-0.02284399223178625,0.035519349409639835,-0.002893383353948593
1772702662810256100,4.791256103515625,-0.0032122400447726247,0.03001081512123346,0.0023836802661418915
1772702662820306200,4.80130615234375,-0.007814180882275104,0.04325286627113819,0.00047755438387393946
1772702662830356200,4.811356201171875,0.013088321892917155,0.026599837633967397,0.013147650864720344
1772702662840405200,4.8214052734375,0.0027986908078193665,0.0081280691370368,0.014092822760343552
1772702662850455000,4.831455078125,0.004863806644082069,0.016897358787059783,0.01187163957953453
1772702662860505000,4.841505126953125,0.01415302851498127,0.0020271219134330746,0.01744213318824768
1772702662870555100,4.85155517578125,0.025702888794243334,0.018303718453645704,0.0010088847815990446
1772702662880606000,4.86160595703125,0.013187398353219032,0.0032242227435111998,-0.0014554595053195953
1772702662890655700,4.87165576171875,0.01158756194114685,0.007286942137777805,0.013949030375480651
1772702662900705800,4.881705810546875,0.018370353949069974,0.018701485599577426,0.017604045751690865
1772702662910755800,4.891755859375,0.01777940231859684,0.00210924723893404,0.01514730024933815
1772702662920804900,4.901804931640625,0.01269815353155136,0.016871639823913574,0.016179565906524657
1772702662930855000,4.91185498046875,-0.008348726150393485,0.01400485221594572,0.012168576699495314
1772702662940905000,4.921905029296875,0.006318973888456821,-0.004141337588429451,0.010014029014110564
1772702662950955000,4.931955078125,-0.004426584270596504,0.008529051153361797,0.010834113225340843
1772702662961004800,4.9420048828125,-0.003307224851846695,0.0028717560440301893,0.027993337818980217
1772702662971054800,4.952054931640625,0.0351242126122117,0.0026505145087838172,0.02319032145142555
1772702662981105000,4.96210498046875,0.03253331933617592,0.013123100945353508,0.012634440645575522
1772702662991155000,4.972155029296875,-0.0009334814578294754,-0.008532266023755073,0.022298341047763823
1772702663001203700,4.98220361328125,0.0010524316623806954,-0.0057090252965688705,0.013542203140258788
1772702663011253800,4.992253662109375,-0.001976560769975185,-0.010723054066300391,0.02878010428249836
1772702663021303800,5.0023037109375,0.012028583706915378,-0.016329203510284423,0.008162263667583465
1772702663031353600,5.012353515625,-0.0005491583153605461,0.003062310180068016,0.037730303457379336
1772702663041403600,5.022403564453125,-0.0016755319967865943,0.012267945420742034,0.039033202749490736
1772702663051454000,5.032453857421875,0.016205869391560553,0.006070552085340022,0.006318681627511978
1772702663061504000,5.04250390625,0.0040916532278060915,0.005550035342574119,-0.0019160627543926237
1772702663071553800,5.0525537109375,0.004796002104878425,-0.01814531302154064,0.002852466821670532
1772702663081603800,5.062603759765625,-0.0005728314518928528,-0.002685585822165012,-0.012085574591159819
1772702663091652900,5.07265283203125,-0.006908756475150585,-0.015591536885499952,0.005368249034881592
1772702663101703000,5.082702880859375,0.006657412062585353,-0.01183978313654661,0.03960077350437641
1772702663111752700,5.092752685546875,0.020555296772718428,-0.013738894756138324,0.0593909311234951
1772702663121802800,5.102802734375,0.06996171723753214,0.013260755850374699,0.041871056523919106
1772702663131852800,5.112852783203125,0.11042436826825142,-0.00916150383800268,0.007254501172900199
1772702663141902800,5.12290283203125,0.11649462809264659,-0.004578559961915016,-0.0038531682968139646
1772702663151952600,5.13295263671875,0.09046265347450971,0.031712358342111106,0.018920389047265052
1772702663162002700,5.143002685546875,0.08061755128651857,0.048661739577353,0.05790858361124992
1772702663172052000,5.153052001953125,0.06483049182891845,0.020336101064085958,0.05683072524666786
1772702663182101800,5.163101806640625,0.0029629414588212967,0.00966828431636095,0.02089899564385414
1772702663192151800,5.17315185546875,0.0015936989322304725,-0.005879997949302196,0.015175941821932791
1772702663202201900,5.183201904296875,0.009351181191205978,-0.0031526188120245932,-0.010034487280249594
1772702663212252000,5.193251953125,0.017083821269869803,-0.0032443887487053867,-0.003657353463768959
1772702663222301700,5.2033017578125,0.037131753042340274,-0.021995558708906172,0.014908815318346022
1772702663232351700,5.213351806640625,0.03221475490629673,-0.040641806989908213,0.005768062007427215
1772702663242401800,5.22340185546875,0.02541851889491081,-0.05092530059516429,0.02200491105914116
1772702663252451800,5.233451904296875,-0.007658113537728786,-0.02743804202377796,0.022778818041086196
1772702663262500900,5.2435009765625,-0.020820377449691296,-0.03648439504951238,0.028275077369809148
1772702663272551000,5.253551025390625,-0.04317687842547893,-0.039841888783872126,0.015231471401453017
1772702663282601000,5.26360107421875,-0.04014788599312305,-0.013447218333184718,0.01416997964978218
1772702663292651000,5.273651123046875,-0.03898527195453644,-0.002259469364583492,0.015990765336155892
1772702663302700800,5.28370068359375,-0.03849573487192392,0.015092647452652453,0.010098200166225433
1772702663312750800,5.293750732421875,-0.029955285541713235,0.0034895956814289092,0.03147884184718132
1772702663322801000,5.30380078125,0.0029077041402459144,0.00815115775167942,0.0385901351571083
1772702663332851000,5.313850830078125,-0.011670856310427188,0.013117840248346328,0.06434241605103015
1772702663342899700,5.323899658203125,-0.02037000333368778,0.00772241094559431,0.04125613949596882
1772702663352949800,5.33394970703125,-0.02228635834902525,0.013712299010157584,-0.002495323947072029
1772702663362999800,5.343999755859375,-0.03512538165599108,0.02752688935101032,-0.023879472759366034
1772702663373049900,5.3540498046875,-0.020141163013875484,0.04910889882296324,-0.00889583863914013
1772702663383100000,5.364099853515625,-0.0015934066712856292,0.03788520175814628,-0.020790274572372435
1772702663393150000,5.37414990234375,-0.015633622461557386,0.0515220974445343,-0.03207973034977913
1772702663403198700,5.38419873046875,-0.00369739321321249,0.029881928044557568,-0.007666004583239555
1772702663413248800,5.394248779296875,-0.003536649693548679,0.028444296456873415,-0.003748538878560066
1772702663423298800,5.404298828125,-0.008787409828603267,0.04276245240569115,0.00043722237348556514
1772702663433348900,5.414348876953125,0.005948094749450683,0.058005906505882734,-0.006176642808318138
1772702663443398700,5.424398681640625,-0.01317220078408718,0.052068333150446414,0.003209609696269035
1772702663453448700,5.43444873046875,-0.014836334604024887,0.04135959987044334,-0.018255203136801717
1772702663463498800,5.444498779296875,-0.01981236945092678,0.03693418464362621,-0.0237502934217453
1772702663473548800,5.454548828125,-0.026426819154620168,0.056684887035191055,-0.030942250752449035
1772702663483598600,5.4645986328125,-0.028930910930037496,0.03555588202774525,-0.026276597028970717
1772702663493648000,5.47464794921875,-0.02486906831860542,0.027392449316382406,-0.028852584996819496
1772702663503698000,5.484697998046875,-0.02549216865301132,0.010325579181313514,-0.013894669839739799
1772702663513748000,5.494748046875,-0.030805472630262374,0.011019698925316334,-0.009012743017077446
1772702663523797800,5.5047978515625,-0.027260055108368396,0.016150924333930016,-0.002148117944598198
1772702663533847800,5.514847900390625,-0.022309446963667868,0.039810909123718735,0.03871756092905998
1772702663543897900,5.52489794921875,-0.03011807488799095,0.04737871402949095,0.05186579631567001
1772702663553948000,5.534947998046875,-0.020287878008186815,0.06522767445296049,0.02234042662382126
1772702663563997700,5.544997802734375,-0.005172141940891742,0.05389379501193761,-0.004938625445961952
1772702663574047000,5.555046875,-0.014961422288417816,0.03592646890580654,-0.004609539622068405
1772702663584097000,5.565096923828125,-0.03648410278856754,0.006855272722244263,-0.012572481325268744
1772702663594146800,5.575146728515625,-0.05713672245591878,-0.0033148236364126202,-0.015870353826880453
1772702663604196900,5.58519677734375,-0.021280396176874636,-0.01992430539280176,-0.020401567515730856
1772702663614247000,5.595246826171875,-0.0018295535147190092,0.020581307996809482,-0.029454642543196675
1772702663624297000,5.605296875,0.002639700853824615,0.027679741825163362,-0.0069184010863304135
1772702663634346800,5.6153466796875,-0.007994213624298573,0.02038052472770214,0.00924304464161396
1772702663644396800,5.625396728515625,-0.009460779045522212,0.008372983808815479,0.032119477838277816
1772702663654446800,5.63544677734375,0.00044511341899633407,0.011222528021037579,0.010657587614655495
1772702663664495600,5.64549560546875,-0.021747136905789374,0.013200842356681824,0.013167524608969687
1772702663674545700,5.655545654296875,-0.022161562925577163,-0.00635170711427927,0.03480126426815987
1772702663684595700,5.665595703125,-0.003503624206781387,-0.013751169715821743,0.04306114309132099
1772702663694645800,5.675645751953125,0.009131693221628665,0.0069505497902631755,0.013960720813274383
1772702663704696000,5.685696044921875,0.012424597287178039,0.005445113663375378,0.02600245626270771
1772702663714745900,5.695745849609375,0.0031710312515497207,0.0021060323685407637,0.024716508105397224
1772702663724796000,5.7057958984375,0.0016235095486044882,0.010791150866448879,-0.0017220014870166778
1772702663734846000,5.715845947265625,-0.01893617113828659,-0.010511749403178691,0.01802548603415489
1772702663744896000,5.72589599609375,-0.002492109076678753,-0.02322831537425518,0.043508886858820914
1772702663754945800,5.73594580078125,0.013162263911962508,-0.015980243942141533,0.038270401683449744
1772702663764994800,5.745994873046875,0.03270341520607471,-0.02268091062456369,0.04227963732481003
1772702663775044900,5.756044921875,0.023198797018826007,-0.029642858591675758,-0.0011252046376466751
1772702663785094700,5.7660947265625,0.010353343971073627,-0.01732230620086193,-0.013259879067540168
1772702663795144700,5.776144775390625,-0.026428280459344384,-0.006413374173641204,-0.010281155517697333
1772702663805194800,5.78619482421875,-0.03845686416625976,-0.007336334237456321,0.031927170136570926
1772702663815244800,5.796244873046875,-0.020465280401706695,-0.0066410454496741295,0.03392740404307842
1772702663825294800,5.806294921875,0.00849018044769764,-0.01648059467971325,0.04408931709527969
1772702663835345000,5.816344970703125,0.006966331881284714,-0.03132511259019374,0.03601706979870796
1772702663845395000,5.82639501953125,0.03511515252292156,-0.02350070257484913,0.06502981379330158
1772702663855443700,5.836443603515625,0.04084346704185009,-0.0046270752787590025,0.054279287198185915
1772702663865493800,5.84649365234375,0.02597235338538885,-0.012220306886732578,0.049962008520960804
1772702663875544000,5.8565439453125,0.0006099485918879509,-0.01007218894213438,0.024404373416304588
1772702663885594000,5.866593994140625,-0.02756663683950901,-0.019946517224609852,0.009327800315618515
1772702663895644200,5.87664404296875,-0.040000001955032345,-0.04319529086500406,0.011326865178346633
1772702663905694000,5.88669384765625,-0.05140197819620371,-0.06602525457143783,0.01775192978978157
1772702663915744000,5.896743896484375,-0.041699791610240934,-0.06552724192142487,0.006620879444479942
1772702663925794000,5.9067939453125,-0.023024317234754562,-0.05440086775124073,0.004487959069013595
1772702663935843000,5.916843017578125,-0.00343728097230196,-0.05202741661816835,0.02230243270099163
1772702663945893000,5.92689306640625,0.02822539300918579,-0.02964841154962778,0.014802432334423065
1772702663955943200,5.936943115234375,0.011529109752178192,-0.013685995525121689,0.02558627667725086
1772702663965993200,5.9469931640625,-0.0008235913425683975,-0.013225976797938346,0.04082710042893886
1772702663976043000,5.95704296875,-0.01956570121347904,-0.013083061195909976,0.05527531249821186
1772702663986093000,5.967093017578125,-0.04455342747569084,-0.019227847561240196,0.07356675599217415
1772702663996143000,5.97714306640625,-0.035785014608502384,-0.02108516586571932,0.06945289093255996
1772702664006193200,5.987193115234375,-0.027936346934735772,-0.02619067231118679,0.046991468277573584
1772702664016243000,5.997242919921875,-0.03220627933889627,-0.008630173440277576,0.014615969851613043
1772702664026292000,6.0072919921875,0.004601064054667949,-0.006501929239928722,0.02397884148061275
1772702664036342300,6.01734228515625,-0.0001014145478606224,-0.010459726954996586,0.023825112223625183
1772702664046392000,6.02739208984375,-0.011832184351980685,-0.019430968917906282,0.027028292179107665
1772702664056442000,6.037442138671875,-0.003522621168196201,-0.013285598030686378,0.006031681379675865
1772702664066492200,6.0474921875,0.004328676854074001,0.002140519160032272,0.010878536888957024
1772702664076542200,6.057542236328125,-0.0030368834778666492,0.025625731904804706,-0.00831716196835041
1772702664086592000,6.067592041015625,-0.00654343029409647,-0.003202595433592796,-0.0059463411837816236
1772702664096642000,6.07764208984375,-0.009857669408619403,-0.003586334054172039,0.03817804722487926
1772702664106691000,6.087691162109375,-0.000028057050704956055,-0.008949322392046452,0.022784663259983063
1772702664116741000,6.0977412109375,0.015014321519434451,-0.0027127660900354384,0.03269756998717785
1772702664126791000,6.107791015625,0.0019511340677738189,0.010023089103400707,0.013140052080154419
1772702664136841000,6.117841064453125,-0.011101531989872454,0.02124678616821766,0.010288754302263258
1772702664146891000,6.12789111328125,-0.0034907647252082822,0.022510814754664897,-0.01348550451695919
1772702664156941000,6.137941162109375,-0.00039279870986938477,0.029053076004981995,-0.00696516283750534
1772702664166991000,6.1479912109375,0.009708908587694168,0.006950257529318332,-0.008601824128627776
1772702664177041200,6.158041259765625,0.029368133303523062,-0.0013537526965141295,0.008224807509779929
1772702664187091200,6.16809130859375,0.019901509039103985,0.013115794421732425,-0.0029535891085863113
1772702664197140000,6.178139892578125,0.009452011217176913,0.03828998316675424,0.0015559972703456878
1772702664207190000,6.18818994140625,-0.011427987465262412,0.020151392146945,-0.005647065976262093
1772702664217240000,6.198239990234375,0.0031882746472954747,0.003255494664609432,0.01702478455901146
1772702664227290000,6.2082900390625,-0.020296061314642427,0.03838730606138706,0.017448562929034232
1772702664237340000,6.21833984375,-0.035902795769274236,0.05872019225507974,0.009634089785814285
1772702664247390000,6.228389892578125,-0.02247632796317339,0.04185235182344913,0.01685001251399517
1772702664257440000,6.23843994140625,0.01620031643360853,0.037000235617160794,-0.020907178950309753
1772702664267490000,6.248489990234375,0.028331775993108748,0.010982874046266078,-0.01359656367599964
1772702664277539000,6.2585390625,0.03539104685485363,0.024512217704951763,0.010528992798924445
1772702664287589000,6.268589111328125,0.01213438216894865,0.020376433074474332,0.01274959145784378
1772702664297639200,6.27863916015625,0.01090045645982027,0.038549218624830246,-0.003794716107845306
1772702664307689200,6.288689208984375,-0.0005886135429143905,0.02547726334482431,-0.006935352221131325
1772702664317739000,6.298739013671875,-0.030451252365112303,0.004295943628251552,-0.01673895335495472
1772702664327789000,6.3087890625,-0.02603986566364765,0.015712240655720234,-0.016262568014860153
1772702664337839000,6.318839111328125,-0.016397592571377753,0.025843174047768116,-0.0065665189087390895
1772702664347889200,6.32888916015625,-0.0027262100934982297,0.025657003825902937,-0.013989362385869026
1772702664357939000,6.33893896484375,0.03412497244179249,0.030848142728209495,-0.001703296786546707
1772702664367988200,6.34898828125,0.04467909968197346,0.02305909628719091,-0.010443652603030203
1772702664378038300,6.359038330078125,0.04250438599139452,0.04190174392312765,-0.007191957330703735
1772702664388088000,6.369088134765625,0.009011866234242915,0.03690875794142484,-0.000848141261935234
1772702664398138000,6.37913818359375,-0.021212591637670992,0.02142185047417879,0.0248263982206583
1772702664408188200,6.389188232421875,0.002355330954492092,0.026829262475669382,0.04542027343809604
1772702664418238200,6.39923828125,0.008728957639634608,0.029978081895411013,0.026925416326522827
1772702664428288000,6.4092880859375,0.0285407425686717,0.026995266692340373,0.005253682744503021
1772702664438338000,6.419338134765625,0.0357452671200037,0.030306583197414874,-0.0018745617002248762
1772702664448388000,6.42938818359375,0.023496318660676477,0.010802549043297766,-0.0036509237229824065
1772702664458436900,6.439436767578125,0.04553104033619165,0.03019903116971254,-0.0005728314518928528
1772702664468487000,6.44948681640625,0.03260375422388315,0.035142332790791986,-0.013522329396009444
1772702664478537000,6.459536865234375,0.021068214730918407,0.02177782430499792,-0.020595044261217117
1772702664488587300,6.469587158203125,0.009541735327243804,0.013786825551092624,-0.011256138029694556
1772702664498637000,6.479636962890625,-0.006698620855808257,0.01861936027407646,0.032740240085124966
1772702664508687000,6.48968701171875,0.0003527589604258537,0.026050679318606853,0.04772095159590244
1772702664518737200,6.499737060546875,0.019434768310189247,0.018969781146943566,0.03045651306211948
1772702664528787200,6.509787109375,0.05848404541164636,0.04345452632308006,0.020167758759856224
1772702664538836000,6.5198359375,0.040670156301558014,0.020381109249591828,-0.00006429740786552428
1772702664548886000,6.529885986328125,0.03528934004604816,0.031041911734640597,-0.007385434076189994
1772702664558936000,6.53993603515625,0.0015928221493959427,0.013859598526358603,0.0050029228538274765
1772702664568986000,6.549986083984375,-0.015334054993093012,0.01212386077493429,0.0005196399599313736
1772702664579036000,6.560035888671875,0.004951192666590214,-0.0023678981751203538,0.009441782084107399
1772702664589086000,6.5700859375,0.007846037325263023,-0.008676642930507659,0.005075988090038299
1772702664599136000,6.580135986328125,0.02266834340393543,0.003141805157065391,-0.012877017229795455
1772702664609186000,6.59018603515625,0.00021861118674278257,0.0008379121288657188,-0.015621932023763656
1772702664619236000,6.600236083984375,-0.012713351100683211,-0.01687573147714138,-0.005405073913931847
1772702664629285000,6.61028515625,-0.015918284621834755,-0.0172167999997735,0.014509002345800399
1772702664639335200,6.620335205078125,-0.0002954758152365684,-0.011040449452400207,0.037109541210532185
1772702664649385000,6.630385009765625,0.015747604230046272,-0.024869360579550265,0.04092413106262684
1772702664659435000,6.64043505859375,0.005110182620584964,-0.00921732567846775,0.05507365244626999
1772702664669485000,6.650485107421875,0.006592822393774986,0.002045242092013359,0.05703238529860973
1772702664679535000,6.66053515625,0.019384207166731355,-0.006605097353458404,0.03030629093647003
1772702664689585000,6.6705849609375,-0.0027808628901839255,-0.013612345767021179,0.010444821646809578
1772702664699635000,6.680635009765625,-0.018854922595620154,-0.009192775759100914,0.013113164073228835
1772702664709685000,6.69068505859375,-0.00904781433045864,0.0017158640071749686,-0.018533435556292534
1772702664719734300,6.700734375,-0.0157680624961853,0.017836977724730967,-0.01565700333714485
1772702664729784000,6.7107841796875,-0.015098784932494162,0.017268822447955606,-0.0023117840737104413
1772702664739834000,6.720834228515625,-0.0036386487632989882,0.0011339724659919738,-0.007080313649773597
1772702664749884200,6.73088427734375,0.02054915929287672,-0.01978928083628416,-0.002245148578286171
1772702664759934200,6.740934326171875,0.013771627981960773,-0.00270049113035202,0.0078057053148746485
1772702664769984000,6.75098388671875,-0.006075228260457515,-0.001952303111553192,0.004227846828103066
1772702664780034000,6.761033935546875,0.0028498364731669424,-0.009619184477627277,0.043566754525899885
1772702664790084000,6.771083984375,-0.004327507810294628,0.008710252939164638,0.030972645890712736
1772702664800134100,6.781134033203125,-0.02444733577519655,0.04503390446901321,0.021786884394288063
1772702664810183200,6.79118310546875,-0.019647534278035162,0.029886896480619905,0.01638824022114277
1772702664820233200,6.801233154296875,0.017559914349019528,0.015348668040335177,-0.013164017477631568
1772702664830283300,6.811283203125,0.019288053315877914,-0.0030097032099962234,-0.02127835035026073
1772702664840333000,6.8213330078125,-0.0002887538135051727,-0.02238601933121681,0.027938392761349677
1772702664850383000,6.831383056640625,-0.033517069676518435,0.020118366660177706,0.019010405418276786
1772702664860433200,6.84143310546875,-0.05149462491571903,0.026979776862263678,0.038576691153645516
1772702664870483200,6.851483154296875,-0.012073299631476402,0.01971826142668724,-0.015417933884263038
1772702664880534000,6.861533935546875,0.03191197256743908,-0.022267361387610433,-0.005233809000253677
1772702664890582800,6.871582763671875,0.03335194224268198,-0.01886953564286232,0.01784428424835205
1772702664900632800,6.8816328125,-0.03700783440172672,0.04325082044452429,0.023528759625554084
1772702664910683000,6.891682861328125,-0.09280337138175963,-0.05696779562979936,-0.09299275647401808
1772702664920732700,6.901732666015625,0.30721389156430956,-0.010095862078666687,-0.10805588557124138
1772702664930782700,6.91178271484375,0.4033291639730334,0.16217705959826706,0.1746568942040205
1772702664940832800,6.921832763671875,-0.15576251638084648,0.11466156744658947,0.10057751251459121
1772702664950882800,6.9318828125,-0.47386488170623775,0.027924656496942042,-0.06957622505128383
1772702664960932600,6.9419326171875,-0.3061263885885477,-0.0012117138773202894,-0.02580371882021427
1772702664970983000,6.95198291015625,-0.035572248640656466,-0.03534896127879619,0.07030161671638488
1772702664981032000,6.962031982421875,-0.005604395878314972,0.0008916881427168846,0.09271043240129948
1772702664991081700,6.972081787109375,0.006548983252048492,0.03375789269506931,0.054445291414856906
1772702665001131800,6.9821318359375,0.013152619300782679,-0.014651041164994239,0.004729366609454154
1772702665011181800,6.992181884765625,-0.06513385868966579,-0.07857786215245723,-0.037296003693342204
1772702665021231900,7.00223193359375,-0.04228168315142393,-0.06845072815269232,-0.07550970675349235
