time,seconds_elapsed,z,y,x
1772702658086813200,0.067813232421875,-0.0042371912859380245,-0.0030338698998093605,0.009817601181566715
1772702658096862200,0.0778623046875,-0.004219969734549522,-0.0037409504875540733,0.0012007940094918013
1772702658106912300,0.087912353515625,-0.004020765423774719,-0.0018580956384539604,-0.0033454883377999067
1772702658116962600,0.097962646484375,0.00037947390228509903,0.0007895193994045258,-0.00571849150583148
1772702658127012400,0.108012451171875,0.0005674931453540921,-0.0004933252930641174,-0.00010188471060246229
1772702658137062400,0.1180625,0.001461103092879057,-0.004307266790419817,0.004505031742155552
1772702658147112400,0.128112548828125,0.0045117540284991264,-0.004449212923645973,0.004786261357367039
1772702658157162500,0.13816259765625,0.004327854141592979,-0.0023762239143252373,0.004258498549461365
1772702658167212300,0.14821240234375,0.006510580889880657,-0.0020571774803102016,0.00048107089241966605
1772702658177261300,0.15826123046875,0.004200683906674385,-0.007947869598865509,-0.0007432816782966256
1772702658187311400,0.168311279296875,0.003206525696441531,-0.009089300408959389,0.0007912316941656172
1772702658197361200,0.178361083984375,0.0020574384834617376,-0.008243042044341564,-0.002934528747573495
1772702658207411200,0.1884111328125,-0.0010997391073033214,-0.0110100656747818,-0.003479145234450698
1772702658217461200,0.198461181640625,-0.00019875518046319485,-0.016488397493958473,-0.00813625194132328
1772702658227511300,0.20851123046875,0.0011669137747958302,-0.018359001725912094,-0.0036991597153246403
1772702658237561300,0.218561279296875,0.0013423345517367125,-0.009342011995613575,-0.0024382732808589935
1772702658247611400,0.228611328125,0.0030614049173891544,-0.006133701652288437,0.003040115348994732
1772702658257660400,0.238660400390625,0.004243047907948494,-0.0032806075178086758,-0.0010805230122059584
1772702658267710200,0.248710205078125,0.006723782047629356,-0.0024267984554171562,0.0016920939087867737
1772702658277760300,0.25876025390625,0.005838703364133835,-0.004983912687748671,-0.00007992837345227599
1772702658287810300,0.268810302734375,0.005193685181438923,-0.004129038192331791,-0.00077900814358145
1772702658297860400,0.2788603515625,0.004691821988672018,-0.007228434085845947,0.0006796280504204333
1772702658307910400,0.288910400390625,0.0038878137711435556,-0.004569534212350845,0.0013089330168440938
1772702658317960200,0.298960205078125,0.0022378056310117245,-0.006101720035076141,-0.00003345182631164789
1772702658328010200,0.30901025390625,0.0018953229300677776,-0.006011439021676779,-0.002627370646223426
1772702658338059500,0.3190595703125,0.002641239669173956,-0.003929196856915951,-0.0011880648089572787
1772702658348109300,0.329109375,0.004494799766689539,-0.0047790114767849445,0.0014327520038932562
1772702658358159400,0.339159423828125,0.0013094982132315636,-0.007350867614150047,0.0016148739960044622
1772702658368209400,0.34920947265625,0.003316190093755722,-0.00374042009934783,0.00527778547257185
1772702658378259500,0.359259521484375,0.0026076126378029585,0.0017932644113898277,-0.0010219784453511238
1772702658388309200,0.369309326171875,0.004975429270416498,0.00020415615290403366,-0.0014171916991472244
1772702658398359300,0.379359375,0.0017140187555924058,0.000454531516879797,0.00011442811228334904
1772702658408409300,0.389409423828125,0.0010237274691462517,0.001897165086120367,0.0019525419920682907
1772702658418459400,0.39945947265625,-0.002202763920649886,0.00023468118160963058,-0.004689476452767849
1772702658428508200,0.409508056640625,0.001769074471667409,-0.0018151537515223026,-0.006338771898299456
1772702658438558500,0.419558349609375,0.0018664549570530653,-0.005522705614566803,-0.002552763558924198
1772702658448608500,0.4296083984375,-0.001714165206067264,-0.0059054018929600716,-0.0043117813766002655
1772702658458658300,0.439658203125,-0.002967746928334236,-0.0017435033805668354,-0.0015182615024968982
1772702658468708400,0.449708251953125,-0.0028734710067510605,0.00541880214586854,-0.00031664333073422313
1772702658478758400,0.45975830078125,-0.0011890417663380504,0.009693684056401253,0.001803919905796647
1772702658488808400,0.469808349609375,-0.001417008345015347,0.010687308385968208,0.0009506432106718421
1772702658498858200,0.479858154296875,-0.0024401028640568256,0.008965473622083664,0.0015777575317770243
1772702658508907300,0.4899072265625,0.00022252555936574936,0.004554213024675846,-0.00045450072502717376
1772702658518957300,0.499957275390625,-0.002351253293454647,0.008075209334492683,0.00009893591050058603
1772702658529007400,0.51000732421875,-0.001667353673838079,0.006565996445715427,0.0011945604346692562
1772702658539057200,0.52005712890625,-0.006178935058414936,0.008887950330972672,-0.00011772237485274673
1772702658549107200,0.530107177734375,-0.003153850557282567,0.002181312534958124,0.0057015507481992245
1772702658559157200,0.5401572265625,-0.002826834097504616,0.0035309772938489914,0.008351283147931099
1772702658569207600,0.55020751953125,-0.004977070260792971,0.00842959526926279,0.003092072671279311
1772702658579257300,0.56025732421875,-0.004505015444010496,0.009817913174629211,0.0018075534608215094
1772702658589306400,0.570306396484375,-0.002059700433164835,0.010933510959148407,0.005647032987326384
1772702658599356400,0.5803564453125,-0.004179453477263451,0.009531877003610134,0.004182370845228434
1772702658609406200,0.59040625,-0.00407132925465703,0.008271138183772564,0.0041725169867277145
1772702658619456300,0.600456298828125,-0.0024532745592296124,0.005664762109518051,0.0008852578466758132
1772702658629506300,0.61050634765625,-0.002893229015171528,0.006115635856986046,-0.0008833473548293114
1772702658639556400,0.620556396484375,-0.0016321500297635794,0.012614419683814049,-0.0037046060897409916
1772702658649606100,0.630606201171875,-0.0010108344722539186,0.009078007191419601,-0.0021842075511813164
1772702658659656200,0.64065625,-0.0029710859525948763,0.008373035117983818,-0.0006473305402323604
1772702658669706200,0.650706298828125,-0.000908201327547431,0.004553795792162418,-0.0011051279725506902
1772702658679755300,0.66075537109375,-0.004351883661001921,0.004854048136621714,0.00003575248410925269
1772702658689805300,0.670805419921875,-0.00452605402097106,0.003442839253693819,-0.0024140893947333097
1772702658699855400,0.68085546875,-0.005861558020114899,0.004711175803095102,-0.001629693666473031
1772702658709905400,0.690905517578125,-0.005814420059323311,0.01069929264485836,-0.003188175382092595
1772702658719955200,0.700955078125,-0.004638653714209795,0.01587272435426712,-0.0032894888427108526
1772702658730005200,0.711005126953125,-0.004394708201289177,0.008619338274002075,-0.004096427001059055
1772702658740055300,0.72105517578125,-0.004458901472389698,0.0043808529153466225,-0.003616815898567438
1772702658750105300,0.731105224609375,-0.005605392158031464,0.005980613641440868,-0.0015187776880338788
1772702658760155400,0.7411552734375,-0.0035487108398228884,0.015244580805301666,-0.00416374858468771
1772702658770204400,0.751204345703125,-0.0015548020601272583,0.021258531138300896,-0.00324735464528203
1772702658780254500,0.76125439453125,0.0005774530582129955,0.013324394822120667,-0.00430286256596446
1772702658790304500,0.771304443359375,-0.004855129402130842,0.004048339556902647,-0.0023315907455980778
1772702658800354300,0.781354248046875,-0.002027176320552826,0.0055127330124378204,-0.006750914268195629
1772702658810404400,0.791404296875,-0.003839723765850067,0.013621792197227478,-0.007068096660077572
1772702658820454400,0.801454345703125,-0.0018792615737766027,0.0100213922560215,-0.011093675158917904
1772702658830504400,0.81150439453125,-0.004788764752447605,0.006388840731233358,-0.0067652384750545025
1772702658840554200,0.82155419921875,-0.003327012062072754,0.0050733136013150215,-0.004321536980569363
1772702658850603300,0.831603271484375,-0.002255090046674013,0.005511670373380184,-0.0053644306026399136
1772702658860653300,0.8416533203125,0.000845646602101624,0.010719618760049343,-0.006658673286437988
1772702658870703900,0.851703857421875,0.0025759022682905197,0.006927011534571648,-0.0022687185555696487
1772702658880753700,0.861753662109375,0.001038796966895461,0.0029057785868644714,-0.004357340279966593
1772702658890803700,0.8718037109375,0.0059025282971560955,0.00596681609749794,-0.0034313593059778214
1772702658900853800,0.881853759765625,0.0022263717837631702,0.008874062448740005,-0.004801194183528423
1772702658910903800,0.89190380859375,0.0018591218395158648,0.006157904397696257,-0.006506150122731924
1772702658920953900,0.901953857421875,0.0025062174536287785,-0.0005435203202068806,-0.0011763469083234668
1772702658931003000,0.9120029296875,0.002374124713242054,-0.002590425778180361,-0.0031305747106671333
1772702658941053000,0.922052978515625,0.001494554104283452,-0.005781551823019981,-0.0045171878300607204
1772702658951102700,0.932102783203125,0.0044448040425777435,-0.0014597740955650806,-0.006718556396663189
1772702658961152800,0.94215283203125,0.003264862112700939,-0.0022300011478364468,-0.008422750979661942
1772702658971202800,0.952202880859375,0.006321105640381575,-0.003726963885128498,-0.004389127250760794
1772702658981252900,0.9622529296875,0.0037264779675751925,0.0003214743919670582,-0.004573209211230278
1772702658991302700,0.972302734375,0.002472928026691079,0.005039796698838472,-0.005603319499641657
1772702659001352700,0.982352783203125,0.004053124226629734,0.005351133178919554,-0.006577313877642155
1772702659011402000,0.992402099609375,0.0044960081577301025,0.0051942733116447926,-0.005443872883915901
1772702659021451800,1.00245166015625,0.005083112046122551,0.0015918277204036713,-0.001202599611133337
1772702659031501800,1.012501708984375,0.004803480114787817,-0.00005560321733355522,-0.0011866206768900156
1772702659041552000,1.0225517578125,0.0056097423657774925,-0.001596787478774786,-0.005138407927006483
1772702659051602000,1.032601806640625,0.001772126997821033,-0.0010537686757743359,-0.004285131115466356
1772702659061651700,1.042651611328125,0.0016183196566998959,0.0016011237166821957,-0.007875529117882252
1772702659071701800,1.05270166015625,0.00125559710431844,-0.0015374119393527508,-0.0033638672903180122
1772702659081751800,1.062751708984375,0.0016397880390286446,-0.004212520085275173,-0.006631797179579735
1772702659091801900,1.0728017578125,0.0026685670018196106,-0.0077936723828315735,-0.0061843860894441605
1772702659101850600,1.0828505859375,0.00280271889641881,-0.004342887084931135,-0.002690945751965046
1772702659111901000,1.09290087890625,0.003337481524795294,-0.0028387336060404778,-0.006891815923154354
1772702659121951000,1.102950927734375,0.0031143224332481623,-0.00444961991161108,-0.0037711027543991804
1772702659132001000,1.1130009765625,0.003509002737700939,-0.00499050784856081,-0.0031497874297201633
1772702659142050800,1.12305078125,0.00003173190634697676,0.001564358826726675,-0.00481734424829483
1772702659152100900,1.133100830078125,0.0022224481217563152,-0.00035764463245868683,-0.000966946012340486
1772702659162151000,1.14315087890625,0.0021176435984671116,0.004301008768379688,-0.0023181578144431114
1772702659172201000,1.153200927734375,-0.0009260831866413355,0.0025696875527501106,-0.0015554287238046527
1772702659182249700,1.163249755859375,0.00058737862855196,-0.001295420341193676,0.00047361094038933516
1772702659192299800,1.1732998046875,-0.00032715091947466135,0.002177608199417591,0.0009532462572678924
1772702659202349800,1.183349853515625,-0.0023648650385439396,0.00523762870579958,0.0004958136705681682
1772702659212399600,1.193399658203125,-0.0028985626995563507,0.003788602538406849,0.0017269931267946959
1772702659222449700,1.20344970703125,-0.0024059631396085024,0.0010520052164793015,0.002980427583679557
1772702659232499700,1.213499755859375,-0.003268561093136668,0.0020381733775138855,0.0023215613327920437
1772702659242550000,1.223550048828125,-0.0014586620964109898,0.002688043285161257,0.003123459406197071
1772702659252599800,1.233599853515625,-0.0014930167235434055,0.00948682613670826,0.0002459137758705765
1772702659262648800,1.24364892578125,-0.0005787883419543505,0.00855676643550396,0.0016500658821314573
1772702659272699000,1.253698974609375,-0.0009303255937993526,0.004443515557795763,0.004111359361559153
1772702659282749000,1.2637490234375,-0.00044931797310709953,0.006160770542919636,0.002446042373776436
1772702659292798700,1.273798828125,-0.0020296378061175346,0.00726944487541914,0.0026915858034044504
1772702659302848800,1.283848876953125,-0.0020621877629309893,0.0066552432253956795,0.0009751070174388587
1772702659312898800,1.29389892578125,-0.0013886743690818548,0.004937238059937954,0.002898175735026598
1772702659322948900,1.303948974609375,-0.0007174506317824125,0.005638669710606337,0.000023519416572526097
1772702659332998700,1.31399853515625,-0.004200066439807415,0.00850449874997139,-0.0014145876048132777
1772702659343048000,1.3240478515625,-0.0025911799166351557,0.010134759359061718,0.000947199237998575
1772702659353098000,1.334097900390625,-0.003997062332928181,0.007306216284632683,-0.0012517728609964252
1772702659363147800,1.344147705078125,-0.003279603086411953,0.006009757984429598,-0.0040091159753501415
1772702659373197800,1.35419775390625,-0.005476711317896843,0.006775416899472475,-0.006832333281636238
1772702659383248000,1.364247802734375,-0.0012100288877263665,0.0035666637122631073,-0.0017428961582481861
1772702659393298000,1.3742978515625,-0.0026308251544833183,0.004020731896162033,-0.0013508789706975222
1772702659403347700,1.38434765625,0.000740736722946167,0.004136047326028347,-0.004041736945509911
1772702659413397800,1.394397705078125,0.0007655040826648474,0.0060820188373327255,-0.004200461320579052
1772702659423447800,1.40444775390625,-0.0009791144402697682,0.005940123926848173,-0.006210599560290575
1772702659433496800,1.414496826171875,0.001687242416664958,0.0045227897353470325,-0.0034092203713953495
1772702659443547000,1.424546875,-0.003037684829905629,0.003106874879449606,-0.0070574055425822735
1772702659453597000,1.434596923828125,0.0023134045768529177,-0.0007919929921627045,-0.009385008364915848
1772702659463647000,1.44464697265625,0.0014010056620463729,-0.004212557338178158,-0.005208106711506844
1772702659473696800,1.45469677734375,0.0012977274600416422,0.0014065592549741268,-0.005068309139460325
1772702659483746800,1.464746826171875,-0.0008331566350534558,0.01058337651193142,-0.003990738652646542
1772702659493796900,1.474796875,0.002814042381942272,0.016700124368071556,-0.007272019516676664
1772702659503847000,1.484846923828125,-0.0006128421518951654,0.013437891378998756,-0.00404603686183691
1772702659513895700,1.494895751953125,-0.00165546964854002,0.008563775569200516,-0.0037150054704397917
1772702659523945700,1.50494580078125,-0.002212013117969036,0.008738294243812561,-0.0026374163571745157
1772702659533995800,1.514995849609375,-0.0024607526138424873,0.008457597345113754,-0.005554909352213144
1772702659544045800,1.5250458984375,-0.0042469738982617855,0.007168308366090059,-0.00719004962593317
1772702659554095900,1.535095947265625,-0.0007350633386522532,0.0037823650054633617,-0.0073370561003685
1772702659564146000,1.54514599609375,-0.0017402960220351815,0.00214124983176589,-0.005836577154695988
1772702659574196000,1.555196044921875,0.002688540844246745,0.007242002058774233,-0.0026796660386025906
1772702659584246000,1.56524609375,0.0021018784027546644,0.008570210076868534,-0.00011144374730065465
1772702659594294800,1.575294677734375,0.0018715148326009512,0.005852187983691692,-0.0061682709492743015
1772702659604344800,1.5853447265625,0.0035468577407300472,0.010616734623908997,-0.00013086653780192137
1772702659614395000,1.595394775390625,0.005207338370382786,0.009456662461161613,-0.002286695409566164
1772702659624444700,1.605444580078125,0.005882591009140015,0.004693638999015093,-0.004489302635192871
1772702659634494700,1.61549462890625,0.005086039192974567,-0.0027224658988416195,-0.007450737990438938
1772702659644544800,1.625544677734375,0.0027588699012994766,-0.0002963189035654068,-0.005871354136615992
1772702659654594800,1.6355947265625,0.0011215584818273783,0.00020701857283711433,-0.004804758355021477
1772702659664644600,1.64564453125,0.002814735285937786,-0.002399490214884281,-0.007081829942762852
1772702659674694000,1.65569384765625,0.0031633428297936916,-0.0025936346501111984,-0.0078589404001832
1772702659684744000,1.665743896484375,0.004491426050662994,0.0011858646757900715,-0.0061611393466591835
1772702659694794000,1.6757939453125,0.00004953972529619932,-0.003958030603826046,-0.005324374418705702
1772702659704843800,1.68584375,0.004591564182192087,0.00023695128038525581,-0.0049413167871534824
1772702659714893800,1.695893798828125,0.0020559686236083508,0.003383475821465254,-0.0046736691147089005
1772702659724944000,1.70594384765625,0.002536292653530836,0.004026968963444233,-0.0013788610231131315
1772702659734994000,1.715993896484375,0.003650559112429619,0.005925004370510578,0.002212944207713008
1772702659745043700,1.726043701171875,0.004268749617040157,0.004683312494307756,0.00030248769326135516
1772702659755092700,1.7360927734375,0.0021033338271081448,0.0062409951351583,0.0024860133416950703
1772702659765143000,1.74614306640625,0.0010583093389868736,0.005561356898397207,-0.002245358657091856
1772702659775192800,1.75619287109375,0.0000023659085854887962,0.0018313326872885227,0.004214138723909855
1772702659785243000,1.766242919921875,0.00006152736023068428,0.0008079330436885357,-0.0007311255321837962
1772702659795293000,1.77629296875,0.00013556319754570723,-0.003055781591683626,-0.0013598978985100985
1772702659805343000,1.786343017578125,0.0012106948997825384,0.004119367338716984,0.0017192699015140533
1772702659815392800,1.796392822265625,0.0018184282816946507,0.0027805957943201065,0.0009789110627025366
1772702659825442800,1.80644287109375,0.0011149303754791617,0.006771803367882967,0.004563582129776478
1772702659835492900,1.816492919921875,-0.001165800727903843,0.00827888585627079,0.004559054970741272
1772702659845541600,1.826541748046875,-0.0012850951170548797,0.010448619723320007,0.003813122631981969
1772702659855591700,1.836591796875,-0.0027692746371030807,0.008271485567092896,0.002878352999687195
1772702659865641700,1.846641845703125,-0.0024436763487756252,0.004686914850026369,0.0030067565385252237
1772702659875691500,1.85669140625,-0.0009624261874705553,0.0020964578725397587,0.002971869194880128
1772702659885741600,1.866741455078125,-0.005448947194963694,-0.00013291742652654648,0.0015923124738037586
1772702659895791600,1.87679150390625,-0.006371732335537672,0.005041871219873428,-0.0005182426539249718
1772702659905841400,1.88684130859375,-0.005042010918259621,0.002785608172416687,-0.0012510521337389946
1772702659915891500,1.896891357421875,-0.004221757408231497,0.003186146728694439,0.0009271472808904946
1772702659925940500,1.9069404296875,-0.0021488829515874386,0.00617159903049469,0.005262605380266905
1772702659935990300,1.916990234375,-0.004095653537660837,0.002453027293086052,0.003922769334167242
1772702659946040300,1.927040283203125,-0.005419083870947361,0.0026277718134224415,0.0038442444056272507
1772702659956090400,1.93709033203125,-0.00414635892957449,0.004510893020778894,0.002297480357810855
1772702659966140400,1.947140380859375,-0.005543524399399757,0.003529112786054611,0.0010078828781843185
1772702659976190500,1.9571904296875,-0.0034255124628543854,0.004152825102210045,0.000580445455852896
1772702659986240500,1.967240478515625,-0.0054361638613045216,0.004528147168457508,0.004169453401118517
1772702659996290600,1.97729052734375,-0.004113638307899237,0.004196051508188248,0.0037673162296414375
1772702660006339600,1.987339599609375,-0.003437901148572564,0.0021314863115549088,0.0017111953347921371
1772702660016389400,1.997389404296875,-0.002945748856291175,0.002927239052951336,0.0008912080666050315
1772702660026439400,2.007439453125,-0.002269790507853031,0.00040239281952381134,0.0027610985562205315
1772702660036489500,2.017489501953125,-0.002311868127435446,-0.0013989689759910107,0.0005711811245419085
1772702660046539500,2.02753955078125,-0.003107815980911255,0.0030302749946713448,0.002045336179435253
1772702660056589300,2.03758935546875,-0.0012199010234326124,0.008280697278678417,0.0002724698861129582
1772702660066639400,2.047639404296875,-0.0027470290660858154,0.0050083305686712265,-0.0008339026826433837
1772702660076689400,2.057689453125,-0.0012615175219252706,0.007082399912178516,-0.00124243157915771
1772702660086738400,2.067738525390625,-0.0020562754943966866,0.0013029328547418118,-0.0012521143071353436
1772702660096788500,2.07778857421875,-0.00027701747603714466,0.0036553028039634228,-0.0031999503262341022
1772702660106838500,2.087838623046875,0.0011906159343197942,0.002571845892816782,-0.001522025209851563
1772702660116888600,2.097888671875,-0.0012072944082319736,0.001998733263462782,-0.0020424067042768
1772702660126938400,2.1079384765625,-0.0012876502005383372,0.006147545296698809,-0.00047504180110991
1772702660136988400,2.117988525390625,0.0037150979042053223,0.007440243382006884,0.000004327186616137624
1772702660147038500,2.12803857421875,0.004183333367109299,0.005678410176187754,0.0007896749884821475
1772702660157088500,2.138088623046875,0.004311431664973497,0.0032586618326604366,-0.001987735740840435
1772702660167137300,2.14813720703125,0.004236708395183086,-0.00024187378585338593,0.0017268946394324303
1772702660177187300,2.158187255859375,0.001967428717762232,0.004633042961359024,-0.002623911714181304
1772702660187237400,2.1682373046875,0.0016055176965892315,0.004356668330729008,-0.0014467716682702303
1772702660197287700,2.17828759765625,0.002127230865880847,0.0020634206011891365,-0.00452085817232728
1772702660207337500,2.18833740234375,-0.00005984143353998661,0.005305883940309286,-0.006108486093580723
1772702660217387500,2.198387451171875,0.0015540341846644878,0.004539692308753729,-0.004507393576204777
1772702660227437600,2.2084375,0.0007283110753633082,0.008970914408564568,-0.003552306443452835
1772702660237487600,2.218487548828125,-0.0016440327744930983,0.012749141082167625,-0.004983489401638508
1772702660247537400,2.228537353515625,-0.004686927888542414,0.011847216635942459,-0.003595581278204918
1772702660257586400,2.23858642578125,-0.005319428630173206,0.007670579943805933,-0.009684366174042225
1772702660267636500,2.248636474609375,-0.0015812733909115195,0.004385584965348244,-0.009029305540025234
1772702660277686300,2.258686279296875,-0.007561135105788708,0.004714219830930233,-0.011146252043545246
1772702660287736300,2.268736328125,-0.0037878972943872213,0.0015795514918863773,-0.010063049383461475
1772702660297786400,2.278786376953125,-0.004037168808281422,-0.0018066572956740856,-0.006598276551812887
1772702660307836400,2.28883642578125,-0.00037217873614281416,-0.00031966203823685646,-0.0065673659555613995
1772702660317886500,2.298886474609375,-0.0007162592373788357,0.0015906239859759808,-0.006942338775843382
1772702660327936500,2.3089365234375,-0.0017740244511514902,0.004666353575885296,-0.003775618504732847
1772702660337985500,2.318985595703125,-0.0008128895424306393,0.005077545531094074,-0.00645609013736248
1772702660348035300,2.329035400390625,0.0017687694635242224,0.007229420356452465,-0.006097449921071529
1772702660358085400,2.33908544921875,0.0018697031773626804,0.013613018207252026,-0.0013165430864319205
1772702660368135400,2.349135498046875,0.00269033364020288,0.003572560381144285,-0.00012871850049123168
1772702660378185500,2.359185546875,0.0008048155577853322,0.001470260787755251,-0.0038494206964969635
1772702660388235300,2.3692353515625,0.00038550596218556166,-0.0005893833003938198,-0.005552416201680899
1772702660398285300,2.379285400390625,-0.002970077097415924,-0.0011632940731942654,-0.008388683199882507
1772702660408335400,2.38933544921875,-0.002546535339206457,-0.005617570132017136,-0.006407793145626783
1772702660418384600,2.399384521484375,-0.00382778188213706,-0.007023186888545752,-0.004436787683516741
1772702660428434400,2.409434326171875,-0.0015033853705972433,-0.004720842000097036,-0.007451572455465794
1772702660438484500,2.419484375,-0.004022202920168638,-0.0037839419674128294,-0.007212154101580381
1772702660448534500,2.429534423828125,-0.0007921789074316621,-0.0009537860751152039,-0.005866801366209984
1772702660458584600,2.43958447265625,-0.002522700931876898,0.002337082289159298,-0.004944016225636005
1772702660468634400,2.44963427734375,-0.0025770296342670918,0.004449501633644104,-0.00279005104675889
1772702660478684400,2.459684326171875,-0.0011668856022879481,0.007212797179818153,-0.005494757555425167
1772702660488734500,2.469734375,-0.004534218460321426,0.008702479302883148,-0.0030269422568380833
1772702660498783200,2.479783203125,-0.0017799771158024669,0.007416173350065947,-0.0015017500845715404
1772702660508833500,2.48983349609375,-0.004494186490774155,0.004048274829983711,-0.002213762141764164
1772702660518883600,2.499883544921875,-0.0029732552357017994,0.006514628417789936,-0.0012848514597862959
1772702660528933600,2.50993359375,-0.0025283251889050007,0.003918110858649015,-0.0011651264503598213
1772702660538983400,2.5199833984375,-0.005525979679077864,0.004872321616858244,0.001040503615513444
1772702660549033500,2.530033447265625,-0.007333077490329742,0.005298681557178497,0.0008943733992055058
1772702660559083500,2.54008349609375,-0.0040778955444693565,0.004066437482833862,0.0014962478308007121
1772702660569133600,2.550133544921875,-0.0024572769179940224,0.010052623227238655,0.00009474161197431386
1772702660579182300,2.560182373046875,-0.0020697866566479206,0.009947428479790688,0.001152815530076623
1772702660589232400,2.570232421875,-0.0009597630705684423,0.005651511717587709,0.004706918261945248
1772702660599282400,2.580282470703125,-0.0021976002026349306,0.008004946634173393,0.002256277948617935
1772702660609332500,2.59033251953125,-0.0013715231325477362,0.009145254269242287,0.0020797462202608585
1772702660619382300,2.60038232421875,-0.001826124731451273,0.0030945525504648685,0.0023031854070723057
1772702660629432300,2.610432373046875,-0.0032518217340111732,-0.0013813781552016735,0.002076324075460434
1772702660639482600,2.620482666015625,-0.002760202158242464,-0.001577387098222971,0.00262360367923975
1772702660649532700,2.63053271484375,-0.0015804031863808632,-0.0009331405162811279,0.0025129299610853195
1772702660659582500,2.64058251953125,-0.003320778952911496,-0.0006188875995576382,0.00444425456225872
1772702660669631500,2.650631591796875,-0.0031643081456422806,-0.0019837445579469204,0.005522491876035929
1772702660679681500,2.660681640625,-0.002058563753962517,0.0020581348799169064,0.004873479716479778
1772702660689731300,2.6707314453125,-0.003598636481910944,0.0023535657674074173,0.007981255650520325
1772702660699781400,2.680781494140625,-0.0027413652278482914,0.004811663180589676,0.007629984989762306
1772702660709831400,2.69083154296875,-0.0017001103842630982,0.0038644857704639435,0.00818668957799673
1772702660719881500,2.700881591796875,-0.0022244867868721485,0.00007267715409398079,0.012418452650308609
1772702660729931300,2.71093115234375,-0.0029375499580055475,0.001782751176506281,0.009912257082760334
1772702660739981300,2.720981201171875,-0.004022255539894104,0.0045601618476212025,0.008301310241222382
1772702660750030600,2.731030517578125,-0.0017328072572126985,0.003936310298740864,0.0110075194388628
1772702660760080400,2.741080322265625,-0.001965567469596863,-0.0032201362773776054,0.011347073130309582
1772702660770130400,2.75113037109375,-0.0017515018116682768,-0.0018233978189527988,0.012561660259962082
1772702660780180500,2.761180419921875,-0.0010247251484543085,-0.0032207584008574486,0.010588523931801319
1772702660790230500,2.77123046875,-0.0015215659514069557,-0.0007571331225335598,0.012298868037760258
1772702660800280300,2.7812802734375,-0.002612130716443062,0.007521303370594978,0.006467610597610474
1772702660810330400,2.791330322265625,-0.0029077320359647274,0.008917558006942272,0.00880275759845972
1772702660820380400,2.80138037109375,-0.0005921134725213051,0.00619713868945837,0.007361454423516989
1772702660830429400,2.811429443359375,0.00038153817877173424,-0.0024983487091958523,0.009525539353489876
1772702660840479500,2.8214794921875,-0.0009897234849631786,0.00026121921837329865,0.008195290341973305
1772702660850529500,2.831529541015625,-0.002637340221554041,-0.0017995936796069145,0.004893091972917318
1772702660860579600,2.84157958984375,-0.0014210744993761182,0.00026089372113347054,0.007426290772855282
1772702660870629600,2.851629638671875,-0.0015427811304107308,-0.00014443881809711456,0.006466753780841827
1772702660880679700,2.8616796875,0.0005866825231350958,0.0011434652842581272,0.005451024044305086
1772702660890729700,2.871729736328125,0.0007251129136420786,-0.0013093925081193447,0.006130850873887539
1772702660900779500,2.881779541015625,-0.002138317795470357,0.0024089128710329533,0.006448832340538502
1772702660910828500,2.89182861328125,0.0023472080938518047,0.0008048107847571373,0.004982898011803627
1772702660920878600,2.901878662109375,0.0016151050804182887,0.0001765713095664978,0.0049291024915874004
1772702660930928400,2.911928466796875,0.0015877654077485204,-0.00017664069309830666,0.005288205109536648
1772702660940978400,2.921978515625,0.0012676534242928028,-0.0006834403611719608,0.0012484563048928976
1772702660951028500,2.932028564453125,0.0024095354601740837,-0.004700782708823681,0.003385088872164488
1772702660961078500,2.94207861328125,0.0026843734085559845,-0.009157583117485046,0.0045744567178189754
1772702660971128600,2.952128662109375,0.0009253286989405751,-0.007919734343886375,0.0047713275998830795
1772702660981178600,2.9621787109375,0.00036979326978325844,0.0016346229240298271,0.005728467833250761
1772702660991227600,2.9722275390625,0.0011622437741607428,0.010283814743161201,0.0036903901491314173
1772702661001277700,2.982277587890625,-0.00022499682381749153,0.009197244420647621,0.005519182421267033
1772702661011327500,2.992327392578125,-0.0010513941524550319,0.0063497647643089294,0.008171044290065765
1772702661021377500,3.00237744140625,0.00020987901370972395,0.00810212455689907,0.0047949543222785
1772702661031427600,3.012427490234375,-0.00003305415157228708,0.004715802613645792,0.002448729006573558
1772702661041477600,3.0224775390625,-0.001193127129226923,-0.00011543743312358856,0.004661816172301769
1772702661051527400,3.03252734375,-0.0003043062752112746,-0.0044100647792220116,0.00306506035849452
1772702661061577500,3.042577392578125,0.001681612920947373,-0.00867058988660574,0.003466931637376547
1772702661071627500,3.05262744140625,0.002286878414452076,-0.008849960751831532,0.006294314283877611
1772702661081676500,3.062676513671875,0.003554809372872114,-0.007241412065923214,0.005964614916592836
1772702661091726600,3.0727265625,0.0036801565438508987,-0.005030627362430096,0.005022709723562002
1772702661101776600,3.082776611328125,0.010852581821382046,-0.0008441382087767124,0.004829363897442818
1772702661111826700,3.09282666015625,0.009214949794113636,0.004340927116572857,0.003012842731550336
1772702661121876500,3.10287646484375,0.006956589873880148,0.0021358300000429153,-0.0009312988840974867
1772702661131926500,3.112926513671875,0.0047270990908145905,-0.007271324284374714,-0.004293748643249273
1772702661141976600,3.1229765625,0.005074375309050083,-0.014608066529035568,-0.005878595635294914
1772702661152026600,3.133026611328125,0.00508502870798111,-0.013468211516737938,-0.0076262615621089935
1772702661162075400,3.143075439453125,0.0038016510661691427,-0.01860305294394493,-0.006722385063767433
1772702661172125700,3.153125732421875,0.006238514557480812,-0.022406460717320442,-0.005948008969426155
1772702661182175700,3.16317578125,0.006488585378974676,-0.020034916698932648,-0.0072084832936525345
1772702661192225500,3.1732255859375,0.0052933585830032825,-0.01656508445739746,-0.007312346715480089
1772702661202275600,3.183275634765625,0.006235851440578699,-0.008574003353714943,-0.003485650522634387
1772702661212325600,3.19332568359375,0.006743145640939474,-0.006971633527427912,-0.004544485360383987
1772702661222375700,3.203375732421875,0.005191055592149496,-0.004716468974947929,-0.005425458773970604
1772702661232425700,3.21342578125,0.007549181114882231,-0.008689310401678085,-0.003093124832957983
1772702661242474500,3.223474609375,0.006716942880302668,-0.007405933458358049,-0.004851077683269978
1772702661252524500,3.233524658203125,0.005243910476565361,-0.006032085511833429,-0.003026407677680254
1772702661262574600,3.24357470703125,0.004474523477256298,-0.013713973574340343,-0.0013179900124669075
1772702661272624400,3.253624267578125,0.0074041420593857765,-0.013051630929112434,-0.0011444271076470613
1772702661282674400,3.26367431640625,0.007108531426638365,-0.00863344594836235,-0.0018062226008623838
1772702661292724700,3.273724853515625,0.0043043652549386024,-0.007134072482585907,-0.0005588737549260259
1772702661302774800,3.28377490234375,0.007636512164026499,-0.00830080360174179,-0.0010994954500347376
1772702661312824600,3.293824462890625,0.005348005332052708,-0.004466761834919453,-0.0014747160021215677
1772702661322873600,3.30387353515625,0.007144040893763304,-0.003112544771283865,-0.0038755557034164667
1772702661332923600,3.313923583984375,0.0019161492818966508,-0.0022653257474303246,-0.0024556173011660576
1772702661342973400,3.323973388671875,0.005042700096964836,-0.005661122500896454,-0.002039098646491766
1772702661353023500,3.3340234375,0.004973475355654955,-0.006140461191534996,-0.000760399445425719
1772702661363073500,3.344073486328125,0.0030765056144446135,-0.003165710251778364,0.0005850296001881361
1772702661373123600,3.35412353515625,0.0023333958815783262,-0.002858287189155817,-0.0014349233824759722
1772702661383173400,3.36417333984375,-0.0001444091321900487,-0.0010302932932972908,0.00010118796490132809
1772702661393223400,3.374223388671875,-0.0009758309461176395,-0.004475859925150871,-0.003455880330875516
1772702661403273500,3.3842734375,0.0013184823328629136,-0.009627212770283222,-0.0037964985240250826
1772702661413322800,3.39432275390625,-0.0023460618685930967,-0.015245767310261726,-0.004011282231658697
1772702661423372500,3.40437255859375,-0.001996122533455491,-0.017767515033483505,-0.000930270878598094
1772702661433422600,3.414422607421875,-0.000810411642305553,-0.012666089460253716,-0.0017429727595299482
1772702661443472600,3.42447265625,-0.0013273312943056226,-0.004535725340247154,-0.002712097018957138
1772702661453522700,3.434522705078125,-0.00032704800833016634,0.001022558193653822,-0.0032724260818213224
1772702661463572500,3.444572509765625,-0.00030414480715990067,-0.003799361176788807,-0.00016451725969091058
1772702661473622500,3.45462255859375,-0.0016408934025093913,0.005066372454166412,-0.005401947535574436
1772702661483672600,3.464672607421875,-0.0008454070193693042,0.001332620158791542,-0.001179505605250597
1772702661493721600,3.4747216796875,-0.0012037975247949362,-0.0003551510162651539,-0.0012430596398189664
1772702661503771600,3.484771728515625,-0.0018714519683271646,-0.0031770365312695503,0.0015945385675877333
1772702661513821700,3.49482177734375,-0.0037487621884793043,0.0002293144352734089,0.0005377100897021592
1772702661523871700,3.504871826171875,-0.00736906286329031,0.000581118743866682,0.0010506348917260766
1772702661533921500,3.514921630859375,-0.0044899750500917435,0.002209534402936697,0.0035766656510531902
1772702661543971600,3.5249716796875,-0.005415157414972782,0.002245220821350813,0.004043251741677523
1772702661554021600,3.535021728515625,-0.004068381153047085,0.004682845901697874,0.0037155344616621733
1772702661564071700,3.54507177734375,-0.0034393426030874252,0.004723858553916216,0.003981850575655699
1772702661574121500,3.55512158203125,-0.003245410043746233,0.009534167125821114,0.003064902499318123
1772702661584170500,3.56517041015625,-0.0043977596797049046,0.007097641471773386,0.00013036528252996504
1772702661594220500,3.575220458984375,-0.002762417308986187,0.006023872178047895,0.0014469019370153546
1772702661604270300,3.585270263671875,-0.005899887531995773,0.007581023033708334,0.003262645099312067
1772702661614320600,3.595320556640625,-0.003305933903902769,0.008051976561546326,0.0003888619539793581
1772702661624370700,3.60537060546875,-0.005410097539424896,0.007715086918324232,0.0024099349975585938
1772702661634420700,3.615420654296875,-0.002977267373353243,0.008919699117541313,0.000195218191947788
1772702661644470800,3.625470703125,-0.005864400416612625,0.01185077428817749,-0.0008894872735254467
1772702661654520600,3.6355205078125,-0.005189147777855396,0.01562022790312767,0.001687844516709447
1772702661664569600,3.645569580078125,-0.004952392540872097,0.006945779547095299,-0.0007622636039741337
1772702661674619600,3.65561962890625,-0.005726892501115799,0.0007191966287791729,0.003616258967667818
1772702661684669400,3.66566943359375,-0.006068842485547066,0.0062047760002315044,0.002788814716041088
1772702661694719500,3.675719482421875,-0.005294946022331715,0.009409062564373016,0.0025881638284772635
1772702661704769500,3.68576953125,-0.005496546626091003,0.013377439230680466,0.004459567368030548
1772702661714819600,3.695819580078125,-0.008321467787027359,0.010923645459115505,0.002002573572099209
1772702661724869400,3.705869384765625,-0.007683906704187393,0.0063515305519104,0.003038010559976101
1772702661734919400,3.71591943359375,-0.006351403892040253,0.007965393364429474,-0.0010818233713507652
1772702661744968700,3.72596875,-0.007248089648783207,0.009617617353796959,-0.002485841978341341
1772702661755018500,3.7360185546875,-0.0073865922167897224,0.0084117092192173,-0.002200199756771326
1772702661765068500,3.746068603515625,-0.004557516425848007,0.005220442544668913,-0.0017440002411603928
1772702661775118600,3.75611865234375,-0.00396091490983963,0.005192324053496122,-0.004297193139791489
1772702661785168600,3.766168701171875,-0.005703154951334,0.004006685223430395,-0.0018164586508646607
1772702661795218400,3.776218505859375,-0.0043570962734520435,0.0019159684889018536,-0.0021200254559516907
1772702661805268500,3.7862685546875,-0.0024026024620980024,0.002167371567338705,-0.00011253455886617303
1772702661815318500,3.796318603515625,-0.00149271369446069,0.00043399957939982414,-0.000027630769181996584
1772702661825367800,3.806367919921875,-0.0030975346453487873,0.004460965748876333,-0.00023269414668902755
1772702661835417600,3.81641748046875,0.0006257324712350965,0.005115380045026541,0.002547211479395628
1772702661845467600,3.826467529296875,0.001157033140771091,0.003460757900029421,0.0021980709861963987
1772702661855517700,3.836517578125,-0.0011497174855321646,0.002368226181715727,0.002735551679506898
1772702661865567700,3.846567626953125,0.0009033132810145617,0.005341645795851946,0.0008569578058086336
1772702661875617000,3.856616943359375,0.002231506397947669,0.001833354588598013,-0.0025060900952667
1772702661885667000,3.8666669921875,-0.0013991812011227012,-0.004858903121203184,-0.00651760958135128
1772702661895717000,3.876717041015625,-0.0007380454335361719,-0.016570156440138817,-0.004782266914844513
1772702661905767200,3.88676708984375,-0.0014246082864701748,-0.017990421503782272,-0.0032557430677115917
1772702661915816200,3.896816162109375,0.0017916914075613022,-0.01036792155355215,-0.001442396780475974
1772702661925866200,3.9068662109375,-0.00003576977178454399,-0.0031723263673484325,-0.002601670566946268
1772702661935916300,3.916916259765625,0.0011059798998758197,-0.0008744383230805397,-0.0018932886887341738
1772702661945966000,3.926966064453125,0.0036761965602636337,0.0012952391989529133,-0.0002589066862128675
1772702661956016000,3.93701611328125,0.0025751404464244843,0.005894051399081945,-0.005368242040276527
1772702661966066200,3.947066162109375,0.0016733939992263913,0.0003799763508141041,-0.0033407772425562143
1772702661976116200,3.9571162109375,0.0016473480500280857,0.000645847525447607,-0.005531680770218372
1772702661986166000,3.967166015625,0.0015773068880662322,-0.0048189591616392136,-0.004816622007638216
1772702661996215000,3.977215087890625,0.0017348050605505705,-0.006679484620690346,-0.003687213407829404
1772702662006265000,3.98726513671875,-0.000042322324588894844,-0.005931403022259474,-0.0027782765682786703
1772702662016315100,3.997315185546875,0.004240948706865311,-0.010317434556782246,0.0015574060380458832
1772702662026365000,4.007364990234375,0.002008687239140272,-0.008419932797551155,0.0019568800926208496
1772702662036415000,4.0174150390625,0.0037762271240353584,-0.007254000753164291,-0.004168656654655933
1772702662046465300,4.02746533203125,0.004593018442392349,-0.007080895360559225,-0.0032916776835918427
1772702662056515300,4.037515380859375,0.004215859808027744,-0.006028231233358383,-0.000701031181961298
1772702662066565000,4.047565185546875,0.003735425416380167,-0.0008206861093640327,-0.0008903818670660257
1772702662076614100,4.0576142578125,-0.0021555833518505096,-0.002025764901190996,-0.0035752546973526478
1772702662086664200,4.067664306640625,0.00007241731509566307,-0.002984236925840378,0.00027860552654601634
1772702662096714000,4.0777138671875,0.003996681421995163,-0.0070053450763225555,-0.0037442254833877087
1772702662106764000,4.087763916015625,0.0011697360314428806,-0.013370566070079803,-0.0013907898683100939
1772702662116814000,4.09781396484375,-0.0009140989277511835,-0.011728557758033276,-0.0006800476694479585
1772702662126864100,4.107864013671875,0.0005327964317984879,-0.010440653190016747,-0.0036164489574730396
1772702662136914000,4.117913818359375,-0.0010169147280976176,-0.009818834252655506,-0.001535570016130805
1772702662146964000,4.1279638671875,-0.000019028200767934322,-0.009363699704408646,-0.002208018209785223
1772702662157013200,4.13801318359375,-0.0001415872247889638,-0.009922808036208153,-0.002463395707309246
1772702662167063000,4.14806298828125,0.0010248774196952581,-0.009160878136754036,-0.0016418102895841002
1772702662177113000,4.158113037109375,0.0028489299584180117,-0.010815655812621117,0.00025194353656843305
1772702662187163100,4.1681630859375,0.0029565216973423958,-0.013049248605966568,0.0018146864604204893
1772702662197213200,4.178213134765625,0.004365032538771629,-0.00818586628884077,0.003014574758708477
1772702662207263200,4.18826318359375,0.0006816145032644272,-0.004700054880231619,-0.0013189211022108793
1772702662217313000,4.19831298828125,-0.0016542441444471478,-0.005749872885644436,-0.0001884091179817915
1772702662227363000,4.208363037109375,-0.0004425058141350746,-0.0069091469049453735,0.0037410850636661053
1772702662237413000,4.2184130859375,-0.002797432942315936,-0.005423412658274174,0.0005836025811731815
1772702662247462100,4.228462158203125,-0.0006631757132709026,-0.00927913747727871,0.0019990727305412292
1772702662257512200,4.23851220703125,-0.0004982259124517441,-0.009041724726557732,0.0016888431273400784
1772702662267562200,4.248562255859375,-0.0004177984083071351,-0.010977044701576233,0.003950399346649647
1772702662277612300,4.2586123046875,-0.0005733029684051871,-0.006555803585797548,-0.0018563105259090662
1772702662287662000,4.268662109375,-0.0011895583011209965,-0.005558716133236885,0.0020910268649458885
1772702662297712000,4.278712158203125,0.00003759085666388273,-0.0017507444135844707,0.0005963295116089284
1772702662307762200,4.28876220703125,-0.003598156850785017,-0.002727857790887356,0.002796366810798645
1772702662317812200,4.298812255859375,-0.0027820731047540903,-0.0004741251468658447,0.003033063607290387
1772702662327861000,4.308861083984375,-0.003176753642037511,-0.0013188798911869526,0.000009843031875789165
1772702662337911000,4.3189111328125,-0.0020045097917318344,-0.004831267520785332,-0.0020981719717383385
1772702662347961000,4.328961181640625,0.00022642023395746946,-0.006827839184552431,-0.0014907049480825663
1772702662358011000,4.339010986328125,-0.002201576018705964,-0.002364286221563816,-0.002541125752031803
1772702662368061200,4.349061279296875,0.0005380177753977478,-0.002844986505806446,-0.001613546977750957
1772702662378111200,4.359111328125,0.00002287223469465971,-0.009087893180549145,0.0023296859581023455
1772702662388161300,4.369161376953125,0.003928930498659611,-0.008687886409461498,-0.00020404555834829807
1772702662398211000,4.379211181640625,0.0011191358789801598,0.0007793409749865532,0.0004795481509063393
1772702662408261000,4.38926123046875,0.0015292627504095435,0.009572566486895084,-0.001164953806437552
1772702662418310100,4.39931005859375,-0.0021659601479768753,0.015027611516416073,-0.00017393799498677254
1772702662428360200,4.409360107421875,0.000025022425688803196,0.009647493250668049,-0.0010993864852935076
1772702662438410000,4.419409912109375,-0.001635442255064845,0.006765719968825579,-0.003636196255683899
1772702662448460000,4.4294599609375,-0.0038890091236680746,0.0018191640265285969,-0.005474842619150877
1772702662458510000,4.439510009765625,-0.0030189002864062786,-0.0022034309804439545,-0.004260196350514889
1772702662468560100,4.44956005859375,-0.0024971868842840195,-0.011114900931715965,-0.0049177310429513454
1772702662478610000,4.45960986328125,-0.0013823711778968573,-0.0069986870512366295,-0.004345833323895931
1772702662488660200,4.46966015625,-0.00007822131738066673,-0.003826063359156251,-0.002920243190601468
1772702662498709200,4.479709228515625,0.0007124174735508859,-0.002633344382047653,-0.002536461455747485
1772702662508759000,4.489759033203125,0.003773720934987068,0.0003491295501589775,-0.0019210048485547304
1772702662518809000,4.49980908203125,0.006914281286299229,-0.0001903851516544819,-0.003453349694609642
1772702662528859100,4.509859130859375,0.009260526858270168,-0.0010686954483389854,-0.0005803315434604883
1772702662538909200,4.5199091796875,0.00405506044626236,0.0017650607042014599,-0.005187315866351128
1772702662548959000,4.529958984375,0.005732585676014423,0.001711264718323946,-0.005283988546580076
1772702662559009000,4.540009033203125,0.006680210120975971,-0.0010215318761765957,-0.0010883499635383487
1772702662569059000,4.55005908203125,0.0014252603286877275,0.0009140539914369583,-0.001515254843980074
1772702662579108000,4.560108154296875,0.002961886115372181,-0.0024884063750505447,-0.0032164291478693485
1772702662589158100,4.570158203125,0.003444184549152851,-0.006379018537700176,-0.002078460529446602
1772702662599208200,4.580208251953125,0.0020247180946171284,-0.010784706100821495,-0.0011348016560077667
1772702662609258200,4.59025830078125,0.0035986462607979774,-0.01177620142698288,-0.0015747557627037168
1772702662619308300,4.600308349609375,0.0030360626988112926,-0.01240573450922966,-0.002396516501903534
1772702662629358000,4.610358154296875,0.0029260744340717793,-0.007608582731336355,-0.002350443508476019
1772702662639408000,4.620408203125,0.004625100642442703,0.0009299023076891899,-0.00218995101749897
1772702662649458200,4.630458251953125,0.005314593203365803,0.009192359633743763,-0.0031164647080004215
1772702662659508200,4.64050830078125,0.00315348943695426,0.010914184153079987,-0.0033906889148056507
1772702662669557000,4.650556884765625,0.00264162989333272,0.007580173667520285,-0.0028735031373798847
1772702662679607000,4.66060693359375,0.005847439169883728,0.0041745612397789955,-0.0021264501847326756
1772702662689657000,4.670656982421875,0.0016548248240724206,0.0029106251895427704,-0.0011083236895501614
1772702662699707100,4.68070703125,0.0024787504225969315,-0.0014525135047733784,-0.0028881896287202835
1772702662709757200,4.690757080078125,0.00011918984819203615,-0.005917303264141083,-0.0023550246842205524
1772702662719807200,4.70080712890625,0.002374355448409915,-0.010348382405936718,-0.004076965153217316
1772702662729857300,4.710857177734375,0.003285156562924385,-0.005507022142410278,-0.0032942621037364006
1772702662739907000,4.720906982421875,-0.0004900525091215968,0.00021878955885767937,0.001369616249576211
1772702662749956000,4.7309560546875,0.0019976061303168535,0.0019258749671280384,-0.0008471989422105253
1772702662760006100,4.741006103515625,0.0022262479178607464,0.006554730236530304,-0.00003767421003431082
1772702662770056000,4.751055908203125,0.003118406981229782,0.00499624852091074,-0.0017918983940035105
1772702662780106000,4.76110595703125,0.0011995095992460847,-0.00009348755702376366,-0.001685315277427435
1772702662790156000,4.771156005859375,0.00021147693041712046,0.0031225457787513733,0.0003141860943287611
1772702662800206000,4.7812060546875,-0.0012827207101508975,-0.00036207912489771843,0.002816785592585802
1772702662810256100,4.791256103515625,-0.001165808062069118,-0.002577562816441059,0.004469010978937149
1772702662820306200,4.80130615234375,-0.0011478534433990717,-0.0026382501237094402,0.0016087682452052832
1772702662830356200,4.811356201171875,-0.0020248321816325188,-0.003255837131291628,0.00018477594130672514
1772702662840405200,4.8214052734375,0.00022866344079375267,-0.000029025133699178696,0.0009450132492929697
1772702662850455000,4.831455078125,-0.00003818527329713106,0.00045593641698360443,0.0008195784175768495
1772702662860505000,4.841505126953125,-0.0024042262230068445,0.0001777326688170433,0.0017613276140764356
1772702662870555100,4.85155517578125,0.0004437582683749497,0.002408396452665329,-0.0007915786700323224
1772702662880606000,4.86160595703125,-0.001549919368699193,0.0017292085103690624,0.0015356263611465693
1772702662890655700,4.87165576171875,-0.001683876384049654,0.004448562394827604,-0.0010910494020208716
1772702662900705800,4.881705810546875,-0.0009340131655335426,0.003815591335296631,0.00320850545540452
1772702662910755800,4.891755859375,-0.00021575868595391512,0.0031079892069101334,0.005223186686635017
1772702662920804900,4.901804931640625,-0.0016688565956428647,0.0007864059880375862,0.002852786798030138
1772702662930855000,4.91185498046875,-0.000324759166687727,0.0009286189451813698,0.0013084195088595152
1772702662940905000,4.921905029296875,-0.0012029807548969984,0.00035727350041270256,0.004881260450929403
1772702662950955000,4.931955078125,-0.0018898099660873413,0.0036665177904069424,0.0031166498083621264
1772702662961004800,4.9420048828125,-0.0010977330384775996,0.005913272500038147,0.0021349892485886812
1772702662971054800,4.952054931640625,-0.002028508111834526,0.0007443428039550781,0.004886567126959562
1772702662981105000,4.96210498046875,-0.0027088916394859552,0.0041080256924033165,0.005135552491992712
1772702662991155000,4.972155029296875,0.000141489552333951,0.006171443499624729,0.0002878005616366863
1772702663001203700,4.98220361328125,-0.003223218722268939,0.0035584750585258007,-0.001489688758738339
1772702663011253800,4.992253662109375,-0.000599738908931613,0.006183553021401167,-0.004041795618832111
1772702663021303800,5.0023037109375,-0.0008154907263815403,0.0036018029786646366,0.000846038805320859
1772702663031353600,5.012353515625,-0.001058903755620122,0.00010294141247868538,-0.0008719663019292057
1772702663041403600,5.022403564453125,-0.0008566458709537983,-0.007000521291047335,-0.0015145112993195653
1772702663051454000,5.032453857421875,0.0028880247846245766,-0.002075803931802511,-0.004068749025464058
1772702663061504000,5.04250390625,0.001312198699451983,-0.003648994956165552,-0.004154468886554241
1772702663071553800,5.0525537109375,-0.000371718080714345,-0.003166962880641222,-0.004940367769449949
1772702663081603800,5.062603759765625,0.002937684301286936,-0.004929396323859692,-0.004803439602255821
1772702663091652900,5.07265283203125,-0.00151299056597054,-0.006757123861461878,-0.0032518820371478796
1772702663101703000,5.082702880859375,0.0017708669183775783,-0.007382364943623543,0.00012515790876932442
1772702663111752700,5.092752685546875,-0.0027221522759646177,-0.005651842802762985,-0.0014303945936262608
1772702663121802800,5.102802734375,-0.007148310076445341,-0.011626588180661201,-0.003901788732036948
1772702663131852800,5.112852783203125,-0.007307833526283503,-0.015382444486021996,0.0050877113826572895
1772702663141902800,5.12290283203125,-0.0053428118117153645,-0.01271900162100792,0.00579044409096241
1772702663151952600,5.13295263671875,-0.004346523433923721,-0.005857367068529129,-0.0016767929773777723
1772702663162002700,5.143002685546875,-0.0014003922697156668,-0.0013992213644087315,-0.005779734812676907
1772702663172052000,5.153052001953125,-0.0008011809550225735,-0.000774177722632885,-0.005628999788314104
1772702663182101800,5.163101806640625,-0.0002342270454391837,-0.004231845494359732,-0.0012674089521169662
1772702663192151800,5.17315185546875,-0.0007772454991936684,-0.0024880077689886093,-0.003502866253256798
1772702663202201900,5.183201904296875,0.0029236231930553913,0.0036029494367539883,-0.005407464690506458
1772702663212252000,5.193251953125,0.005345501936972141,0.005544926505535841,-0.008671967312693596
1772702663222301700,5.2033017578125,0.007256107870489359,0.014935608021914959,-0.006837337277829647
1772702663232351700,5.213351806640625,0.009376782923936844,0.023251861333847046,-0.007612849585711956
1772702663242401800,5.22340185546875,0.011463137343525887,0.018659833818674088,-0.008069349452853203
1772702663252451800,5.233451904296875,0.010467913933098316,0.009116397239267826,-0.010417724959552288
1772702663262500900,5.2435009765625,0.006436740513890982,0.0051081832498312,-0.018315082415938377
1772702663272551000,5.253551025390625,0.004379448480904102,0.0071244630962610245,-0.02025892399251461
1772702663282601000,5.26360107421875,0.004926100838929415,0.0006724214181303978,-0.021663617342710495
1772702663292651000,5.273651123046875,0.0037050414830446243,0.0013872133567929268,-0.022401046007871628
1772702663302700800,5.28370068359375,0.007192244287580252,0.005514233373105526,-0.023145655170083046
1772702663312750800,5.293750732421875,0.006047617644071579,-0.000023810192942619324,-0.025022918358445168
1772702663322801000,5.30380078125,0.007937436923384666,-0.006123731378465891,-0.023958761245012283
1772702663332851000,5.313850830078125,0.004887318704277277,-0.004795879125595093,-0.027163876220583916
1772702663342899700,5.323899658203125,0.005312212742865086,-0.0017204429022967815,-0.026059746742248535
1772702663352949800,5.33394970703125,0.006397183984518051,0.0041864481754601,-0.02541685849428177
1772702663362999800,5.343999755859375,0.007721239700913429,0.0037378035485744476,-0.027845928445458412
1772702663373049900,5.3540498046875,0.006232799030840397,0.003487199544906616,-0.02860759198665619
1772702663383100000,5.364099853515625,0.007640897296369076,0.0015395628288388252,-0.029627468436956406
1772702663393150000,5.37414990234375,0.006386281922459602,-0.0015081586316227913,-0.02363908290863037
1772702663403198700,5.38419873046875,0.002960695419460535,0.0030933301895856857,-0.023779302835464478
1772702663413248800,5.394248779296875,0.0044954754412174225,0.005988452583551407,-0.021429328247904778
1772702663423298800,5.404298828125,0.004898054990917444,0.004728585947304964,-0.016037868335843086
1772702663433348900,5.414348876953125,0.0040330602787435055,0.0054969084449112415,-0.016097523272037506
1772702663443398700,5.424398681640625,0.0022076584864407778,0.00804328266531229,-0.013693850487470627
1772702663453448700,5.43444873046875,0.0030007478781044483,0.007486681453883648,-0.011137748137116432
1772702663463498800,5.444498779296875,0.004354770295321941,0.008800027891993523,-0.011259626597166061
1772702663473548800,5.454548828125,0.0020599241834133863,0.015194542706012726,-0.012978163547813892
1772702663483598600,5.4645986328125,0.0021599032916128635,0.01093820296227932,-0.00783634465187788
1772702663493648000,5.47464794921875,-0.0017887655412778258,0.006914433557540178,-0.007306109648197889
1772702663503698000,5.484697998046875,-0.001624078955501318,0.0028448193334043026,-0.004919419996440411
1772702663513748000,5.494748046875,-0.005901915021240711,-0.000416753813624382,-0.003170788288116455
1772702663523797800,5.5047978515625,-0.003071240847930312,0.0056310188956558704,-0.004004624206572771
1772702663533847800,5.514847900390625,-0.0032688474748283625,0.012876680120825768,0.0008316765306517482
1772702663543897900,5.52489794921875,-0.00455833226442337,0.017079735174775124,-0.00007324910257011652
1772702663553948000,5.534947998046875,-0.003945805132389069,0.015885572880506516,0.0002870766038540751
1772702663563997700,5.544997802734375,-0.006900086533278227,0.010365826077759266,0.0005548601620830595
1772702663574047000,5.555046875,-0.008061757311224937,0.003547334112226963,0.0022472990676760674
1772702663584097000,5.565096923828125,-0.008146640844643116,0.009421609342098236,0.003836235962808132
1772702663594146800,5.575146728515625,-0.010659066960215569,0.009843720123171806,0.0045600831508636475
1772702663604196900,5.58519677734375,-0.00790162943303585,0.008763009682297707,0.007597418501973152
1772702663614247000,5.595246826171875,-0.008150102570652962,0.004588503856211901,0.0061707631684839725
1772702663624297000,5.605296875,-0.005216382443904877,0.012830957770347595,0.010255404748022556
1772702663634346800,5.6153466796875,-0.008748798631131649,0.016805192455649376,0.00904925912618637
1772702663644396800,5.625396728515625,-0.011191788129508495,0.011696310713887215,0.00986196007579565
1772702663654446800,5.63544677734375,-0.010363545268774033,0.010448353365063667,0.010836676694452763
1772702663664495600,5.64549560546875,-0.010706523433327675,0.01650470495223999,0.00886456947773695
1772702663674545700,5.655545654296875,-0.01052116695791483,0.015348892658948898,0.01433763187378645
1772702663684595700,5.665595703125,-0.010043272748589516,0.01220235601067543,0.015408032573759556
1772702663694645800,5.675645751953125,-0.011745031923055649,0.01081005483865738,0.011399175971746445
1772702663704696000,5.685696044921875,-0.014784587547183037,0.0096087995916605,0.014659740962088108
1772702663714745900,5.695745849609375,-0.011495583690702915,0.00870918296277523,0.012617629021406174
1772702663724796000,5.7057958984375,-0.012918688356876373,0.009873686358332634,0.011683335527777672
1772702663734846000,5.715845947265625,-0.01169496588408947,0.009020676836371422,0.015161423943936825
1772702663744896000,5.72589599609375,-0.0079743517562747,0.007598112802952528,0.015746843069791794
1772702663754945800,5.73594580078125,-0.01056187879294157,0.011374475434422493,0.01081999484449625
1772702663764994800,5.745994873046875,-0.008021880872547626,0.010803242214024067,0.016641855239868164
1772702663775044900,5.756044921875,-0.010078906081616879,0.012847752310335636,0.017666906118392944
1772702663785094700,5.7660947265625,-0.010714673437178135,0.010723207145929337,0.017185045406222343
1772702663795144700,5.776144775390625,-0.010031306184828281,0.010133050382137299,0.016544554382562637
1772702663805194800,5.78619482421875,-0.007806093897670507,0.008806277997791767,0.01613648235797882
1772702663815244800,5.796244873046875,-0.008561365306377411,0.011056116782128811,0.013531911186873913
1772702663825294800,5.806294921875,-0.008540728129446507,0.016699571162462234,0.013648724183440208
1772702663835345000,5.816344970703125,-0.008091719821095467,0.022896479815244675,0.01726902462542057
1772702663845395000,5.82639501953125,-0.00813380442559719,0.014623407274484634,0.016939235851168633
1772702663855443700,5.836443603515625,-0.008943671360611916,0.015895865857601166,0.010817427188158035
1772702663865493800,5.84649365234375,-0.009503431618213654,0.019077889621257782,0.008495279587805271
1772702663875544000,5.8565439453125,-0.013580996543169022,0.007981828413903713,0.008868388831615448
1772702663885594000,5.866593994140625,-0.01247301697731018,-0.0010452871210873127,0.008600802160799503
1772702663895644200,5.87664404296875,-0.011780861765146255,-0.004209388978779316,0.006114475429058075
1772702663905694000,5.88669384765625,-0.009962630458176136,-0.002802784088999033,0.007464007940143347
1772702663915744000,5.896743896484375,-0.004616068676114082,0.0008316319435834885,0.00909013394266367
1772702663925794000,5.9067939453125,0.00025918520987033844,0.009304329752922058,0.013839810155332088
1772702663935843000,5.916843017578125,0.0026746722869575024,0.009832700714468956,0.006492415443062782
1772702663945893000,5.92689306640625,0.0033359192311763763,0.007027583662420511,0.0066197640262544155
1772702663955943200,5.936943115234375,0.0018655880121514201,0.007333847228437662,0.006979823112487793
1772702663965993200,5.9469931640625,0.0034623974934220314,0.005843497812747955,0.0032047810964286327
1772702663976043000,5.95704296875,0.003074374981224537,0.004045064561069012,0.0053907036781311035
1772702663986093000,5.967093017578125,0.0025041394401341677,-0.00241241417825222,0.004526261240243912
1772702663996143000,5.97714306640625,-0.0002652817638590932,-0.006614349782466888,0.006898072548210621
1772702664006193200,5.987193115234375,0.0030510486103594303,-0.0076992809772491455,0.005675185471773148
1772702664016243000,5.997242919921875,0.002608431037515402,-0.008798633702099323,0.004099126905202866
1772702664026292000,6.0072919921875,0.00346198957413435,-0.011427650228142738,-0.0016343733295798302
1772702664036342300,6.01734228515625,0.005878275725990534,-0.007398020476102829,0.00006472331006079912
1772702664046392000,6.02739208984375,0.003939565271139145,-0.006447131745517254,-0.0006204125238582492
1772702664056442000,6.037442138671875,0.005259428173303604,-0.009198710322380066,0.003390041645616293
1772702664066492200,6.0474921875,0.006526098120957613,-0.007448339369148016,0.005165133625268936
1772702664076542200,6.057542236328125,0.009181003086268902,-0.005245639011263847,0.004016778897494078
1772702664086592000,6.067592041015625,0.010235900059342384,-0.004504186101257801,0.001318046124652028
1772702664096642000,6.07764208984375,0.008632143959403038,-0.0055305687710642815,0.0004882051725871861
1772702664106691000,6.087691162109375,0.008957212790846825,-0.012636110186576843,-0.0017344329971820116
1772702664116741000,6.0977412109375,0.0049512856639921665,-0.014004708267748356,-0.0036977152340114117
1772702664126791000,6.107791015625,0.004429910331964493,-0.011552862823009491,-0.0020525860600173473
1772702664136841000,6.117841064453125,0.006523155141621828,-0.004209462553262711,-0.00268508680164814
1772702664146891000,6.12789111328125,0.008087742142379284,-0.0031703226268291473,-0.004271644167602062
1772702664156941000,6.137941162109375,0.007705844473093748,0.005355255212634802,0.0005689173121936619
1772702664166991000,6.1479912109375,0.007981924340128899,0.009690447710454464,0.003116288688033819
1772702664177041200,6.158041259765625,0.0050202226266264915,0.004022974520921707,0.00018095236737281084
1772702664187091200,6.16809130859375,0.008405633270740509,0.0006817728281021118,-0.0035597234964370728
1772702664197140000,6.178139892578125,0.00648549385368824,-0.00016378099098801613,-0.002714436501264572
1772702664207190000,6.18818994140625,0.0058281212113797665,-0.0032655238173902035,-0.002930647926405072
1772702664217240000,6.198239990234375,0.002358022378757596,-0.012620942667126656,-0.0055474694818258286
1772702664227290000,6.2082900390625,0.0037175468169152737,-0.021207531914114952,-0.0047036269679665565
1772702664237340000,6.21833984375,0.0011382753727957606,-0.006526590790599585,-0.004796039313077927
1772702664247390000,6.228389892578125,0.005017541814595461,0.001295868307352066,-0.004328960087150335
1772702664257440000,6.23843994140625,0.0016640895046293736,-0.001865569967776537,-0.0010053347796201706
1772702664267490000,6.248489990234375,0.00287496205419302,0.0014562844298779964,-0.0032506478019058704
1772702664277539000,6.2585390625,0.0033354228362441063,0.001585447695106268,-0.0011345000239089131
1772702664287589000,6.268589111328125,0.0020527527667582035,0.0010824794881045818,0.0008908935124054551
1772702664297639200,6.27863916015625,0.00433135312050581,-0.004930405877530575,-0.0020138162653893232
1772702664307689200,6.288689208984375,0.0028797558043152094,-0.0051893675699830055,-0.007318093441426754
1772702664317739000,6.298739013671875,0.0033173132687807083,-0.007241066545248032,0.00014488250599242747
1772702664327789000,6.3087890625,0.0025474964641034603,-0.007875468581914902,-0.0011720858747139573
1772702664337839000,6.318839111328125,0.00032588758040219545,-0.0003054337576031685,0.004224011208862066
1772702664347889200,6.32888916015625,0.0007061156211420894,0.0019972622394561768,0.003725372487679124
1772702664357939000,6.33893896484375,0.0015705777332186699,0.0056497883051633835,0.0021647599060088396
1772702664367988200,6.34898828125,-0.003915444947779179,0.003767657559365034,0.0038123028352856636
1772702664378038300,6.359038330078125,-0.0036661734338849783,-0.000989813357591629,0.005506872199475765
1772702664388088000,6.369088134765625,-0.004209761042147875,-0.0000189049169421196,0.007130205165594816
1772702664398138000,6.37913818359375,-0.0013282205909490585,0.0004900246858596802,0.002627065870910883
1772702664408188200,6.389188232421875,-0.0016802193131297827,-0.0015263804234564304,-0.003515153657644987
1772702664418238200,6.39923828125,-0.0026765079237520695,0.0009927037172019482,-0.0006767566665075719
1772702664428288000,6.4092880859375,-0.00528796436265111,-0.0011878404766321182,0.0003471883828751743
1772702664438338000,6.419338134765625,-0.0028719445690512657,0.002854305785149336,0.003996251616626978
1772702664448388000,6.42938818359375,-0.0053887031972408295,0.008848143741488457,0.000105012470157817
1772702664458436900,6.439436767578125,-0.0026528381276875734,0.008552532643079758,-0.001029494102112949
1772702664468487000,6.44948681640625,-0.002475723158568144,0.009082026779651642,0.0006959880120120943
1772702664478537000,6.459536865234375,-0.004231545142829418,0.010010670870542526,0.000007827184163033962
1772702664488587300,6.469587158203125,-0.005559821613132954,0.001966522540897131,-0.001650732709094882
1772702664498637000,6.479636962890625,-0.003908395301550627,0.005366313736885786,-0.0011908046435564756
1772702664508687000,6.48968701171875,-0.002856282750144601,0.009515554644167423,0.00003055529668927193
1772702664518737200,6.499737060546875,-0.0016879541799426079,0.00985963549464941,-0.0004288399941287935
1772702664528787200,6.509787109375,-0.0015890325885266066,0.01086739543825388,0.004451120272278786
1772702664538836000,6.5198359375,-0.00519947987049818,0.01896260678768158,-0.00030688330298289657
1772702664548886000,6.529885986328125,-0.007100813090801239,0.013893870636820793,-0.0037450892850756645
1772702664558936000,6.53993603515625,-0.004599039442837238,0.0034303097054362297,-0.0010867216624319553
1772702664568986000,6.549986083984375,-0.005922768730670214,0.003447552677243948,-0.0025000586174428463
1772702664579036000,6.560035888671875,-0.00835423544049263,0.0103968046605587,-0.006011169869452715
1772702664589086000,6.5700859375,-0.00827841367572546,0.0075154295191168785,-0.003937284462153912
1772702664599136000,6.580135986328125,-0.004690337460488081,0.0035635652020573616,-0.0047213188372552395
1772702664609186000,6.59018603515625,-0.0037302677519619465,0.0027861883863806725,-0.0026054373010993004
1772702664619236000,6.600236083984375,-0.003417912172153592,0.007978756912052631,-0.0030757184140384197
1772702664629285000,6.61028515625,-0.0016555407783016562,0.007478930056095123,-0.0015161291230469942
1772702664639335200,6.620335205078125,-0.0005476657534018159,0.006666133180260658,-0.004690350964665413
1772702664649385000,6.630385009765625,0.001782318577170372,0.010648567229509354,-0.0038839648477733135
1772702664659435000,6.64043505859375,0.0022302621509879827,0.008993145078420639,-0.0022823396138846874
1772702664669485000,6.650485107421875,0.0010095022153109312,0.004081297665834427,-0.0004936263430863619
1772702664679535000,6.66053515625,0.001657715649344027,0.0015070866793394089,-0.0029163039289414883
1772702664689585000,6.6705849609375,-0.0007197059458121657,0.0026000188663601875,-0.006414215080440044
1772702664699635000,6.680635009765625,0.0013274659868329763,-0.004481326788663864,-0.006241908762603998
1772702664709685000,6.69068505859375,0.0016678543761372566,-0.010224909521639347,-0.008592451922595501
1772702664719734300,6.700734375,0.002725661965087056,-0.004823752678930759,-0.0054477909579873085
1772702664729784000,6.7107841796875,0.0007594313938170671,-0.0007613943889737129,-0.005086513701826334
1772702664739834000,6.720834228515625,0.0012699593789875507,0.006891465745866299,-0.005132053978741169
1772702664749884200,6.73088427734375,-0.0002309448318555951,0.010737180709838867,-0.0055637722834944725
1772702664759934200,6.740934326171875,0.006053316406905651,0.010043160989880562,-0.004687326028943062
1772702664769984000,6.75098388671875,0.007703965529799461,0.01218891330063343,-0.0012688818387687206
1772702664780034000,6.761033935546875,0.005788087844848633,-0.0017338255420327187,-0.004257747437804937
1772702664790084000,6.771083984375,0.0064658233895897865,-0.01248268410563469,-0.0051721371710300446
1772702664800134100,6.781134033203125,0.004799749702215195,0.011754743754863739,-0.007939161732792854
1772702664810183200,6.79118310546875,0.00561313284561038,0.009787021204829216,-0.009779327549040318
1772702664820233200,6.801233154296875,0.007422484457492828,0.011732194572687149,-0.009647234342992306
1772702664830283300,6.811283203125,0.0018490919610485435,0.0036624474450945854,-0.008501812815666199
1772702664840333000,6.8213330078125,0.0025566937401890755,-0.016877714544534683,-0.006066352128982544
1772702664850383000,6.831383056640625,0.003814646042883396,-0.012937819585204124,-0.007296807132661343
1772702664860433200,6.84143310546875,0.00346976681612432,0.014658922329545021,-0.013699579052627087
1772702664870483200,6.851483154296875,0.007547066546976566,0.02007259614765644,-0.012252683751285076
1772702664880534000,6.861533935546875,0.002865495625883341,0.019054468721151352,-0.0075362250208854675
1772702664890582800,6.871582763671875,0.004384296014904976,-0.005392285063862801,0.006257351022213697
1772702664900632800,6.8816328125,0.008693823590874672,0.06030603125691414,0.15471208095550537
1772702664910683000,6.891682861328125,-0.011211151257157326,-0.0008111186325550079,0.18807236850261688
1772702664920732700,6.901732666015625,0.002640747930854559,-0.08015893399715424,0.10115636885166168
1772702664930782700,6.91178271484375,0.005751579999923706,-0.015827851369976997,0.04679344221949577
1772702664940832800,6.921832763671875,0.000540306675247848,0.05683756247162819,0.03545716404914856
1772702664950882800,6.9318828125,0.0009831192437559366,0.01010054536163807,0.0013997659552842379
1772702664960932600,6.9419326171875,0.0037903571501374245,-0.03250284120440483,-0.038407303392887115
1772702664970983000,6.95198291015625,0.004261665977537632,-0.025537218898534775,-0.050583366304636
1772702664981032000,6.962031982421875,0.004737839102745056,-0.002134157344698906,-0.07133125513792038
1772702664991081700,6.972081787109375,0.0059373266994953156,-0.01961088553071022,-0.08970227837562561
1772702665001131800,6.9821318359375,0.008862809278070927,0.003925865516066551,-0.09475162625312805
1772702665011181800,6.992181884765625,0.0022959704510867596,0.041613560169935226,-0.0762326568365097
1772702665021231900,7.00223193359375,0.0030874619260430336,0.031672246754169464,-0.01789265125989914
