time,seconds_elapsed,z,y,x
1772702569799497200,0.067497314453125,-0.37881110104918475,-0.014035411750990897,-0.031322194547322574
1772702569809547000,0.077547119140625,-1.2201385913163423,0.06973037443337962,-0.17940061813239008
1772702569819597000,0.08759716796875,0.6587789660304785,-0.16977756119724363,0.1763484822864644
1772702569829646000,0.09764599609375,0.501957003724575,-0.1718616557286121,0.13065150166568346
1772702569839696000,0.10769580078125,-0.6559621550440788,-0.023145158002292734,-0.09662638200232758
1772702569849745200,0.1177451171875,0.17469897978007792,-0.10009692592341453,0.05550974230859428
1772702569859795200,0.127795166015625,0.1990817258864641,-0.07508783721276559,0.06597834212321323
1772702569869845000,0.137844970703125,-0.26075463046729563,-0.028971169875189662,-0.001104555716906907
1772702569879894000,0.14789404296875,0.15329904887676238,-0.09065340853994712,0.07642322770210448
1772702569889944000,0.157944091796875,-0.019390344646573066,-0.06946473663398064,0.038034935260028574
1772702569899994000,0.167994140625,-0.0539531239837408,-0.0680055873342324,0.04259374934185762
1772702569910043000,0.17804296875,0.08640636382102966,-0.07600156365735455,0.058767460896330885
1772702569920093200,0.18809326171875,-0.059042556077241896,-0.0528662055298686,0.0212631756140152
1772702569930142000,0.198141845703125,0.030592706662416456,-0.06897647819300182,0.04937833601464517
1772702569940192000,0.20819189453125,-0.007416413736343383,-0.06613691651867702,0.040532373532373454
1772702569950242000,0.218241943359375,-0.015348375779390334,-0.06831357557117007,0.03214873589880299
1772702569960291000,0.228291015625,0.03747252930402756,-0.08242534049400128,0.04164038044004701
1772702569970340900,0.2383408203125,-0.009216156634688376,-0.0897513816663064,0.017927676799043547
1772702569980390100,0.24839013671875,0.004699555993080139,-0.07474864098681136,0.04308400337710045
1772702569990440200,0.258440185546875,0.007094342175126075,-0.05622585468869656,0.06932573002208955
1772702570000490000,0.268489990234375,0.0023047698110342024,-0.061348933323472736,0.04858694360835943
1772702570010539000,0.2785390625,-0.004281038320064544,-0.06614146482963115,0.061080423146975225
1772702570020589000,0.288589111328125,-0.005030395382642746,-0.06099777266508899,0.04363558197841048
1772702570030638800,0.298638916015625,0.01262801090478897,-0.06302510464107618,0.06336286696176975
1772702570040688000,0.308688232421875,0.006490531063079834,-0.07330999561897479,0.03301940408637747
1772702570050738200,0.31873828125,0.013375029879808426,-0.0820494929189328,0.03609712646470871
1772702570060787000,0.328786865234375,0.008583703950047492,-0.04858167834477499,0.00707081802317698
1772702570070837000,0.3388369140625,0.019501403805613517,-0.058210370436264196,-0.003687156088632764
1772702570080887000,0.348886962890625,0.011713818669319151,-0.0947620037693996,0.03853242732023354
1772702570090936000,0.35893603515625,0.0010831190615892409,-0.10544806855986825,0.06933788625076413
1772702570100986000,0.368986083984375,-0.001463058289885521,-0.09431633322797715,0.0845798425136134
1772702570111036200,0.3790361328125,0.004820552024245262,-0.08550988077218644,0.0548621103211306
1772702570121085000,0.3890849609375,-0.005061375042796135,-0.07787461838708258,0.029631515213754026
1772702570131135000,0.399135009765625,0.001969254246354103,-0.06014427937460132,0.0322273084271932
1772702570141184000,0.40918408203125,0.011693360403180121,-0.04230652533173561,0.04478803994916379
1772702570151234000,0.419234130859375,0.004357610687613487,-0.06489668893292545,0.047964117268589325
1772702570161284000,0.4292841796875,0.0019587328523397443,-0.07257784541952424,0.05266973767627496
1772702570171333000,0.4393330078125,0.0046446109354496,-0.08813383606760762,0.05403511231192387
1772702570181383200,0.449383056640625,-0.005684475377202034,-0.08060438127769157,0.014194366314011858
1772702570191433000,0.459432861328125,0.006433832439780235,-0.055398317823372775,0.02916184502552496
1772702570201482000,0.46948193359375,0.0025379940450191494,-0.06184037923538126,0.04338019614496734
1772702570211532000,0.479531982421875,-0.005845218896865845,-0.05404957009553909,0.054329272952908646
1772702570221581000,0.4895810546875,-0.008988193097710609,-0.05593411433366127,0.06168433472372126
1772702570231631000,0.499631103515625,0.019131985971331596,-0.07280474037742242,0.035606801647518296
1772702570241681200,0.50968115234375,-0.0009305588483810425,-0.07291405510394834,0.028835736610007004
1772702570251730000,0.51972998046875,0.011470073041319846,-0.08516942417090759,0.0332651179091772
1772702570261780000,0.529780029296875,0.012193711140751838,-0.07128154026498086,0.04118537124812137
1772702570271830000,0.539830078125,0.0017056348741054533,-0.06184300045073032,0.04253225581243168
1772702570281879000,0.549879150390625,0.005431377398967743,-0.05318464209558442,0.04746796321552246
1772702570291929000,0.55992919921875,-0.0022129998743534085,-0.03202220974257216,0.051295618045167066
1772702570301978000,0.56997802734375,-0.015243161839246748,-0.06210318575687706,0.02428925228678854
1772702570312028000,0.58002783203125,-0.004486205503344535,-0.07477176613407209,0.023054568525834474
1772702570322078000,0.590077880859375,0.002976385462284088,-0.06736975538241677,0.04540455071257893
1772702570332127000,0.600126953125,0.011332125875353812,-0.05529394413344562,0.029117971634468994
1772702570342177000,0.610177001953125,0.004131400716304779,-0.06583413417981937,0.0435273038649233
1772702570352227000,0.62022705078125,-0.010249006813764571,-0.04172065173517912,0.04343272091664839
1772702570362276000,0.630276123046875,0.002008417212963104,-0.02663466235217638,0.03138456029300578
1772702570372326100,0.640326171875,0.00739303286075592,-0.023781556209689005,0.025219480058318002
1772702570382376000,0.6503759765625,-0.0030950434058904645,-0.03632458311161026,0.021706772929360157
1772702570392425000,0.660425048828125,0.014396774142980575,-0.043328634921088814,0.030328018711088225
1772702570402475000,0.67047509765625,0.003759644794464111,-0.06757844796334393,0.04099384899770375
1772702570412524000,0.68052392578125,0.005693243205547332,-0.058150228613708166,0.03741778060921933
1772702570422574000,0.690573974609375,-0.001356090784072876,-0.0355114035652019,0.024373085512185935
1772702570432624000,0.7006240234375,0.0005804302364587784,-0.05063606272446922,0.021673688077088443
1772702570442673000,0.7106728515625,-0.00017068039178848266,-0.03818848642050288,0.023780939721758477
1772702570452723000,0.720722900390625,-0.00017535656690597534,-0.04077360754287802,0.014508922430698293
1772702570462772200,0.730772216796875,0.0029606033712625502,-0.04658912542122416,0.029444171381532214
1772702570472822000,0.740822021484375,0.003398410266637802,-0.06010261392365209,0.027986752814566716
1772702570482872000,0.7508720703125,-0.01082943705022335,-0.06545086135012097,0.019733707874279933
1772702570492921000,0.760921142578125,-0.0071019409596920005,-0.04541452868389897,0.017192153040639823
1772702570502971000,0.770970947265625,-0.0035176527321338653,-0.03778717561061494,0.01227841886569513
1772702570513021000,0.78102099609375,0.0055991351813077924,-0.036335524630732835,0.013682927926845148
1772702570523070200,0.7910703125,-0.012663666740059852,-0.04291518614883534,0.024149590371060185
1772702570533120000,0.8011201171875,-0.0012976385951042175,-0.055843029383569956,0.017940198353899175
1772702570543170000,0.811170166015625,0.011261983248591423,-0.03814879373093136,0.03738231200361624
1772702570553219000,0.821218994140625,0.0078045362710952755,-0.05513017753963358,0.03710725563861197
1772702570563269000,0.83126904296875,-0.0017886369824409484,-0.0557532139419578,0.017535629291133954
1772702570573318000,0.84131787109375,0.001644260075688362,-0.03378715532217175,0.015005199781351257
1772702570583368000,0.851367919921875,-0.008838555493950843,-0.025359792711306364,0.019631569523923097
1772702570593418200,0.861418212890625,0.007313537883758545,-0.04815850276295095,0.018258754792268152
1772702570603467000,0.871467041015625,0.010595628294348717,-0.0343786001429893,0.026342584070423617
1772702570613517000,0.88151708984375,-0.009466916525363921,-0.037721864422596986,0.02914733929284848
1772702570623567000,0.891567138671875,-0.0031926585614681243,-0.03664983301060274,0.011865159606398083
1772702570633616000,0.901615966796875,-0.012632687079906463,-0.024944745637010782,0.023760855914955026
1772702570643666000,0.911666015625,0.011446692165732382,-0.03678259254479781,0.012368130417674546
1772702570653715200,0.921715087890625,0.003960135802626609,-0.03413735699933022,0.015512504274450474
1772702570663765000,0.931764892578125,0.006499883413314819,-0.036727428291458634,0.027544061964808495
1772702570673815000,0.94181494140625,0.002900397616624832,-0.023517434513941407,0.021830476940842343
1772702570683864000,0.951864013671875,0.005887304472923278,-0.035011472952738404,0.015172274860390461
1772702570693913900,0.961913818359375,0.005429623833298683,-0.04169138910807669,0.025675060072401536
1772702570703964000,0.9719638671875,0.010061375287175179,-0.03408739864407107,0.014899501784017775
1772702570714013200,0.98201318359375,0.0016746552139520643,-0.03220198675626889,0.020364582806476392
1772702570724063000,0.99206298828125,0.0010685060143470764,-0.028465010451339184,0.02716302447468042
1772702570734112000,1.002112060546875,0.009440613040328026,-0.0235329243440181,0.015152792700141434
1772702570744162000,1.012162109375,0.00030628947019577024,-0.03213836520183831,0.01581038325097179
1772702570754212000,1.022212158203125,0.00015080664753913878,-0.025700605505611745,0.012382778855890501
1772702570764261000,1.03226123046875,0.004037292692065239,-0.0321686142096296,0.024217088949587195
1772702570774311200,1.042311279296875,-0.008090951997041702,-0.03566473096339032,0.013694999673840356
1772702570784361200,1.052361328125,0.00043254619836807247,-0.03232959519131109,0.007705650465394137
1772702570794410200,1.06241015625,0.002367313653230667,-0.015727511290088297,0.01900775794510846
1772702570804460000,1.0724599609375,-0.006170797589421272,-0.019409487738460303,0.004704317791521316
1772702570814509000,1.082509033203125,-0.0016840075641870497,-0.025414372442755847,0.010250788920541527
1772702570824559000,1.09255908203125,0.001900280663371086,-0.0323668219291605,0.011408622894377912
1772702570834609200,1.102609130859375,0.00743570295870304,-0.04502047873185947,0.034047084899991746
1772702570844658200,1.112658203125,0.024188684839010238,-0.05261971995551139,-0.0005326090393587946
1772702570854708200,1.122708251953125,0.0020335516542196275,-0.03387068715346977,0.0023759170847944913
1772702570864758300,1.13275830078125,0.0020271219134330746,-0.01703753444273025,0.02204846022321144
1772702570874807000,1.14280712890625,0.006216390296816826,-0.02526811410617083,0.01143146263055969
1772702570884857000,1.152857177734375,0.0029220249265432354,-0.01987942507145926,-0.0006420333637390286
1772702570894906000,1.162906005859375,-0.0006727846950292587,-0.027153672124445437,0.023044980996870433
1772702570904956200,1.1729560546875,0.007255670216679572,-0.02808728144643828,0.03539961832037661
1772702570915006200,1.183006103515625,0.0050052609413862225,-0.03258048294615,0.021056540276145095
1772702570925055200,1.19305517578125,0.011429156509041785,-0.03870526770306751,0.019977802845439874
1772702570935105000,1.20310498046875,-0.003239420312643051,-0.032308515870664266,-0.0005758408263092861
1772702570945155000,1.213155029296875,0.004537058907747268,-0.02559942841976881,0.011806495071586686
1772702570955204400,1.223204345703125,-0.0001052139401435852,-0.03185227826945484,0.00385494469536934
1772702570965254100,1.233254150390625,0.00393266327381134,-0.020770620023831725,0.0200314098959323
1772702570975304200,1.24330419921875,0.00033610008656978605,-0.02528409712659195,-0.0009664452958037144
1772702570985353200,1.253353271484375,-0.01717500668466091,-0.03110032739099115,-0.00016676455178530887
1772702570995403000,1.263403076171875,0.014393267011642456,-0.02392307443907484,0.00047746533561730754
1772702571005452000,1.2734521484375,0.007504676541686057,-0.023474234693031757,0.0034585292563075196
1772702571015502300,1.28350244140625,-0.006865209594368934,-0.016330409086681902,0.018817131885478736
1772702571025552400,1.293552490234375,-0.004326046505570411,-0.02324667301485315,0.01212000430043554
1772702571035601200,1.30360107421875,-0.007024199548363685,-0.032849856205750254,0.01341530480798101
1772702571045651200,1.313651123046875,0.0031488194197416305,-0.032132319053541865,0.0030649222622625527
1772702571055701200,1.323701171875,0.011970423778891563,-0.00033288521617650985,0.028319304670603014
1772702571065750000,1.33375,0.009570376899838447,-0.013022818908654152,0.02602677100334549
1772702571075800000,1.343800048828125,0.0035790275305509567,-0.02703366247396916,0.016896338157041463
1772702571085849000,1.35384912109375,-0.006152092888951301,-0.026467388627026227,0.02141510792284971
1772702571095899100,1.363899169921875,0.005516717594861984,-0.016135197041835636,0.023190474431763867
1772702571105949200,1.37394921875,-0.0027168577432632444,-0.02758676631208509,0.013453789637866429
1772702571115998200,1.383998291015625,-0.00047872342765331263,-0.025446484614070505,0.015458850416541098
1772702571126048000,1.394048095703125,0.002957096239924431,-0.017776479709148404,0.010687080853909719
1772702571136097300,1.40409716796875,0.00923953751027584,-0.018865498788561672,0.0019488713287399149
1772702571146147300,1.414147216796875,0.004595511096715927,-0.01529805209795013,-0.004704586077935528
1772702571156197000,1.424197021484375,0.0018985270977020263,-0.025889570472761986,0.0059137129892362274
1772702571166246100,1.43424609375,0.010721300500631331,-0.014949969312641769,0.009868741075193975
1772702571176296200,1.444296142578125,-0.010081249031424521,-0.0326395379233174,0.010665430711105
1772702571186346000,1.454345947265625,0.0035310967355966566,-0.014137630016449838,0.017699811443476935
1772702571196395300,1.464395263671875,-0.007698153287172317,-0.01993658035248518,0.021408995559182947
1772702571206445300,1.4744453125,0.0036731355547904966,-0.028083555119391528,0.006250568844343069
1772702571216495000,1.4844951171875,-0.0009673837274312972,-0.024698022600635885,0.014039825347915756
1772702571226544000,1.494544189453125,-0.003514145600795746,0.0009274353095330297,0.01234354510733392
1772702571236594200,1.50459423828125,0.007555529946088791,-0.01429594411700964,0.015144131044717504
1772702571246643000,1.514642822265625,0.0011176058530807495,-0.02024349087718874,0.01729003191605443
1772702571256693200,1.524693359375,0.0008119009047746658,-0.028585732487868516,0.018240633472043553
1772702571266743300,1.534743408203125,-0.00008943184912204742,-0.0259024664869532,0.003874864105391316
1772702571276792000,1.5447919921875,0.0029021511822938917,-0.020751951855979858,0.013030177947913762
1772702571286842000,1.554842041015625,0.013371522748470305,-0.013438066912349313,0.015156451670173555
1772702571296892200,1.56489208984375,0.017259177836775778,-0.008353639787528663,0.009983490028663071
1772702571306941200,1.574941162109375,-0.007281389179825782,-0.013001977050025015,0.005116644327412359
1772702571316991000,1.584990966796875,-0.002944236758351326,-0.025451306919660417,0.023694199869933073
1772702571327040300,1.595040283203125,0.00244037888944149,-0.026825170822441576,-0.007071502438944299
1772702571337090300,1.60509033203125,0.00004325461983680725,-0.014584880593605338,0.017602942923281805
1772702571347140000,1.61514013671875,-0.011333294919133185,-0.00418899438874796,0.025813945669995154
1772702571357189000,1.625189208984375,0.0024316110610961912,-0.011121369201503693,-0.0004038224273826927
1772702571367239200,1.6352392578125,0.012307108387351036,-0.004522847719304264,-0.0009950252196053043
1772702571377289000,1.6452890625,0.0070686232119798655,-0.024081991327833382,0.015864832834969273
1772702571387338200,1.655338134765625,0.0051198272317647935,-0.008163962434325366,0.02885867224431131
1772702571397388300,1.66538818359375,0.0009235445857048034,-0.017283472027815876,0.020258101641142275
1772702571407437000,1.67543701171875,0.015734160226583478,-0.012610237786080688,0.017234520602843258
1772702571417487000,1.685487060546875,0.004657470417022705,-0.020494433430954813,0.02451071758432081
1772702571427537200,1.695537109375,0.0034603695869445798,-0.01934845999991521,0.006125853335997089
1772702571437586200,1.705586181640625,0.004806523498892784,-0.015276205592323094,0.0019747227226267565
1772702571447636200,1.71563623046875,0.016474749460816382,-0.004146488687582313,0.007977536484133452
1772702571457686300,1.725686279296875,0.004648702588677406,-0.008858502303436398,0.00990897262088256
1772702571467735000,1.735735107421875,0.024698387926816938,-0.005214446712657809,-0.0022177970637683756
1772702571477785000,1.74578515625,0.001952303111553192,-0.026104985055420547,-0.0012441753917955792
1772702571487834000,1.755834228515625,0.008235328903794288,-0.013178429595474153,0.026451770932786164
1772702571497884200,1.76588427734375,-0.0035901334464550016,-0.01089957967698574,-0.005147605721256695
1772702571507934200,1.775934326171875,0.0038917467415332794,-0.007901439040619879,0.005250198446051217
1772702571517983200,1.785983154296875,0.02408873159587383,-0.004104896301869302,-0.0024028484742040744
1772702571528033300,1.796033203125,0.014657470905780791,-0.02304342379402369,-0.0005335725871613249
1772702571538083000,1.8060830078125,0.015852818170189856,-0.021596001464687285,-0.005723352932732086
1772702571548132000,1.816132080078125,-0.0031529110729694365,-0.009411240815371275,0.0012467509413720108
1772702571558182100,1.82618212890625,-0.01542611719071865,0.003762932730093598,-0.0021744967781589363
1772702571568231200,1.836231201171875,0.014501403561234473,-0.016293492876086384,0.024701915607752742
1772702571578281200,1.84628125,0.016596914535760877,-0.011953198649454861,0.01372428170889616
1772702571588331300,1.856331298828125,0.008662029883265495,-0.013365421801246702,0.002822484958649147
1772702571598380000,1.866380126953125,0.014497311908006667,-0.023971297494973984,-0.008663530003896448
1772702571608430000,1.87643017578125,0.0010270049601793288,-0.029958025488071142,0.006499556903040502
1772702571618480000,1.886480224609375,0.0034159459233283995,0.004005765042640269,0.022684751116042023
1772702571628529200,1.896529052734375,0.01583528251349926,-0.01422527176728472,0.02333057473890949
1772702571638579200,1.9065791015625,-0.00421498734652996,-0.01694653169102967,0.017565668236371127
1772702571648628200,1.916628173828125,0.006408697998523712,-0.02892891990235075,0.016004127141227946
1772702571658678000,1.926677978515625,0.005061959564685821,-0.00710362146012485,0.006570605995389633
1772702571668728000,1.93672802734375,0.01568506038784981,-0.017681677565164863,0.0038626804772531613
1772702571678777300,1.94677734375,0.0023626374781131744,-0.020132523049693554,-0.019644629934895783
1772702571688827100,1.9568271484375,0.009389759635925293,-0.004402965932991355,0.0013110734654124825
1772702571698877200,1.966877197265625,0.007888707423210144,-0.016453724939096716,-0.006493992528645322
1772702571708926200,1.97692626953125,0.016109423279762267,-0.026071155851054933,0.00846936598853208
1772702571718976300,1.986976318359375,0.002944236758351326,-0.07884809392858297,0.05301537734274752
1772702571729025000,1.99702490234375,0.0038426469027996062,-0.017405089113488793,0.012133512235980014
1772702571739075000,2.007074951171875,-0.025488076999783515,0.108107743622642,-0.06909377529658377
1772702571749125000,2.017125,0.008331775015592575,0.052191228877753015,-0.031504161234817
1772702571759174100,2.027174072265625,0.015817746856808663,-0.048398595129139715,0.020448331550194414
1772702571769224200,2.03722412109375,0.008190320718288421,-0.061221763279847796,0.07004892973010428
1772702571779274200,2.047274169921875,0.018066987088322637,-0.05692139920480549,0.04695340128950774
1772702571789323000,2.057322998046875,0.007889876466989517,-0.02838862074688077,0.011415486460004468
1772702571799373000,2.067373046875,0.008785364001989364,-0.02587223574547097,-0.021082170191034675
1772702571809422300,2.07742236328125,0.0007031798332929611,0.01614427539743483,-0.021103797500953078
1772702571819472100,2.08747216796875,0.010430793121457099,0.05316250332901254,0.008060878802475054
1772702571829522200,2.097522216796875,0.007735562688112259,0.025588541699573395,0.025263759874750394
1772702571839571200,2.1075712890625,-0.0013923311412334441,-0.032462226861342786,0.0236485409471672
1772702571849621000,2.11762109375,0.008784779480099678,-0.058305090381857,0.033485736106627154
1772702571859671000,2.127671142578125,-0.0064782561033964155,-0.0348170098265633,0.003557706181309186
1772702571869720300,2.13772021484375,0.012976385951042174,0.0044462570854462685,-0.004991963068395853
1772702571879770000,2.14777001953125,0.007288403442502022,0.025652272851858286,-0.016816066861909347
1772702571889819100,2.157819091796875,0.01073182189464569,0.008473466774914413,0.01718002535307314
1772702571899869200,2.167869140625,0.0008592471778392792,0.005280698615591973,0.01278301880341023
1772702571909919200,2.177919189453125,-0.013506547304987907,-0.027136392196081577,0.030332487106940243
1772702571919968300,2.18796826171875,-0.005128010538220405,-0.027839042306412008,0.016241470427904275
1772702571930018300,2.198018310546875,0.007888707423210144,-0.015442301140539348,0.002504258455487434
1772702571940068400,2.208068359375,0.0020510873109102247,-0.02179936028337106,0.00503216949790949
1772702571950117000,2.2181171875,0.01552022521495819,0.000542765107192099,0.010491005725960713
1772702571960167200,2.228167236328125,0.005045592951774597,0.019696761980932204,0.002516095023753587
1772702571970216200,2.23821630859375,-0.0009387421548366546,0.011097349005099386,0.000915329313208349
1772702571980266000,2.248265869140625,0.0113327103972435,-0.015019691814295947,0.007925502619508187
1772702571990316000,2.25831591796875,0.006693944680690765,-0.031169812430627643,0.021343421792972366
1772702572000365300,2.268365234375,-0.009915829336643218,-0.015466777994669972,0.010836232117190956
1772702572010415000,2.2784150390625,-0.011711480581760405,-0.02173570219632238,-0.011057838978618383
1772702572020465200,2.288465087890625,-0.0037830256700515743,-0.009801811035536229,-0.0015727566089015453
1772702572030514200,2.29851416015625,0.010729483807086944,-0.008633662305306643,0.0032648812641738914
1772702572040564000,2.30856396484375,0.0044482115805149075,-0.004639039711188525,0.013987280026637017
1772702572050614000,2.318614013671875,0.0013064064234495163,-0.00724971539992839,0.014927282556798309
1772702572060663300,2.328663330078125,0.007738485297560691,-0.025838443073723464,0.01413431239806814
1772702572070713000,2.338713134765625,-0.005883212819695473,-0.002139861572906375,0.0075566213580546895
1772702572080762000,2.34876220703125,-0.0013958382725715636,-0.026905432984419164,0.0008707640856970101
1772702572090812200,2.358812255859375,0.01790215191543102,-0.018812800486944614,-0.004128948464314453
1772702572100862200,2.3688623046875,0.0005436053574085235,-0.0021643384270370004,0.006058599069353659
1772702572110911200,2.3789111328125,0.009822305834293365,-0.0061420646852813655,0.006078621227364056
1772702572120961300,2.388961181640625,0.008325929796695709,-0.0030308190632611512,0.019731477101286872
1772702572131011300,2.39901123046875,-0.00693944387435913,-0.009666001027729361,0.019591643938911146
1772702572141060000,2.40906005859375,0.0054775546282529826,-0.004881762425880879,0.021236789930588564
1772702572151110100,2.419110107421875,-0.004248889616131782,-0.005464530749898403,0.008527379786083474
1772702572161159000,2.429158935546875,0.0015823007553815841,-0.00911370090721175,-0.0009023648003581911
1772702572171209200,2.439209228515625,0.01040332059264183,0.002940181637741625,-0.0005208501029061153
1772702572181259300,2.44925927734375,-0.005910100826621055,-0.0006096563309431075,-0.003614302056620363
1772702572191308300,2.459308349609375,0.005163666373491287,-0.00861190713122487,0.00397919897941174
1772702572201358000,2.469358154296875,0.00860650030374527,-0.015607282443903386,0.010357437907590064
1772702572211408100,2.479408203125,-0.008453940090537071,-0.02167021747836843,0.011304415884520858
1772702572221457200,2.48945703125,0.003064648267626762,-0.03617693653553724,0.004923749820527155
1772702572231507000,2.4995068359375,0.015784429109096526,-0.01913949342435226,-0.0053421807285747485
1772702572241556200,2.50955615234375,0.008154080361127853,0.008054455911554396,-0.009673108905239496
1772702572251606300,2.519606201171875,0.015188801303505896,-0.0032462153796106574,0.012735964791290461
1772702572261656000,2.529656005859375,0.0026180735439062116,-0.01578072104835883,-0.0037735888381372202
1772702572271705000,2.539705078125,0.004113280537724495,-0.007508183673024177,0.005969742608966771
1772702572281755100,2.549755126953125,0.0032131168276071545,-0.023561912976484745,0.009864169931353535
1772702572291805200,2.55980517578125,0.010393383720517157,-0.014316110122203827,-0.017138800576829816
1772702572301854200,2.569854248046875,0.0029079964011907576,0.0027741591547615825,0.00875319703174755
1772702572311904300,2.579904296875,0.0003618190497159958,-0.008177095910534261,0.003108265930355992
1772702572321953000,2.589953125,-0.006670563805103302,-0.00222246182244271,0.0006192210270208307
1772702572332003000,2.600003173828125,-0.0054740474969148635,0.005281429267954081,0.0015505721765570342
1772702572342053000,2.61005322265625,0.0055956280499696726,-0.0014225984153337775,-0.0031725290888920425
1772702572352102100,2.62010205078125,-0.0029372224956750867,-0.0120510147344321,0.003677174692379776
1772702572362152200,2.630152099609375,0.00020107553005218505,-0.014981697891466318,0.005331732399796601
1772702572372202200,2.6402021484375,0.016356676039099693,-0.010179777502454817,-0.00032235468900762495
1772702572382251300,2.650251220703125,0.008425298517942428,-0.006556929096486419,0.015836928764602635
1772702572392301000,2.660301025390625,-0.00040273558199405667,0.006258220144547522,-0.00016533064652467146
1772702572402350000,2.67035009765625,0.0066308163166046135,-0.024454441369418052,-0.008286189158062916
1772702572412400000,2.680400146484375,0.018155834415555,0.0011350136456079781,-0.006317558249505236
1772702572422450200,2.6904501953125,0.013222469666600227,-0.01854771980997175,-0.0009155827582464553
1772702572432499200,2.700499267578125,0.021599837389588355,-0.016966441967897115,0.0044760677018202836
1772702572442549200,2.71054931640625,0.006782207486033439,-0.007674041759222746,0.007537259070458821
1772702572452599000,2.72059912109375,-0.005937573355436325,-0.013003566218912601,0.0017237071036244741
1772702572462648000,2.73064794921875,-0.0008510638713836669,-0.01881707480326295,0.003107140269060619
1772702572472698000,2.740697998046875,0.0006529109507799148,-0.011416571022104471,-0.002303507152420934
1772702572482747100,2.7507470703125,0.010378186151385306,-0.003703530693054199,-0.007958338593319058
1772702572492797200,2.760797119140625,0.00184825821518898,-0.013410740514006465,-0.020394480187818406
1772702572502847200,2.77084716796875,0.007227613165974617,-0.013288374509662389,-0.008139560928719583
1772702572512896000,2.78089599609375,0.006472995406389236,0.008266107634548098,0.01496976542507764
1772702572522946000,2.790946044921875,-0.0120820674598217,0.0030277503233402964,-0.007426672552165109
1772702572532996000,2.80099609375,0.008866028022766113,-0.0003615267887711525,-0.0013757270663045345
1772702572543045000,2.811045166015625,0.0034790742874145505,-0.009332878349535167,0.006997517037414945
1772702572553095200,2.82109521484375,0.004226677784323692,-0.017675887145195156,0.0066657551992451766
1772702572563144200,2.831144287109375,0.022032968109846115,-0.007596391679439693,0.011281514499546027
1772702572573194200,2.8411943359375,0.0015314473509788513,-0.013330259156320244,0.011679251962725538
1772702572583244000,2.851244140625,-0.011638415345549583,0.004180171761475503,0.00410079551548697
1772702572593293300,2.861293212890625,0.012304185777902602,0.0005213387266732753,0.00016918712102342395
1772702572603343400,2.87134326171875,0.003778349494934082,0.0030390389023348687,0.006619680717948358
1772702572613393200,2.88139306640625,-0.004901800566911697,0.0014332111408933996,0.00860277625998715
1772702572623442200,2.891442138671875,-0.0002659574598073959,-0.007866185064148157,0.016707318390964065
1772702572633492200,2.9014921875,0.008708207112550735,-0.014380827655177562,0.0006587310535018332
1772702572643541000,2.911541015625,-0.004611293187737464,-0.014454185152333229,0.005967696782352868
1772702572653591000,2.921591064453125,0.0004769698619842529,-0.012432378734834491,-0.00026206216940190643
1772702572663641000,2.93164111328125,-0.006256137785315513,-0.0076671918933279804,0.0002609753240132704
1772702572673690000,2.941690185546875,0.008556231421232224,-0.011753346962109208,0.004687331265746615
1772702572683740200,2.951740234375,0.011551321583986281,0.0024799619811587035,-0.007510181550576817
1772702572693790200,2.961790283203125,-0.00850011731982231,-0.013847378365602344,0.01321653768273536
1772702572703839000,2.9718388671875,0.0031698622077703472,-0.014687683380953966,0.00867539168833755
1772702572713889000,2.981888916015625,0.00331657720208168,-0.022772717093862593,-0.015432756994059308
1772702572723939000,2.99193896484375,-0.0067132339030504225,0.001818648528214544,-0.009183306961145717
1772702572733988000,3.001988037109375,0.005853986725211143,-0.0019564495637081564,0.013038128358928952
1772702572744038100,3.0120380859375,-0.0032750761479139324,0.002891702853515744,0.0015344156261999158
1772702572754087200,3.022087158203125,0.004054828348755837,-0.000282342339027673,0.006261243218695744
1772702572764137200,3.03213720703125,0.01108779572546482,-0.006235295926686376,-0.00009825219310587272
1772702572774187000,3.04218701171875,0.011980945172905922,-0.01034256684873253,-0.008263548067992087
1772702572784236300,3.052236328125,0.007940729871392249,-0.00784466735208407,0.005934251170477364
1772702572794286000,3.0622861328125,-0.0043324762463569635,-0.002152684521861374,0.009406710770726204
1772702572804336000,3.072336181640625,0.0003074585139751434,-0.006232172387838363,0.009707403900485951
1772702572814385200,3.08238525390625,0.005545943689346313,-0.0028706235328689214,0.0051786059310077685
1772702572824435000,3.09243505859375,-0.0023848493099212645,-0.013485741978976874,0.007957233481621369
1772702572834484200,3.102484130859375,-0.0007417582780122757,-0.008835943411756307,0.0033704993464052676
1772702572844534300,3.1125341796875,0.006285948401689529,-0.014255045851040631,0.010299506308429409
1772702572854584000,3.122583984375,0.012419921112060545,-0.025094237110298127,0.010038944259658455
1772702572864633000,3.132633056640625,0.00912672478556633,-0.017856851468980313,0.00692555462961318
1772702572874683100,3.14268310546875,-0.0059866731941699974,-0.00306044701654464,0.002096908347168937
1772702572884733000,3.15273291015625,-0.0076326868355274195,0.007885730014834553,0.0001847043505636975
1772702572894782000,3.162781982421875,0.007476619490981102,0.004500087898224592,0.008479978714091703
1772702572904832000,3.17283203125,0.013460370075702666,0.0002430515082553029,0.0023034455036278815
1772702572914881000,3.182881103515625,0.0040343700826168056,0.002879774953704327,-0.012325696640100796
1772702572924931000,3.19293115234375,0.010913608202338217,-0.009476597669161856,-0.015832099609146826
1772702572934981000,3.202981201171875,0.006122282272577285,-0.019653763089422134,-0.005647314854722935
1772702572945030000,3.21302978515625,0.005520224726200103,-0.00825478252293542,-0.0020797517163911833
1772702572955080000,3.223079833984375,0.005075403568148612,-0.005628708335664123,0.0037214088430395347
1772702572965130000,3.2331298828125,0.0023848493099212645,-0.01116529967477545,-0.0029855049170786512
1772702572975179000,3.243178955078125,0.009272270736098289,-0.00719394835839048,0.0034067305704113095
1772702572985229000,3.25322900390625,0.011817279043793677,-0.0154838387273252,0.009309054515953175
1772702572995278000,3.263278076171875,0.002837269252538681,-0.007146364623308182,-0.005501225481496658
1772702573005328100,3.273328125,0.004781973579525947,0.0003535444117151201,0.00362355622544419
1772702573015378000,3.2833779296875,-0.009137830701470374,-0.01829708778345957,0.014489729106461163
1772702573025427200,3.29342724609375,0.00402852486371994,-0.015358056923188269,-0.007983162507321685
1772702573035477200,3.303477294921875,0.0007376666247844696,-0.006443824110832065,-0.008745589114027097
1772702573045527000,3.313527099609375,-0.009586158990859985,-0.007295399438869208,0.01101684709781548
1772702573055576000,3.323576171875,-0.000011105915904045104,-0.002255816102772951,-0.0010503995354985817
1772702573065626000,3.333626220703125,-0.0015104045629501341,0.001480173821467906,0.007614096299489028
1772702573075675100,3.343675048828125,0.007617489266395569,-0.011684482976980506,0.011479683403170201
1772702573085725200,3.35372509765625,-0.0028548049092292785,-0.0067375463603995735,0.005380023954354692
1772702573095775200,3.363775146484375,0.01390460671186447,0.0010139810818247496,0.008674220361269544
1772702573105824000,3.373823974609375,0.005222703084349632,-0.002420998335536569,-0.009232509547867812
1772702573115874000,3.3838740234375,0.015548866787552833,-0.016148494914826006,0.0013465260879951528
1772702573125924000,3.393924072265625,-0.0006125789403915405,-0.006709726771712303,0.006194363411387894
1772702573135972900,3.403972900390625,0.01494680924117565,-0.005639138398133218,0.011151563410367816
1772702573146023000,3.41402294921875,0.01898234836757183,-0.021276925578154623,0.01661386567056179
1772702573156072200,3.424072265625,-0.0039151276171207425,-0.00838905816078186,-0.011652574018354062
1772702573166122000,3.4341220703125,0.008054711639881133,-0.007584756040573119,0.010744487296685111
1772702573176172000,3.444172119140625,0.0177811558842659,-0.0026279738834127783,0.00785166791502852
1772702573186221000,3.454220947265625,0.002516366735100746,-0.018217848534788934,0.0043144588157651015
1772702573196271000,3.46427099609375,0.00011807342171669006,-0.01066931458506733,0.00421374980409164
1772702573206321000,3.47432080078125,-0.0072176762938499445,0.004322247113287448,-0.0030902530663413927
1772702573216370200,3.4843701171875,0.01014145478606224,0.01878077964717522,0.0008816941883764229
1772702573226420200,3.494420166015625,-0.0016840075641870497,0.009109316993039102,-0.0146907795203384
1772702573236469000,3.504468994140625,-0.007073299387097358,-0.00571185657447204,0.009446006168075836
1772702573246519000,3.51451904296875,-0.0013864859223365782,-0.005313486640341579,0.009258810749615076
1772702573256569000,3.524569091796875,-0.010662263789772987,0.0028101437835954127,-0.004805363588267937
1772702573266618000,3.5346181640625,0.00639525399506092,-0.013297197136934846,0.0014429311005980706
1772702573276668200,3.544668212890625,0.009836334359645843,-0.0020690430927090345,-0.007918323960050475
1772702573286718200,3.55471826171875,-0.000187047004699707,-0.012067052553780376,-0.007940693338774145
1772702573296767000,3.56476708984375,-0.0042220016092062,0.0033599596860818563,-0.010671243963961023
1772702573306817000,3.574817138671875,0.0014665654212236404,0.016106701599713415,-0.007202535806933883
1772702573316866000,3.584865966796875,0.011637830823659896,-0.009097663087863474,0.019436062934843356
1772702573326916000,3.594916015625,-0.0028758476972579957,-0.0034719138942658897,0.011070417615689802
1772702573336966100,3.604966064453125,0.00640226825773716,-0.009043594813067466,-0.0010884048747713676
1772702573347015200,3.61501513671875,-0.008264554998278618,0.0030822752558626234,-0.004467372938711196
1772702573357065000,3.62506494140625,0.009992401704192161,-0.01749647545767948,-0.0018908346983022056
1772702573367115000,3.635114990234375,0.0016150339812040328,-0.006551266540680081,-0.026981473345716947
1772702573377164000,3.6451640625,-0.0030190555602312087,-0.010247362845949829,0.004117595953238197
1772702573387214000,3.655214111328125,0.009705985978245735,-0.010851356621086597,0.009218946813396177
1772702573397263000,3.66526318359375,0.011949380990862846,0.002676343069784343,0.01110415548851015
1772702573407313200,3.675313232421875,0.002821487161517143,-0.0005043693255633115,0.020727411069767547
1772702573417363200,3.68536328125,0.011648936739563942,-0.003868895588908344,-0.007150095516932196
1772702573427412000,3.695411865234375,0.0052127662122249604,-0.013065141946729272,0.0006108025418361648
1772702573437462000,3.7054619140625,0.014043138399720191,-0.005994436375517398,-0.00034003419288201257
1772702573447512000,3.715511962890625,0.0008797054439783096,-0.011296323909610509,0.0033942432648851532
1772702573457561000,3.72556103515625,0.00132803373336792,0.005477609427180141,0.003990953349287156
1772702573467611100,3.735611083984375,-0.01273907006382942,-0.0022610585334710775,-0.0063935186957009135
1772702573477660200,3.74566015625,-0.006900280907750129,-0.008848839425947516,0.006620498135278467
1772702573487710000,3.7557099609375,0.001631400594115257,0.0028300905930809675,0.0018021220850991085
1772702573497760000,3.765760009765625,-0.007046995902061462,-0.0033442506602965293,0.005774297668680083
1772702573507809300,3.775809326171875,-0.0048012628018856045,0.001413940184842795,-0.0026761375738075
1772702573517859000,3.785859130859375,0.015848141995072364,-0.0057619610602036115,0.0036796292276587337
1772702573527909000,3.7959091796875,0.008513561323285103,0.002409910685941577,-0.006004608426371123
1772702573537958100,3.805958251953125,-0.0018085107266902923,0.00331212022267282,-0.0027641400842461734
1772702573548008000,3.816008056640625,-0.004651625198125839,0.0029952362932264805,-0.0041281013642321335
1772702573558057000,3.826056884765625,-0.0028530513435602186,0.0000014795710332691668,-0.006944035567797254
1772702573568107000,3.83610693359375,-0.00016015899777412413,-0.002845817885175347,0.00837062745494768
1772702573578157300,3.8461572265625,0.009719429981708527,-0.018306220937985927,-0.0017136788999545388
1772702573588206000,3.8562060546875,0.004485620981454849,-0.00038364728903397913,-0.010727374048391356
1772702573598256000,3.866256103515625,0.0026905542582273483,-0.009689126174990088,0.00906696198892314
1772702573608306200,3.87630615234375,0.012116554251313208,-0.011880316076334566,0.004020442021964118
1772702573618355000,3.88635498046875,0.006429156264662742,-0.026464392952341584,-0.0036497638123575596
1772702573628405000,3.896405029296875,0.009721768069267273,0.0015008878159336746,-0.0032816748520592227
1772702573638455000,3.906455078125,-0.0029962592065334317,-0.000049830491095781326,-0.006569194923015311
1772702573648504000,3.916504150390625,0.01151741931438446,-0.008673501125350595,-0.007809685086959507
1772702573658554000,3.92655419921875,0.010769231295585631,-0.008230835391767322,-0.0047459821008262225
1772702573668603100,3.93660302734375,0.005383446604013443,0.0023234014462679624,0.0032118770018802023
1772702573678653000,3.94665283203125,0.010767477729916573,-0.004721329433470964,0.003994558662036434
1772702573688703000,3.956702880859375,0.0059773208439350125,-0.00882604307224974,-0.0028347530684666705
1772702573698752300,3.966752197265625,-0.012733224844932556,-0.0007276749537326395,-0.005237192834005691
1772702573708802000,3.976802001953125,-0.004804769933223724,0.007754815377853811,0.008391960220632608
1772702573718852000,3.98685205078125,-0.0009130231916904449,-0.006661704645212739,-0.007703142272832337
1772702573728901000,3.996901123046875,0.00028349311649799344,0.0076248871215619145,0.003427791624749079
1772702573738951000,4.006950927734375,-0.006602174744009971,0.007728767621144652,0.0009937465779716148
1772702573749000200,4.017000244140625,-0.012734978410601614,0.0014534319450147449,0.0002804837420815602
1772702573759050200,4.02705029296875,0.004774374794960022,-0.0003089563513174653,-0.007294700752547942
1772702573769100300,4.037100341796875,0.00552080924808979,-0.0033466618130914864,0.009314011535572353
1772702573779149000,4.047149169921875,0.006866963160037994,-0.015005827685724943,-0.015652153632091357
1772702573789199000,4.05719921875,0.016595160970091817,-0.009265822729002685,-0.005179105971218087
1772702573799249200,4.067249267578125,0.0007312368839979171,-0.0058333640622906385,0.0035636176155763675
1772702573809298200,4.077298095703125,0.001626139897108078,-0.00013955460116267204,0.0007242157714557833
1772702573819348200,4.08734814453125,0.017487725895643232,-0.018698033267166465,-0.000030607484106440096
1772702573829397200,4.097397216796875,-0.0010667524486780166,0.005207615113072097,-0.00032727974258596075
1772702573839447300,4.107447265625,0.004468669846653938,0.0009370251217857003,-0.0017690806153113953
1772702573849497000,4.1174970703125,-0.004507248291373253,-0.005029646463971585,0.009847988264821469
1772702573859546000,4.127546142578125,-0.010046762239933013,-0.0165120127312839,0.006016369646112434
1772702573869596200,4.13759619140625,0.0053664954692125314,-0.008040135125257074,-0.01317017550707096
1772702573879646200,4.147646240234375,0.001025251394510269,0.004011865989863872,-0.01912916154329432
1772702573889695200,4.1576953125,0.004614800319075584,0.014103453752212225,-0.010965244774741586
1772702573899745300,4.167745361328125,0.0023690672188997268,-0.008151084686443209,-0.006000537322741002
1772702573909794000,4.1777939453125,-0.006458966881036758,-0.011274313007201999,0.014778727231849916
1772702573919844000,4.187843994140625,-0.01603518899977207,-0.020138057741336524,-0.005675052245019469
1772702573929894100,4.19789404296875,-0.0052589434415102,-0.01127526285527274,0.0012158785957843065
1772702573939943400,4.207943359375,0.004019172513484955,-0.01460318343527615,0.014250840033381245
1772702573949993200,4.2179931640625,-0.004509586378931999,-0.0077437459945678706,0.010567258433101233
1772702573960043300,4.228043212890625,0.008357493978738785,0.015435067682154475,-0.000011436992755625396
1772702573970092300,4.23809228515625,0.014494389298558234,0.0038193573587574064,0.001601658476400189
1772702573980142000,4.24814208984375,0.00611468348801136,0.005889478163700551,-0.0015847004917333833
1772702573990191000,4.258191162109375,0.006412789651751518,-0.00019665508326143026,0.012732459943240973
1772702574000241200,4.2682412109375,0.008354571369290352,-0.00648976387809962,-0.010397708269185386
1772702574010291200,4.278291259765625,-0.0015203414350748062,0.006174505650158971,0.011151510894729289
1772702574020340200,4.28834033203125,0.001623217287659645,-0.004833374973200261,-0.009498647387477103
1772702574030390300,4.298390380859375,0.0020715455770492553,-0.0038903037031181153,-0.003894459288427606
1772702574040440000,4.308440185546875,-0.00032090251743793486,-0.005001023157685995,0.020735735940118318
1772702574050489000,4.318489013671875,-0.004809446108341216,-0.01581044033318758,-0.002117868936806917
1772702574060539100,4.3285390625,-0.000018120178580284118,-0.0038204716036096213,0.000637322939292062
1772702574070588200,4.338588134765625,-0.0028606501281261444,-0.009856737826857715,-0.003297066500724759
1772702574080638200,4.34863818359375,0.0046212300598621366,-0.00312856208300218,0.012796097480691968
1772702574090688300,4.358688232421875,-0.0004664484679698944,-0.0032790582032874225,-0.011561363487388007
1772702574100737000,4.368737060546875,0.00132628016769886,0.0021115305275656283,-0.005351695192302577
1772702574110787000,4.378787109375,0.0037228199154138563,0.0002009111332707107,-0.001501460921380203
1772702574120837000,4.388837158203125,-0.005407412001490593,0.009008797494322061,-0.00301605303568067
1772702574130886400,4.398886474609375,0.00042553193569183347,0.0036075412389822304,-0.0020413787676487115
1772702574140936200,4.408936279296875,0.007159808626770973,-0.0027094050891697404,-0.00028747517187148333
1772702574150985200,4.418985107421875,0.011498714613914489,-0.010034103687759489,-0.0042089663144084626
1772702574161035300,4.42903515625,0.008207271853089332,-0.018146299402229487,-0.008479869116237387
1772702574171085000,4.4390849609375,0.003866612300276756,-0.013309545161854475,0.004198189192067366
1772702574181134300,4.44913427734375,0.006412789651751518,0.0028831907534971834,-0.0033489451017230747
1772702574191184400,4.459184326171875,0.007310030752420425,0.00019411606630310416,-0.0010720154289738275
1772702574201234200,4.469234130859375,0.0010258359163999556,-0.004468377585709095,0.0069697636640979905
1772702574211283200,4.479283203125,-0.00436053329706192,0.0014874620787799356,-0.005405220044404268
1772702574221333200,4.489333251953125,-0.0040630116552114485,0.00023143413569778204,-0.009487233227607793
1772702574231382000,4.499382080078125,0.023168694141507146,0.010526490314584224,-0.007095157309167552
1772702574241432000,4.50943212890625,0.0025181203007698058,-0.003941084042284638,-0.004538972303620539
1772702574251482400,4.519482421875,-0.013347557350993156,-0.01150081523945555,-0.009629616823385003
1772702574261531100,4.52953125,-0.003472644546627998,-0.005883395482785999,0.011708267994655762
1772702574271581200,4.539581298828125,0.007449731484055519,0.016329057379812002,0.016154465714597607
1772702574281631200,4.54963134765625,-0.0025777415335178373,-0.0004970445356331766,-0.005116968554398044
1772702574291680000,4.559679931640625,-0.0031751229047775266,-0.005336100330948829,-0.004234564263257198
1772702574301730000,4.56972998046875,0.004459317496418953,-0.008803100588079541,0.008157477894611655
1772702574311779300,4.579779296875,0.007903904992341995,-0.005651924814470112,-0.001887832173751667
1772702574321829000,4.5898291015625,-0.010052022936940193,-0.004773424946889281,-0.010436823286733123
1772702574331879200,4.599879150390625,0.0056575873702764505,0.0017904818796552716,-0.002985683013591915
1772702574341928200,4.60992822265625,0.007902151426672934,-0.012885675460286438,0.008863479872653261
1772702574351978200,4.619978271484375,0.005511456897854805,-0.012772698338795452,-0.0031698485080385577
1772702574362028000,4.630028076171875,0.012542670708894728,-0.01057951740976423,0.0005755417154985479
1772702574372077300,4.640077392578125,0.0026654198169708252,-0.009621157239004969,0.003195138212922029
1772702574382127400,4.65012744140625,0.00999590883553028,-0.007570563118439167,0.001438444438437
1772702574392176000,4.660176025390625,-0.002723287484049797,0.009769662331603467,-0.002199729400826618
1772702574402226200,4.67022607421875,0.0013175123393535614,0.00827882098564878,0.009105885210225824
1772702574412276200,4.680276123046875,-0.00750935271680355,-0.01458036881526932,0.013478300741326528
1772702574422325200,4.6903251953125,-0.003321837899088859,0.003616564795654267,-0.005424137090716976
1772702574432375300,4.700375244140625,0.009396189376711845,0.003985599037446081,0.00017676992256892844
1772702574442425300,4.71042529296875,0.005503273591399192,0.010122512623574585,0.010208377975854091
1772702574452474000,4.72047412109375,-0.007666004583239555,0.012403919825330376,0.0009454093576408922
1772702574462524200,4.730524169921875,0.0017611644536256789,-0.005081431450136006,0.0031668391336221245
1772702574472573200,4.7405732421875,0.010590367597341537,-0.0076570540918037295,0.004424629775527864
1772702574482623000,4.750623046875,0.008795885396003723,-0.008169350995495915,-0.0029789975444786247
1772702574492673300,4.76067333984375,0.0028109657675027848,0.004335179660096764,0.011842007059673778
1772702574502722300,4.770722412109375,0.009097498691082,-0.0025036716503091154,-0.008714917697838973
1772702574512772000,4.780772216796875,0.0061047466158866874,-0.006223203630093484,0.0007741672768490389
1772702574522822100,4.790822265625,-0.0007768295913934707,-0.0009528254791162907,-0.006761776619357988
1772702574532871200,4.80087109375,0.004763268879055977,-0.0037998489406891166,0.0041331862480146805
1772702574542921200,4.810921142578125,-0.0012239888370037077,-0.006246949831862002,0.008645827667135744
1772702574552970200,4.82097021484375,-0.015886135917901993,-0.021199512960389254,0.0037121820736792867
1772702574563020300,4.831020263671875,0.006408113476634025,-0.0055497248153202235,-0.0075919141504331485
1772702574573070300,4.8410703125,-0.0015232640445232391,-0.012097648621443658,-0.010158056577702518
1772702574583119000,4.851119140625,-0.0018237082958221435,-0.002772679583728313,0.000594100285496097
1772702574593169200,4.861169189453125,-0.0027250410497188567,0.007256674863677472,-0.004595280484564136
1772702574603219200,4.87121923828125,0.0101432083517313,-0.003463730587810278,0.0018570237602456472
1772702574613268200,4.881268310546875,0.01403320152759552,0.0013387743230909108,0.009929357821785379
1772702574623318300,4.891318359375,0.007001987716555595,-0.0107018468814902,0.011611376641574316
1772702574633367300,4.9013671875,-0.001228080490231514,0.0003822042506188154,0.0031326948354253544
1772702574643417000,4.9114169921875,-0.0019756839871406555,0.005289155916683375,-0.010964715051779057
1772702574653467100,4.921467041015625,0.00999766240119934,0.00110856403009966,-0.0123346745310002
1772702574663516200,4.93151611328125,0.0010229133069515229,-0.006708466396387666,0.0011494440297596157
1772702574673566200,4.941566162109375,0.014040215790271758,-0.0005008804605342447,0.011660919438302516
1772702574683616300,4.9516162109375,0.011347323444485663,-0.009349391092918812,0.001970341091742739
1772702574693665300,4.961665283203125,0.002217091527581215,-0.010595116837695241,-0.009142248864972499
1772702574703715000,4.971715087890625,0.0074538231372833245,-0.011630524300038815,0.00394402035146486
1772702574713764000,4.98176416015625,0.011346738922595977,-0.0012485935552977025,-0.015126186679361853
1772702574723814100,4.991814208984375,0.004466331759095192,-0.01322025944320485,0.001344167450838722
1772702574733864200,5.0018642578125,-0.007201894202828407,0.0033573293375782666,-0.003927130865457002
1772702574743913200,5.011913330078125,0.019583821392059324,-0.0030867322352714833,0.014289509809645823
1772702574753963300,5.02196337890625,0.007166238367557525,-0.0009572276595979928,0.004670839071960654
1772702574764013300,5.032013427734375,0.0014759177714586257,-0.0007580883583053947,-0.001457484782335814
1772702574774062000,5.04206201171875,0.00790975021123886,0.0004967340083792805,-0.00037374238295014944
1772702574784112000,5.052112060546875,0.006560089167952537,0.0011051116976886987,0.002725796818255912
1772702574794162400,5.062162353515625,-0.0033159926801919937,-0.014145174002088605,0.0072608509985846465
1772702574804211700,5.072211669921875,0.010150807136297225,0.000996080098953098,-0.0022660155530902556
1772702574814261500,5.082261474609375,0.005962707796692848,0.0012400997215881943,-0.001682537126308307
1772702574824310500,5.092310546875,0.0022205986589193343,-0.01606616865992546,0.005555163608840666
1772702574834360600,5.102360595703125,-0.009002221623063087,0.00861859260033816,-0.008133711143245454
1772702574844410400,5.112410400390625,-0.0009217910200357436,0.0033710108030587434,-0.010308169105497655
1772702574854459600,5.122459716796875,0.0052127662122249604,-0.018002397419512272,0.010077136828599032
1772702574864509700,5.132509765625,-0.0006236848562955855,-0.017692619084287434,0.008436121306056156
1772702574874559700,5.142559814453125,0.007904489514231682,-0.02003151036063209,0.001880651231005322
1772702574884608500,5.1526083984375,0.0019195698857307434,-0.01812666311999783,-0.00976893167924136
1772702574894658600,5.162658447265625,0.00820785637497902,0.002323237049486488,0.007954420470027252
1772702574904707300,5.172707275390625,-0.002266191366314888,-0.012243833892792462,0.00482272114844527
1772702574914757400,5.18275732421875,0.0020744681864976883,-0.006169866007659584,-0.001309968353714794
1772702574924807400,5.192807373046875,0.0017775310665369033,0.00032974341101944446,-0.00227006154054543
1772702574934856400,5.2028564453125,0.012099603116512299,0.0036427586828358467,0.0038371418939088468
1772702574944906500,5.212906494140625,0.00012625672817230223,0.003022818419896066,0.009521925515076145
1772702574954955500,5.22295556640625,0.0014706570744514465,-0.02020164276314899,0.0037734290079330093
1772702574965005600,5.233005615234375,0.0028162264645099637,-0.015907087374385447,-0.002546599759871606
1772702574975055400,5.243055419921875,0.0022176760494709014,-0.007509498847275972,0.0029505751675926147
1772702574985104600,5.253104736328125,0.016133388677239416,-0.00011564400261268019,-0.0009166536206146701
1772702574995154700,5.26315478515625,0.006406944432854652,-0.00027688071262091396,-0.002043872118834406
1772702575005204500,5.27320458984375,0.009845686709880829,-0.015854096811823547,0.0006849637565901503
1772702575015253500,5.28325341796875,-0.005716624081134796,0.004649962964002043,-0.00034583146271761504
1772702575025303600,5.293303466796875,-0.0015261866539716719,-0.00016775778234004974,0.0006501139222062193
1772702575035353300,5.303353271484375,0.0080517890304327,-0.011133150970842689,0.012618443925422615
1772702575045402600,5.313402587890625,-0.004516600641608238,0.004967924605682492,-0.000739034314674791
1772702575055452700,5.32345263671875,0.0014694880306720733,0.006138137428835034,-0.016131936505669728
1772702575065501400,5.33350146484375,0.006105915659666061,-0.00454544314360246,-0.0005311340349027886
1772702575075551500,5.343551513671875,0.012992168042063712,0.002491780283115804,0.01139798048606608
1772702575085601500,5.3536015625,0.006406359910964965,-0.013125877424329519,0.0001651639664545655
1772702575095650600,5.363650634765625,0.003562660917639732,-0.012682334907911718,-0.01669181257786695
1772702575105700600,5.37370068359375,0.007454407659173011,-0.009885543796233832,-0.008130060164723545
1772702575115750700,5.383750732421875,-0.005865092641115188,-0.012489424418006092,0.003478446383040864
1772702575125799400,5.39379931640625,-0.01139934589266777,-0.008554770116508006,0.003552071024966426
1772702575135849500,5.403849365234375,-0.0001765256106853485,0.0005624013894237578,0.002587911301082931
1772702575145898500,5.4138984375,-0.0000263034850358963,0.0012920308382250367,-0.004134323325753211
1772702575155948500,5.423948486328125,0.009250643426179886,0.0081797079927288,0.005668474090471863
1772702575165998300,5.433998291015625,0.0017664251506328583,-0.0031748306438326834,-0.0066119700522394844
1772702575176047600,5.444047607421875,-0.004519523251056671,0.0039465091360732915,0.005989255593612324
1772702575186097700,5.45409765625,0.00026771102547645565,-0.012478154105320572,0.0012736960305133834
1772702575196147500,5.4641474609375,0.007001403194665908,-0.004969221513625234,0.0032915569252567364
1772702575206196500,5.474196533203125,0.0058043023645877835,-0.0015416216851212084,0.011311215518065727
1772702575216246500,5.48424658203125,0.015380524483323096,-0.006165354229323566,-0.0070737103790510444
1772702575226295600,5.494295654296875,0.007153963407874107,-0.019845139209367334,0.005105524711776524
1772702575236345600,5.504345703125,0.002963525980710983,0.004253858052194118,0.009510349241713992
1772702575246395600,5.514395751953125,0.00909925225675106,-0.01176295504067093,-0.004980763537657912
1772702575256444400,5.5244443359375,0.0023655600875616073,-0.012226499165501444,-0.005849493213184178
1772702575266494500,5.534494384765625,0.006253799697756767,-0.008317289832513779,-0.0029974990322603843
1772702575276544500,5.54454443359375,-0.0021264906346797944,0.0007021934526041149,0.006106121155642904
1772702575286593500,5.554593505859375,0.008047697377204895,-0.017626495045516638,0.003728194776852615
1772702575296643600,5.5646435546875,-0.006317512583732605,-0.009693181295599788,-0.00502187643275829
1772702575306692600,5.574692626953125,0.006849427503347397,-0.01396989050041884,-0.002155052292172331
1772702575316742400,5.584742431640625,0.0077472531259059904,-0.006044248600304126,-0.0138910919264541
1772702575326792400,5.59479248046875,0.017620412364602087,-0.005008658474870026,-0.014863859648478682
1772702575336841500,5.604841552734375,-0.00557224717438221,-0.003584690086357295,0.00958493058157619
1772702575346891500,5.6148916015625,0.006398176604509353,0.006767101248446852,0.02873289729004027
1772702575356941600,5.624941650390625,0.004603109881281852,0.0010236074266955256,-0.0026452903443947434
1772702575366990600,5.634990478515625,-0.009314356312155722,-0.010264679306931793,-0.018850066040700768
1772702575377040600,5.64504052734375,-0.007667758148908615,0.0012431319288909435,0.0013942194209317677
1772702575387090400,5.65509033203125,0.0081955814152956,0.006844605197757482,0.012143631771195214
1772702575397139500,5.665139404296875,0.019569208344817162,0.003221975987497717,0.005410275245434604
1772702575407189500,5.675189453125,0.012536825489997863,0.003750328976847231,0.0037093553623533805
1772702575417239600,5.685239501953125,0.0056552492827177045,0.003369896558206528,-0.000002495634474325925
1772702575427288600,5.69528857421875,0.0016150339812040328,0.0005200966176576912,-0.0014373005108325742
1772702575437338600,5.705338623046875,0.00445814845263958,-0.0069705331323668355,-0.007986507525166962
1772702575447388700,5.715388671875,0.006851181069016456,-0.008524667239189147,-0.005655838371184654
1772702575457437400,5.7254375,0.008345219019055366,-0.0063009450414218005,-0.0077829317940631875
1772702575467487500,5.735487548828125,-0.0012304185777902603,-0.009480232664663343,-0.015045417627308051
1772702575477536500,5.74553662109375,-0.0027238720059394833,-0.015759915722347796,0.002671929472859483
1772702575487586600,5.755586669921875,0.0031149171501398086,-0.012176833071187138,-0.0020024327134597116
1772702575497636600,5.76563671875,-0.0025689737051725384,-0.011072981748823076,0.010072985809866803
1772702575507685400,5.775685302734375,0.009555763852596282,-0.010874171241093427,0.0009799281151732428
1772702575517735400,5.7857353515625,0.017489479461312293,-0.005064388983789831,0.001492750175250694
1772702575527785500,5.795785400390625,-0.004207973083853721,-0.009089388449862599,-0.0011450258662574924
1772702575537834800,5.805834716796875,-0.006602759265899658,-0.008907839604187756,-0.0038023126091226
1772702575547884500,5.815884521484375,0.0031236849784851074,0.000690338618028909,-0.007215235458302777
1772702575557934600,5.8259345703125,0.017788170146942138,-0.008907766538951546,0.00018368600383400916
1772702575567983600,5.835983642578125,0.010156652355194092,-0.002622293061297387,0.0032117742538917806
1772702575578033400,5.846033447265625,-0.0045078328132629394,-0.008909921963419765,-0.005172998174128588
1772702575588082400,5.85608251953125,-0.009148352095484733,-0.008050693051889539,-0.0007718680051970295
1772702575598132700,5.8661328125,0.003422375664114952,-0.004505421660467982,0.00796328647978371
1772702575608182500,5.8761826171875,-0.0012158055305480956,0.009954773107543587,0.004385485075227916
1772702575618231600,5.8862314453125,0.0019277531921863555,-0.004319032242894172,0.002046383736329153
1772702575628281600,5.896281494140625,0.008214870637655258,-0.009966463545337319,0.0056564594256924465
1772702575638331400,5.906331298828125,-0.0015127426505088806,-0.00003552797110751271,-0.014393773901718667
1772702575648380400,5.91638037109375,0.005071311914920807,-0.011700612127874046,0.007423048973106779
1772702575658430500,5.926430419921875,0.009412555989623069,-0.012550689618568867,0.01590109830830479
1772702575668479500,5.9364794921875,-0.008541618373990058,-0.021381591529026626,-0.0023356604229309596
1772702575678529500,5.946529541015625,-0.01205459493100643,-0.018595431409217416,-0.009888441289507317
1772702575688579600,5.95657958984375,-0.25674597934782506,0.02785592037597671,-0.05067146283141337
1772702575698628400,5.96662841796875,-0.18040508246719836,0.021719554779119788,-0.054471407670225014
1772702575708678400,5.976678466796875,-0.14098551074862478,0.03453464922122657,-0.04861161682531237
1772702575718727700,5.986727783203125,-0.08812076652348041,0.02805222839936614,-0.05062499334118329
1772702575728777700,5.99677783203125,0.4428858060747385,-0.0507369749488309,0.08600587499504908
1772702575738827500,6.00682763671875,0.9718763626754283,-0.12969302276391534,0.21327265699272974
1772702575748876500,6.01687646484375,1.0008400068312884,-0.13985320051675662,0.26126208679908886
1772702575758926600,6.026926513671875,-1.0758487783253192,0.07002415148187428,-0.15652416666941715
1772702575768976400,6.036976318359375,-1.551809755527973,0.23779245521593836,-0.3156810929952189
