time,seconds_elapsed,z,y,x
1772702569780654800,0.04865478515625,0.006458431947976351,-0.29481831192970276,-0.19642943143844604
1772702569790704000,0.0587041015625,-0.0007155913626775146,-0.007154582068324089,-0.00905661191791296
1772702569800754200,0.068754150390625,-0.007012369576841593,0.1922549307346344,0.12037009000778198
1772702569810804200,0.07880419921875,-0.0004087952256668359,-0.06722164899110794,-0.048826128244400024
1772702569820853000,0.08885302734375,0.00030546457855962217,-0.05584675446152687,-0.042268361896276474
1772702569830903000,0.098903076171875,-0.0032144354190677404,0.07772035896778107,0.04717390239238739
1772702569840953000,0.108953125,-0.002516953507438302,-0.020968930795788765,-0.01967543363571167
1772702569851001900,0.119001953125,-0.000010918960470007733,-0.003230947069823742,-0.005496498197317123
1772702569861052200,0.12905224609375,0.0009302421822212636,0.025655828416347504,0.016645023599267006
1772702569871101200,0.13910107421875,-0.0026040389202535152,-0.013154418207705021,-0.013713149353861809
1772702569881151000,0.14915087890625,0.0010700580896809697,0.017367538064718246,0.0070576430298388
1772702569891201000,0.159200927734375,-0.001657551503740251,0.006268016062676907,-0.000895621080417186
1772702569901250000,0.16925,-0.0010727213229984045,0.0007470166892744601,-0.0038285604678094387
1772702569911299800,0.1792998046875,-0.00017417073831893504,0.015320898965001106,0.004978246986865997
1772702569921350000,0.189349853515625,-0.00018136126163881272,0.0028415927663445473,-0.0054794540628790855
1772702569931399200,0.199399169921875,0.0002436792419757694,0.011057178489863873,-0.00008175904804375023
1772702569941449000,0.209448974609375,-0.00467651104554534,0.007894674316048622,-0.0007624630234204233
1772702569951498000,0.219498046875,-0.002844256116077304,0.00452950457111001,-0.0011092065833508968
1772702569961548000,0.229548095703125,-0.0020149475894868374,0.009751963429152966,0.0009451558580622077
1772702569971598000,0.23959814453125,0.0004106594424229115,0.004043477587401867,-0.0023491743486374617
1772702569981647000,0.249647216796875,-0.0004569984448608011,0.007260842248797417,0.001050084363669157
1772702569991697200,0.259697265625,-0.00042051312630064785,0.007541539613157511,-0.0016785904299467802
1772702570001747200,0.269747314453125,0.0016229304019361734,0.007740477565675974,0.0026618295814841986
1772702570011796000,0.2797958984375,-0.0006444850005209446,0.007257113698869944,-0.0011052117915824056
1772702570021846000,0.289845947265625,-0.0000774979853304103,0.0060211410745978355,-0.0023089605383574963
1772702570031895000,0.29989501953125,-0.0012120045721530914,0.006899185013025999,0.0021646174136549234
1772702570041945000,0.309945068359375,-0.0026146916206926107,0.003692206460982561,0.0010279801208525896
1772702570051995100,0.3199951171875,-0.0025446503423154354,0.008371113799512386,-0.0016309198690578341
1772702570062044200,0.330044189453125,-0.0010000169277191162,0.007151652593165636,0.0009209210984408855
1772702570072094000,0.340093994140625,0.000723048229701817,0.003534547286108136,-0.0003837615076918155
1772702570082144000,0.35014404296875,0.0003225088003091514,0.009797503240406513,-0.0002998719282913953
1772702570092193000,0.360193115234375,-0.0010527475969865918,0.006344715133309364,-0.0015877765836194158
1772702570102243000,0.3702431640625,-0.0004527373821474612,0.009699499234557152,-0.0025600967928767204
1772702570112292000,0.3802919921875,0.00027297402266412973,0.004998753312975168,0.0008487494196742773
1772702570122342100,0.390342041015625,-0.0011864382540807128,0.005160939879715443,0.00013022858183830976
1772702570132392000,0.400391845703125,-0.0010215885704383254,0.009008674882352352,0.0015257250051945448
1772702570142441000,0.41044091796875,-0.0006657902849838138,0.0048437574878335,0.00038456046604551375
1772702570152491000,0.420490966796875,-0.0033571808598935604,0.009650230407714844,-0.0019859191961586475
1772702570162540800,0.430540771484375,-0.0004340952436905354,0.0062800003215670586,-0.000441818410763517
1772702570172590000,0.440590087890625,-0.00004713794987765141,0.0072869411669671535,-0.0006820355774834752
1772702570182640000,0.45064013671875,0.00041252365917898715,0.007375358138233423,-0.002201635157689452
1772702570192689000,0.46068896484375,0.0013904364313930273,0.0062789348885416985,-0.0014745922526344657
1772702570202739000,0.470739013671875,-0.002558498876169324,0.005811017472296953,0.0020594224333763123
1772702570212789000,0.4807890625,0.00015632755821570754,0.005572664551436901,-0.0012482235906645656
1772702570222838000,0.490838134765625,-0.0024458470288664103,0.00891093723475933,0.0025771409273147583
1772702570232888000,0.50088818359375,-0.0033364081755280495,0.008807872422039509,0.0002055960358120501
1772702570242938000,0.510938232421875,-0.0003616572648752481,0.0073135728016495705,-0.0014687333023175597
1772702570252987100,0.520987060546875,-0.0031337416730821133,0.0070552462711930275,0.0027089675422757864
1772702570263037000,0.531036865234375,-0.0016761935548856854,0.008915730752050877,-0.001222657272592187
1772702570273086000,0.5410859375,-0.0021856562234461308,0.010851316154003143,-0.0020325244404375553
1772702570283136300,0.55113623046875,-0.00033582461765035987,0.008111988194286823,-0.0015576828736811876
1772702570293186000,0.56118603515625,-0.0019321233266964555,0.007379619404673576,0.0005249090609140694
1772702570303235000,0.571235107421875,-0.003489273600280285,0.005586246494203806,0.0005281048361212015
1772702570313285000,0.58128515625,-0.004565723240375519,0.008728510700166225,-0.0013739247806370258
1772702570323335000,0.5913349609375,-0.001936650718562305,0.006194512825459242,0.0004426173691172153
1772702570333384000,0.601384033203125,-0.0017323862994089723,0.006253900937736034,0.0005246427026577294
1772702570343434000,0.61143408203125,-0.00210709311068058,0.007722634356468916,-0.0012479572324082255
1772702570353483000,0.62148291015625,-0.001412806916050613,0.008393751457333565,-0.0020096213556826115
1772702570363533000,0.631532958984375,-0.0014117417158558965,0.006788930390030146,0.0012279836228117347
1772702570373583000,0.6415830078125,-0.002183792181313038,0.006340986583381891,0.0004498079069890082
1772702570383632000,0.6516318359375,-0.0002008023438975215,0.008988700807094574,0.00020506340661086142
1772702570393682000,0.661681884765625,0.002282329136505723,0.006913033314049244,0.0015981629258021712
1772702570403732000,0.67173193359375,-0.0000351537273672875,0.006925816647708416,0.0009555422002449632
1772702570413781000,0.681781005859375,-0.0002687129599507898,0.005873868241906166,0.0031992553267627954
1772702570423831000,0.6918310546875,-0.0018405106384307146,0.008931176736950874,-0.00013901700731366873
1772702570433880000,0.701880126953125,-0.0036136433482170105,0.007020092569291592,-0.0013470269041135907
1772702570443930000,0.71193017578125,-0.0025723471771925688,0.008519984781742096,-0.0025598304346203804
1772702570453980000,0.72197998046875,-0.0008700547041371465,0.007815845310688019,-0.0011060107499361038
1772702570464029200,0.732029296875,-0.001871136948466301,0.008885104209184647,0.002584864152595401
1772702570474079200,0.742079345703125,-0.0007411577389575541,0.008405202999711037,-0.0013430321123450994
1772702570484129000,0.75212890625,-0.0006673881434835494,0.009425459429621696,-0.000371777277905494
1772702570494178000,0.762177978515625,0.0001651159836910665,0.008945824578404427,0.0010748518398031592
1772702570504228000,0.77222802734375,0.00017470336752012372,0.008080030791461468,-0.00042211104300804436
1772702570514276900,0.78227685546875,-0.0024839304387569427,0.007706922013312578,-0.0019156117923557758
1772702570524327000,0.792326904296875,0.0008404936525039375,0.0070975907146930695,-0.00031372037483379245
1772702570534377200,0.802377197265625,-0.0010410296963527799,0.007383880205452442,-0.0025121597573161125
1772702570544426000,0.812426025390625,-0.0012804478174075484,0.005563077051192522,0.00023462448734790087
1772702570554476000,0.82247607421875,-0.000003728425554072601,0.006795587949454784,0.0015981629258021712
1772702570564526000,0.832526123046875,-0.0023813985753804445,0.008096808567643166,0.0005044027348048985
1772702570574574800,0.842574951171875,-0.0014591459184885025,0.006720753386616707,0.0009472863748669624
1772702570584625000,0.852625,-0.001344896387308836,0.007873902097344398,0.00063356600003317
1772702570594674200,0.862674072265625,0.0011411645682528615,0.005114867351949215,0.002428004052489996
1772702570604724000,0.872723876953125,-0.0013129384024068713,0.0052022188901901245,0.0008767126128077507
1772702570614774000,0.88277392578125,0.0003880225704051554,0.008639028295874596,-0.002499643014743924
1772702570624823000,0.892822998046875,-0.0031941954512149096,0.007123689632862806,-0.0002913498319685459
1772702570634872800,0.902872802734375,-0.001999235013499856,0.00830746442079544,0.0009456885163672268
1772702570644923000,0.9129228515625,0.000007989483492565341,0.0041302964091300964,-0.002537992550060153
1772702570654972200,0.92297216796875,-0.002272475278005004,0.008987636305391788,-0.0015219965716823936
1772702570665022200,0.933022216796875,-0.00022184131375979632,0.007639543619006872,0.002609098795801401
1772702570675071000,0.943071044921875,0.0003890878288075328,0.00663526589050889,0.00004873584839515388
1772702570685121000,0.95312109375,0.00043809000635519624,0.00814847368746996,0.0023366576060652733
1772702570695171000,0.963171142578125,-0.001981125446036458,0.008775115944445133,-0.0011257182341068983
1772702570705220000,0.97322021484375,-0.002223206916823983,0.004719920456409454,0.00014434332842938602
1772702570715270100,0.983270263671875,-0.0018066884949803352,0.008569519966840744,0.000018908443962573074
1772702570725320200,0.9933203125,-0.00045060686534270644,0.00857617799192667,-0.0018943065078929067
1772702570735369000,1.003368896484375,-0.0006109291571192443,0.006304501090198755,0.0008977515972219408
1772702570745419000,1.0134189453125,-0.003093794221058488,0.006478938274085522,-0.0011092065833508968
1772702570755469000,1.023468994140625,0.001169127761386335,0.005583583377301693,0.001466602785512805
1772702570765517800,1.033517822265625,-0.0009542105835862458,0.007331416010856628,-0.001984054921194911
1772702570775568100,1.043568115234375,-0.0022327941842377186,0.006996923126280308,-0.001112935016863048
1772702570785617200,1.0536171875,-0.0012141350889578462,0.008570052683353424,0.0005829659639857709
1772702570795667200,1.063667236328125,-0.001537709147669375,0.006342051550745964,0.002109756227582693
1772702570805717200,1.07371728515625,-0.002062085550278425,0.009816678240895271,-0.0019108180422335863
1772702570815766000,1.08376611328125,-0.0038860845379531384,0.006878145970404148,-0.0010610034223645926
1772702570825816000,1.093816162109375,-0.0017558221006765962,0.007691741921007633,-0.0002620550512801856
1772702570835866000,1.1038662109375,-0.001957956003025174,0.005800630897283554,-0.0002759034978225827
1772702570845915100,1.1139150390625,-0.001029311795718968,0.006867493502795696,-0.00213638786226511
1772702570855965200,1.123965087890625,-0.002034122357144952,0.007994276471436024,0.0009219863568432629
1772702570866014200,1.13401416015625,0.000330231967382133,0.008955944329500198,-0.002968092914670706
1772702570876064000,1.14406396484375,-0.0002287655370309949,0.007877097465097904,-0.0013550163712352514
1772702570886114000,1.154114013671875,0.000841825210954994,0.007957259193062782,-0.0006165218073874712
1772702570896163300,1.164163330078125,-0.0026849990244954824,0.008496016263961792,-0.0021899172570556402
1772702570906213000,1.174213134765625,-0.0030024477746337652,0.007732221856713295,-0.0015515576815232635
1772702570916263200,1.18426318359375,-0.002429601736366749,0.008636631071567535,-0.0025473134592175484
1772702570926312200,1.194312255859375,0.00015579492901451886,0.0065497783944010735,0.0024533038958907127
1772702570936362200,1.2043623046875,-0.0021853898651897907,0.007820905186235905,-0.00213665422052145
1772702570946411000,1.214410888671875,-0.0023875238839536905,0.00484295841306448,0.0005834985640831292
1772702570956461300,1.22446142578125,-0.0005829659639857709,0.006855775602161884,-0.0027915253303945065
1772702570966511400,1.234511474609375,-0.0014346449170261621,0.006050169467926025,0.0004966795677319169
1772702570976560000,1.24456005859375,-0.00011238539445912465,0.007032343186438084,0.0023968450259417295
1772702570986610200,1.254610107421875,-0.004217115696519613,0.005816876422613859,0.0009888317435979843
1772702570996660200,1.26466015625,-0.0002663161139935255,0.006852313410490751,-0.0017816547770053148
1772702571006709000,1.274708984375,0.00242134602740407,0.009619603864848614,0.0010540791554376483
1772702571016759000,1.284759033203125,-0.002372077666223049,0.006668555550277233,0.0002681803307496011
1772702571026808300,1.294808349609375,-0.0014482269762083888,0.007613977417349815,-0.00040959418402053416
1772702571036858000,1.304858154296875,0.0009440905996598303,0.00666296249255538,-0.000782436749432236
1772702571046908200,1.314908203125,-0.003367833560332656,0.008741027675569057,-0.0036397422663867474
1772702571056957200,1.324957275390625,-0.0013278521364554763,0.006867759861052036,0.001799764228053391
1772702571067007000,1.335007080078125,-0.0021291973534971476,0.007424892857670784,0.0025859293527901173
1772702571077057000,1.34505712890625,0.00007829693640815094,0.005426457151770592,0.0025947177782654762
1772702571087106300,1.355106201171875,-0.0035595810040831566,0.006981743033975363,-0.0014215953415259719
1772702571097156000,1.365156005859375,-0.0014642059104517102,0.008226770907640457,-0.0015949672088027
1772702571107205000,1.375205078125,-0.0013512879377231002,0.006678941659629345,-0.000003462109361862531
1772702571117255200,1.385255126953125,-0.0023411849979311228,0.0076126460917294025,-0.0013944311067461967
1772702571127305200,1.39530517578125,0.00034700988908298314,0.005133775528520346,0.0020871192682534456
1772702571137354200,1.405354248046875,-0.0025102957151830196,0.007809986360371113,0.0008072041091509163
1772702571147404300,1.415404296875,0.0014769891276955605,0.006876814644783735,-0.0010093380697071552
1772702571157454300,1.425454345703125,-0.00008069378236541525,0.006337790749967098,-0.0016010924009606242
1772702571167503000,1.435503173828125,-0.0019377160351723433,0.004265052266418934,0.0008298410102725029
1772702571177553200,1.44555322265625,-0.003733485471457243,0.0065527078695595264,-0.0026322684716433287
1772702571187602000,1.455601806640625,-0.0015749934827908874,0.009674465283751488,0.00025832661776803434
1772702571197652200,1.46565234375,0.0004247741890139878,0.009828662499785423,-0.00012357067316770554
1772702571207702300,1.475702392578125,0.0017323862994089723,0.008826248347759247,-0.0025473134592175484
1772702571217751300,1.485751220703125,-0.003829892026260495,0.005787848029285669,-0.0027712853625416756
1772702571227801000,1.495801025390625,-0.0005896238726563752,0.006174272391945124,0.0006207828409969807
1772702571237851100,1.50585107421875,-0.0022085595410317183,0.007399593014270067,-0.0004396878939587623
1772702571247900200,1.515900146484375,-0.0008772452711127698,0.006983341183513403,0.0012516856659203768
1772702571257950000,1.525949951171875,-0.0010671286145225167,0.007321029901504517,0.000565389113035053
1772702571267999200,1.535999267578125,-0.004804875236004591,0.009152485989034176,0.0026008430868387222
1772702571278049300,1.54604931640625,-0.00364719913341105,0.0049646650440990925,-0.00040266994619742036
1772702571288099000,1.55609912109375,-0.000928377965465188,0.008379902690649033,-0.002609098795801401
1772702571298148000,1.566148193359375,-0.0024146882351487875,0.010032127611339092,-0.0030306773260235786
1772702571308198100,1.5761982421875,0.002258893335238099,0.008081628940999508,-0.0023875238839536905
1772702571318248200,1.586248291015625,-0.002360359765589237,0.005782255437225103,-0.0027411917690187693
1772702571328297200,1.596297119140625,-0.000770452490542084,0.007969776168465614,-0.0030897995457053185
1772702571338347300,1.60634716796875,0.00006604639202123508,0.008436361327767372,-0.0015182681381702423
1772702571348397300,1.616397216796875,-0.0008780442294664681,0.0051803807727992535,0.0006732470938004553
1772702571358446000,1.626446044921875,0.00028096348978579044,0.012109925970435143,-0.0005898901727050543
1772702571368496000,1.63649609375,-0.0012665993999689817,0.006747917737811804,-0.0016713999211788177
1772702571378545200,1.646545166015625,0.0014077469240874052,0.008749282918870449,0.0007874967413954437
1772702571388595200,1.65659521484375,-0.0018221348291262984,0.006141782272607088,0.0011760519118979573
1772702571398645200,1.666645263671875,-0.0024234766606241465,0.008212922140955925,0.0005099953268654644
1772702571408694300,1.6766943359375,0.0002311623829882592,0.006168413441628218,0.0019315907265990973
1772702571418744000,1.686744140625,0.00034940673504024744,0.0070949275977909565,-0.0008245146600529552
1772702571428793000,1.69679296875,-0.0026130937039852142,0.007966313511133194,-0.0031699605751782656
1772702571438843100,1.706843017578125,0.0003281014505773783,0.007505054119974375,-0.0013278521364554763
1772702571448893200,1.71689306640625,-0.00341577036306262,0.005185174755752087,0.0012069445801898837
1772702571458942200,1.726942138671875,-0.0006500775925815105,0.007622233126312494,-0.0014008227735757828
1772702571468992300,1.7369921875,0.00046152580762282014,0.007041664328426123,-0.0007089334540069103
1772702571479042000,1.7470419921875,-0.00028522455249913037,0.006572947837412357,-0.002058357233181596
1772702571489091000,1.757091064453125,0.0014887070283293724,0.006473878398537636,-0.0004037352045997977
1772702571499141000,1.76714111328125,-0.00047643951256759465,0.007167898118495941,-0.0024580976460129023
1772702571509191200,1.777191162109375,-0.00008388957212446257,0.0065772091038525105,0.00008175904804375023
1772702571519240200,1.787240234375,0.00019627496658358723,0.00845686811953783,0.00011877698125317693
1772702571529290200,1.797290283203125,-0.0037358824629336596,0.008186290971934795,-0.00017843178648035973
1772702571539339000,1.807339111328125,-0.001540904981084168,0.006037652492523193,0.00037763622822239995
1772702571549389000,1.81738916015625,-0.0011251855175942183,0.006709834095090628,-0.0013257216196507215
1772702571559439000,1.827439208984375,-0.0015052186790853739,0.004348409362137318,0.0008641957538202405
1772702571569488100,1.837488037109375,-0.0002868224401026964,0.007783886976540089,0.0010921623324975371
1772702571579538200,1.8475380859375,-0.0014359764754772186,0.010003365576267242,-0.0023840616922825575
1772702571589588200,1.857588134765625,-0.0007965514669194818,0.011409514583647251,-0.0013933659065514803
1772702571599637200,1.86763720703125,0.0008945558220148087,0.006856841035187244,-0.0002609897928778082
1772702571609687000,1.87768701171875,-0.0022509037517011166,0.007119961082935333,-0.0008106662426143885
1772702571619736300,1.887736328125,-0.002629871480166912,0.007072823122143745,-0.0010032127611339092
1772702571629786400,1.897786376953125,0.0004697816038969904,0.004758802708238363,-0.00264798104763031
1772702571639836200,1.907836181640625,-0.0030868700705468655,0.0070608388632535934,-0.0016322514275088906
1772702571649885200,1.91788525390625,-0.0009297095239162445,0.0062523032538592815,-0.001097755040973425
1772702571659935200,1.927935302734375,-0.0017592841759324074,0.007238738238811493,-0.001038632821291685
1772702571669985000,1.937985107421875,-0.002001631772145629,0.007377754896879196,-0.0020852552261203527
1772702571680034000,1.948033935546875,0.0021632856223732233,0.009832923300564289,0.001371794263832271
1772702571690084000,1.958083984375,-0.0012855078093707561,0.010512827895581722,0.0009693906176835299
1772702571700133000,1.968133056640625,-0.00061279337387532,0.012095279060304165,0.0019805929623544216
1772702571710183200,1.97818310546875,-0.004525243304669857,0.004760666750371456,-0.0025481125339865685
1772702571720233200,1.988233154296875,-0.0008969526388682425,0.0035265579354017973,-0.002511094557121396
1772702571730282000,1.998281982421875,0.00027510453946888447,0.008587895892560482,0.0008048072922974825
1772702571740332000,2.00833203125,-0.0012828446924686432,0.00666456064209342,-0.0025654230266809464
1772702571750382000,2.018382080078125,-0.0008918926469050348,0.008082161657512188,-0.0007912251749075949
1772702571760431000,2.02843115234375,-0.0042131207883358,0.0059995693154633045,-0.00318886898458004
1772702571770481200,2.038481201171875,-0.0009744506096467376,0.009900301694869995,-0.001356347929686308
1772702571780530200,2.0485302734375,0.000040746363083599135,0.007924235425889492,-0.0015504923649132252
1772702571790580200,2.058580322265625,-0.0034413367975503206,0.006872020661830902,0.003421629313379526
1772702571800630000,2.068630126953125,-0.0017190704820677638,0.007992146536707878,-0.0003587277897167951
1772702571810679300,2.07867919921875,-0.003154514357447624,0.006109823938459158,-0.000630902883131057
1772702571820729300,2.088729248046875,-0.0010628675809130073,0.007104248274117708,-0.00026791400159709156
1772702571830779100,2.098779052734375,-0.0020096213556826115,0.007118895649909973,0.0014245248166844249
1772702571840828200,2.108828125,-0.002065015025436878,0.00506826164200902,-0.000871652620844543
1772702571850878200,2.118878173828125,0.0003097256412729621,0.006132727488875389,0.00033875409280881286
1772702571860927200,2.12892724609375,-0.0023342606145888567,0.0073111760430037975,-0.0022559636272490025
1772702571870977300,2.138977294921875,0.0004207794554531574,0.0083071980625391,-0.0016679377295076847
1772702571881027300,2.14902734375,-0.0018959043081849813,0.00560994865372777,-0.0026381274219602346
1772702571891076000,2.159076171875,-0.001199221471324563,0.0068267472088336945,-0.0009209210984408855
1772702571901126100,2.169126220703125,0.0004527373821474612,0.0062858592718839645,-0.0015483618481084704
1772702571911176200,2.17917626953125,-0.001344363670796156,0.005847236607223749,0.0010631339391693473
1772702571921225000,2.189224853515625,0.0006202502408996224,0.008491755463182926,-0.0020719394087791443
1772702571931275000,2.19927490234375,-0.0009515474666841328,0.006932208314538002,-0.0016793893883004785
1772702571941324300,2.20932421875,-0.0025720810517668724,0.008422247134149075,-0.0010894992155954242
1772702571951374000,2.2193740234375,-0.001359277404844761,0.009905361570417881,0.00009933590627042577
1772702571961424100,2.229424072265625,-0.0010463559301570058,0.007466970942914486,0.00242107966914773
1772702571971473200,2.23947314453125,-0.00040506679215468466,0.00875114742666483,0.000737695605494082
1772702571981523000,2.24952294921875,-0.0009811085183173418,0.007645935285836458,0.0003201119543518871
1772702571991573000,2.259572998046875,-0.0009885653853416443,0.00640809815376997,0.0014508900931105018
1772702572001622300,2.269622314453125,-0.00024474450037814677,0.005658418405801058,-0.000474575295811519
1772702572011672300,2.27967236328125,-0.0022687469609081745,0.005396096967160702,-0.0003563309437595308
1772702572021721000,2.28972119140625,-0.0004423510399647057,0.0057553574442863464,0.0036424053832888603
1772702572031771100,2.299771240234375,-0.0018250643042847514,0.008684568107128143,-0.0036072516813874245
1772702572041821200,2.3098212890625,0.0004367584188003093,0.007796137593686581,-0.0008458199445158243
1772702572051870200,2.3198701171875,-0.0011379687348380685,0.008861135691404343,0.0004791026876773685
1772702572061920300,2.329920166015625,-0.0002620550512801856,0.008413191884756088,0.0008197209681384265
1772702572071970300,2.33997021484375,-0.00039840888348408043,0.007214503362774849,-0.0011994877131655812
1772702572082019000,2.35001904296875,-0.0011787151452153921,0.00812237523496151,0.00011877698125317693
1772702572092069000,2.360069091796875,0.0002170476218452677,0.008567122742533684,-0.002153165638446808
1772702572102118100,2.3701181640625,-0.0008713863207958639,0.007160973735153675,0.0014562164433300495
1772702572112168200,2.380168212890625,-0.0016325177857652307,0.007121825125068426,-0.000606668065302074
1772702572122218200,2.39021826171875,-0.0008937568636611104,0.007090666331350803,-0.002246909076347947
1772702572132267300,2.400267333984375,-0.0013105415273457766,0.00839961040765047,-0.0012397015234455466
1772702572142317000,2.410317138671875,-0.0005994775565341115,0.006583600305020809,0.0005901564727537334
1772702572152367000,2.4203671875,-0.0035814191214740276,0.006620352156460285,0.0014290522085502744
1772702572162416000,2.430416015625,-0.0014197311829775572,0.0059963734820485115,0.0011614045361056924
1772702572172466000,2.4404658203125,0.0025185514241456985,0.006871222052723169,-0.00056219327962026
1772702572182515200,2.45051513671875,0.0011528824688866735,0.006169212516397238,0.003810983384028077
1772702572192565200,2.460565185546875,0.0012455604737624526,0.005784385837614536,0.0008554073283448815
1772702572202615300,2.470615234375,-0.003620833856984973,0.0073226275853812695,-0.00032384038786403835
1772702572212664000,2.4806640625,-0.0008889631717465818,0.00782782956957817,-0.0024714134633541107
1772702572222714000,2.490714111328125,-0.0022628880105912685,0.00669252360239625,0.00028336033574305475
1772702572232764200,2.50076416015625,-0.0012900352012366056,0.007893343456089497,-0.0008751147543080151
1772702572242813200,2.510813232421875,0.0012098740553483367,0.005864014383405447,-0.0005552690709009767
1772702572252863200,2.52086328125,-0.0004945489927195013,0.005352687556296587,-0.001588575541973114
1772702572262912300,2.530912353515625,-0.0026354643050581217,0.00663366774097085,0.0030024477746337652
1772702572272962000,2.540962158203125,0.0004293015517760068,0.007306382525712252,0.00014514227223116904
1772702572283012000,2.55101220703125,-0.0006639260682277381,0.0071095749735832214,0.000922519015148282
1772702572293061400,2.561061279296875,0.0004767058417201042,0.007352188695222139,0.0008450209861621261
1772702572303111200,2.571111083984375,-0.0006157228490337729,0.006214752793312073,-0.000005592638444795739
1772702572313161200,2.5811611328125,0.0015006912872195244,0.007201187312602997,-0.00007057376933516935
1772702572323210200,2.591210205078125,-0.003299390198662877,0.00817883387207985,-0.0044141896069049835
1772702572333260000,2.601260009765625,-0.0030415961518883705,0.009534649550914764,-0.00031185615807771683
1772702572343310000,2.61131005859375,-0.0016564861871302128,0.007603857666254044,-0.0010775149567052722
1772702572353359000,2.621359130859375,-0.0008000136003829539,0.009561813436448574,0.0013203952694311738
1772702572363409200,2.6314091796875,-0.000928377965465188,0.007647799793630838,-0.000663393409922719
1772702572373458200,2.641458251953125,-0.002115082461386919,0.008222776465117931,-0.0001680454588495195
1772702572383508200,2.65150830078125,-0.001790975802578032,0.006299973931163549,0.00007723167072981596
1772702572393558300,2.661558349609375,-0.0019590212032198906,0.0089404983446002,-0.0006934871198609471
1772702572403607000,2.67160693359375,-0.0005336974863894284,0.007342068944126368,-0.00025220136740244925
1772702572413657000,2.681656982421875,-0.002680205274373293,0.006085589528083801,-0.0015840481501072645
1772702572423706000,2.6917060546875,-0.0008167914929799736,0.007077616639435291,-0.000636495475191623
1772702572433756200,2.701756103515625,0.0003049319493584335,0.006913832388818264,-0.0012159993639215827
1772702572443806200,2.71180615234375,-0.0020455741323530674,0.0059479037299752235,0.0016237293602898717
1772702572453855000,2.72185498046875,-0.0025832662358880043,0.00803129468113184,-0.002258893335238099
1772702572463905000,2.731905029296875,-0.0002002697146963328,0.006499977316707373,-0.0014274542918428779
1772702572473955000,2.741955078125,-0.002682602033019066,0.00878150761127472,-0.0012804478174075484
1772702572484004400,2.75200439453125,-0.0019856528379023075,0.007135673891752958,-0.001475391210988164
1772702572494054100,2.76205419921875,-0.0014170679496601224,0.009277920238673687,0.0007566040731035173
1772702572504104200,2.772104248046875,-0.0018868496408686042,0.006869357544928789,0.0009494169498793781
1772702572514153200,2.7821533203125,0.00017736652807798237,0.0075636436231434345,0.0018580874893814325
1772702572524203000,2.792203125,-0.002543851500377059,0.0066062374971807,-0.0013068130938336253
1772702572534252300,2.802252197265625,-0.0011685950448736548,0.006464290898293257,0.000598145998083055
1772702572544302300,2.81230224609375,-0.0005211806274019182,0.00839454960078001,0.0003842941368930042
1772702572554352000,2.82235205078125,-0.0016490293201059103,0.007453655358403921,0.002466353354975581
1772702572564401200,2.832401123046875,0.00017896443023346364,0.005462143570184708,0.0006846986943855882
1772702572574451200,2.842451171875,-0.0022748722694814205,0.006007025949656963,0.0022767363116145134
1772702572584501200,2.852501220703125,0.0003352919884491712,0.004796885885298252,0.0012697952333837748
1772702572594550000,2.862550048828125,0.0011701929615810513,0.008213188499212265,-0.0037587855476886034
1772702572604600000,2.87260009765625,-0.0025534387677907944,0.0048799761570990086,0.00019414443522691727
1772702572614649000,2.882649169921875,-0.002920954953879118,0.006405967753380537,-0.0005858954391442239
1772702572624699100,2.89269921875,-0.0012460930738598108,0.006570284720510244,-0.003745736088603735
1772702572634749200,2.902749267578125,-0.003522563260048628,0.007516239304095507,-0.0002487392339389771
1772702572644798000,2.9127978515625,-0.0014676681021228433,0.0062674833461642265,-0.0006013417732901871
1772702572654848000,2.922847900390625,-0.0003611246356740594,0.005943376570940018,-0.00016245282313320786
1772702572664898000,2.93289794921875,0.00013608753215521574,0.00748987402766943,-0.001865277998149395
1772702572674947300,2.942947265625,-0.0011614045361056924,0.007216367404907942,-0.000508663768414408
1772702572684997000,2.9529970703125,-0.002407231368124485,0.007309045642614365,-0.0035989959724247456
1772702572695046100,2.963046142578125,0.00028069718973711133,0.010902448557317257,0.0013632721966132522
1772702572705096200,2.97309619140625,-0.0003802994033321738,0.006549512036144733,-0.001529453438706696
1772702572715146000,2.98314599609375,-0.001377386855892837,0.005806223955005407,0.003385676769539714
1772702572725195300,2.9931953125,-0.0010045443195849657,0.006974552292376757,0.001368598430417478
1772702572735245300,3.003245361328125,-0.002776345470920205,0.0068022459745407104,-0.001088966615498066
1772702572745295000,3.013295166015625,-0.0016157397767528892,0.008767126128077507,-0.0028881982434540987
1772702572755344100,3.02334423828125,-0.0009776464430615306,0.008444084785878658,-0.0015531554818153381
1772702572765394200,3.033394287109375,-0.00007217166421469301,0.00720678037032485,0.0000399474156438373
1772702572775443200,3.043443115234375,-0.0009395632077939808,0.008286692202091217,-0.0007531419396400452
1772702572785493200,3.0534931640625,-0.00267807487398386,0.005878395400941372,-0.0027270768769085407
1772702572795543000,3.06354296875,-0.0016048208344727755,0.008339955471456051,-0.00013928332191426307
1772702572805592000,3.073592041015625,-0.00017683389887679368,0.007786284200847149,-0.00009161273919744417
1772702572815642000,3.08364208984375,-0.0013845774810761213,0.007847269997000694,-0.00014860439114272594
1772702572825692200,3.093692138671875,-0.0025872609112411737,0.006428338121622801,-0.0022658174857497215
1772702572835741000,3.103740966796875,-0.001205080421641469,0.006419549696147442,0.001142496126703918
1772702572845791000,3.113791015625,0.00019920444174204022,0.006702910177409649,-0.0016849819803610444
1772702572855840000,3.123840087890625,-0.0021350563038140535,0.007014499977231026,-0.000806138850748539
1772702572865890000,3.13389013671875,-0.0015068164793774486,0.008582036942243576,-0.00002103897168126423
1772702572875940000,3.143940185546875,-0.0015491608064621687,0.008100536651909351,0.0020008329302072525
1772702572885989000,3.153989013671875,0.00006231796578504145,0.007413707673549652,-0.00010759170982055366
1772702572896039000,3.164038818359375,-0.0023246733471751213,0.006079996936023235,-0.0025427863001823425
1772702572906089000,3.1740888671875,-0.00017710021347738802,0.006109557580202818,-0.0011968245962634683
1772702572916138200,3.18413818359375,0.0004189152386970818,0.008281099610030651,0.002606435678899288
1772702572926188000,3.19418798828125,0.0004647216119337827,0.008511196821928024,0.00023302659974433482
1772702572936237000,3.204237060546875,-0.0030570426024496555,0.0067966533824801445,0.0014833806781098247
1772702572946287000,3.214287109375,-0.002383795566856861,0.009417470544576645,-0.0018229337874799967
1772702572956337000,3.2243369140625,0.00010492854926269501,0.007369765546172857,0.0013435647124424577
1772702572966386200,3.23438623046875,-0.001463939668610692,0.007842476479709148,-0.000979244359768927
1772702572976436200,3.244436279296875,-0.0007297061383724213,0.009738913737237453,-0.0007723167072981596
1772702572986486000,3.254486083984375,-0.0004894890007562935,0.004689027555286884,0.0004540689697023481
1772702572996535000,3.26453515625,-0.0007683219737373292,0.007286142557859421,0.0013488910626620054
1772702573006585000,3.274585205078125,-0.0007105313707143068,0.0068267472088336945,-0.0029430591966956854
1772702573016634000,3.284634033203125,-0.003713778220117092,0.007136738859117031,-0.002644785214215517
1772702573026684200,3.29468408203125,-0.0002769687562249601,0.007315437309443951,-0.00004500742215896025
1772702573036734200,3.304734130859375,-0.002124936319887638,0.00842863880097866,-0.0017209346406161785
1772702573046783000,3.314782958984375,-0.0011789813870564103,0.007727161981165409,-0.002064482541754842
1772702573056833000,3.3248330078125,-0.0017531589837744832,0.006668022833764553,-0.001499625970609486
1772702573066883000,3.334883056640625,0.0003350256592966616,0.005565740168094635,-0.0007829693495295942
1772702573076932000,3.34493212890625,-0.0019321233266964555,0.008717059157788754,0.0009033442474901676
1772702573086982000,3.35498193359375,0.0002580603177193552,0.00788482092320919,-0.0013550163712352514
1772702573097032200,3.3650322265625,-0.0017526262672618032,0.006856308318674564,0.0009384979493916035
1772702573107081200,3.375081298828125,-0.0011078750248998404,0.00885101594030857,-0.002344380598515272
1772702573117131000,3.385131103515625,-0.0017659420846030116,0.006870689336210489,-0.0005427522119134665
1772702573127180000,3.395179931640625,0.000014114753867033869,0.006887200754135847,0.00015686018741689622
1772702573137230000,3.40522998046875,-0.0008394283941015601,0.006975351367145777,0.0006823018775321543
1772702573147280000,3.41527978515625,-0.003055178327485919,0.006910636555403471,-0.0011459582019597292
1772702573157329200,3.4253291015625,-0.0005584649043157697,0.0078046596609056,-0.0013962953817099333
1772702573167379200,3.435379150390625,0.0003294330381322652,0.007123423274606466,-0.00014514227223116904
1772702573177429000,3.445428955078125,-0.0006242449744604528,0.007012635935097933,0.0018053569365292788
1772702573187478000,3.45547802734375,-0.0012024171883240342,0.008198807947337627,-0.0007712514488957822
1772702573197528000,3.465528076171875,-0.000993891735561192,0.0060208747163414955,-0.00004447478931979276
1772702573207577000,3.4755771484375,0.0005627259379252791,0.006709834095090628,-0.0023664848413318396
1772702573217627100,3.485627197265625,0.0009334379574283957,0.008598548360168934,0.001574194524437189
1772702573227677200,3.49567724609375,-0.0035683694295585155,0.007891212590038776,-0.00014061490946915
1772702573237726000,3.505725830078125,-0.0030983216129243374,0.007409446872770786,0.00267780851572752
1772702573247776000,3.51577587890625,0.001555818715132773,0.00418249424546957,-0.0014319816837087274
1772702573257826000,3.525825927734375,-0.0001411475386703387,0.007192665245383978,-0.00006870955257909372
1772702573267875000,3.535875,-0.0012037487467750907,0.006647250149399042,-0.0003403519804123789
1772702573277925000,3.545925048828125,-0.0025009745731949806,0.006813164800405502,0.0008343683439306915
1772702573287974100,3.55597412109375,-0.002454102970659733,0.00660570478066802,-0.002481799805536866
1772702573298024200,3.566024169921875,-0.004554538056254387,0.008767392486333847,-0.0009076052810996771
1772702573308074000,3.576073974609375,-0.0004189152386970818,0.006903712637722492,0.001359277404844761
1772702573318123000,3.586123046875,-0.002612827345728874,0.007131678983569145,0.0007723167072981596
1772702573328173000,3.596173095703125,-0.0027776770293712616,0.00851732213050127,-0.0018836538074538112
1772702573338223000,3.60622314453125,-0.00004660531703848392,0.008130364120006561,-0.0007651261985301971
1772702573348272000,3.616272216796875,-0.0003451456723269075,0.007651527877897024,0.004320446401834488
1772702573358322200,3.626322265625,-0.0026256104465574026,0.0076869479380548,-0.000987500068731606
1772702573368371000,3.636370849609375,-0.001395496423356235,0.008287757635116577,0.0014215953415259719
1772702573378421000,3.6464208984375,-0.0007523429812863469,0.006733536254614592,0.0005643238546326756
1772702573388471000,3.656470947265625,-0.0006002765148878098,0.007523430045694113,0.00041811628034338355
1772702573398520000,3.66652001953125,-0.0008668589289300144,0.00974690355360508,-0.0015512913232669234
1772702573408570000,3.676570068359375,0.0004791026876773685,0.006982009392231703,-0.0032839439809322357
1772702573418620200,3.6866201171875,-0.00044474788592197,0.008530370891094208,-0.0005182511522434652
1772702573428669000,3.6966689453125,-0.0041153826750814915,0.010477940551936626,-0.0020908478181809187
1772702573438719000,3.706718994140625,0.0009622001089155674,0.0062517705373466015,-0.0005046690348535776
1772702573448768300,3.716768310546875,-0.0024077638518065214,0.0044051348231732845,-0.0008937568636611104
1772702573458818000,3.726818115234375,-0.0030269487760961056,0.005860019475221634,-0.00236302288249135
1772702573468868000,3.7368681640625,-0.002778209513053298,0.008695753291249275,-0.0005816344055347145
1772702573478917000,3.746917236328125,-0.004489024169743061,0.007672566920518875,-0.0014008227735757828
1772702573488967200,3.75696728515625,-0.0014234596164897084,0.009404154494404793,-0.0009257147903554142
1772702573499017000,3.767016845703125,0.001008272753097117,0.006308229640126228,-0.0006146575906313956
1772702573509066000,3.77706591796875,-0.0025510420091450214,0.010123474523425102,-0.0006263754912652075
1772702573519116300,3.7871162109375,0.0005257080192677677,0.009512810967862606,0.0001257012045243755
1772702573529165000,3.7971650390625,-0.0022333269007503986,0.006872287020087242,0.0013366405619308352
1772702573539215000,3.807215087890625,-0.0003022687742486596,0.007477623876184225,0.0006719155353493989
1772702573549265200,3.81726513671875,0.0006402239087037742,0.006989998742938042,-0.0023454460315406322
1772702573559314000,3.82731396484375,0.0003483414766378701,0.006886135786771774,0.0003531351685523987
1772702573569364000,3.837364013671875,0.00005512743518920615,0.006973220966756344,-0.0008452873444184661
1772702573579414000,3.8474140625,-0.0009859022684395313,0.00875247921794653,-0.002654372714459896
1772702573589463000,3.857463134765625,-0.0013608753215521574,0.0073716300539672375,-0.0012357067316770554
1772702573599513000,3.86751318359375,-0.0003222425002604723,0.0070307450369000435,-0.00016831177345011383
1772702573609562000,3.87756201171875,-0.0019081549253314734,0.007864580489695072,-0.0005715143634006381
1772702573619612000,3.88761181640625,-0.0026996464002877474,0.008011853322386742,-0.00236328924074769
1772702573629662000,3.897661865234375,-0.000639424950350076,0.0037787591572850943,0.00005273058923194185
1772702573639711200,3.907711181640625,-0.0008189220097847283,0.005294364411383867,0.001407214323990047
1772702573649761000,3.917760986328125,-0.0004751079250127077,0.008586564101278782,-0.0006884271278977394
1772702573659811000,3.92781103515625,-0.0007515440811403096,0.008868859149515629,-0.003245328087359667
1772702573669860000,3.937860107421875,0.0004540689697023481,0.010063553228974342,-0.00042530681821517646
1772702573679910100,3.94791015625,-0.0009243832319043577,0.008800681680440903,-0.00012729909212794155
1772702573689959200,3.957959228515625,-0.00016405072528868914,0.005409945268183947,0.0005749764968641102
1772702573700009200,3.96800927734375,0.0020509003661572933,0.0093317162245512,0.0009502158500254154
1772702573710059300,3.978059326171875,-0.0015014902455732226,0.005375057924538851,0.0003028014034498483
1772702573720108000,3.98810791015625,-0.0010394317796453834,0.0076238312758505344,0.002365952357649803
1772702573730158000,3.998157958984375,-0.00014034859486855567,0.008905344642698765,-0.00041199102997779846
1772702573740208000,4.0082080078125,-0.002606169320642948,0.005550294183194637,-0.0009334379574283957
1772702573750257000,4.0182568359375,0.00015286543930415064,0.008894159458577633,0.00011078749957960099
1772702573760307200,4.02830712890625,-0.0005382248782552779,0.008017978630959988,-0.000993891735561192
1772702573770356200,4.038356201171875,-0.0013451626291498542,0.0067753479816019535,-0.000728907180018723
1772702573780406000,4.048406005859375,-0.0005776396137662232,0.00634897593408823,-0.0009211873984895647
1772702573790456300,4.058456298828125,-0.0031609057914465666,0.006085589528083801,0.0007640608819201589
1772702573800505000,4.068505126953125,0.0009803095599636436,0.00603419030085206,0.0023118900135159492
1772702573810555100,4.07855517578125,-0.00015446334145963192,0.006992129608988762,0.00044288369826972485
1772702573820605200,4.088605224609375,-0.0005960154230706394,0.006360427476465702,-0.0018628811230883002
1772702573830654200,4.098654296875,0.0012567456578835845,0.008947954513132572,-0.00009560748003423214
1772702573840704300,4.108704345703125,-0.0009089368977583945,0.008868060074746609,-0.0037835529074072838
1772702573850753300,4.118753173828125,0.0009890979854390025,0.007851531729102135,-0.0022927154786884785
1772702573860803000,4.128802978515625,-0.00015153386630117893,0.008315720595419407,-0.0021494373213499784
1772702573870853000,4.13885302734375,-0.00047883635852485895,0.0062216767109930515,-0.0014897723449394107
1772702573880902400,4.14890234375,0.0002777676854748279,0.006235259119421244,0.0005781722720712423
1772702573890952200,4.1589521484375,-0.0023185480386018753,0.00484402384608984,-0.0006958839949220419
1772702573901002200,4.169002197265625,-0.0002487392339389771,0.006898385938256979,-0.0005723133217543364
1772702573911051300,4.17905126953125,-0.0008700547041371465,0.007354319095611572,0.0007752461824566126
1772702573921101000,4.18910107421875,-0.0022242721170186996,0.006085323169827461,-0.001020257011987269
1772702573931150000,4.199150146484375,-0.001484179636463523,0.004779841285198927,0.0022032330743968487
1772702573941200400,4.209200439453125,-0.001525991247035563,0.008202269673347473,-0.002511627273634076
1772702573951250400,4.21925048828125,-0.002990197157487273,0.008749549277126789,-0.000029827404432580806
1772702573961299200,4.22929931640625,0.002614957746118307,0.006124737672507763,0.0013363742036744952
1772702573971349200,4.239349365234375,0.0025161546654999256,0.006185724399983883,-0.0008314388687722385
1772702573981399300,4.2493994140625,-0.0003281014505773783,0.005395830608904362,-0.0030743530951440334
1772702573991448000,4.259447998046875,-0.0014775217277929187,0.007565774489194155,-0.0019326560432091355
1772702574001498000,4.269498046875,-0.0003685815026983619,0.00860067829489708,0.001264468883164227
1772702574011547100,4.279547119140625,-0.0016972325975075364,0.008012652397155762,0.00012650014832615852
1772702574021597200,4.28959716796875,0.0009211873984895647,0.007816111668944359,-0.0012460930738598108
1772702574031647200,4.299647216796875,-0.000999484327621758,0.008198807947337627,-0.0004753742541652173
1772702574041696300,4.3096962890625,-0.0006167881074361503,0.006822219584137201,-0.00015233281010296196
1772702574051746000,4.31974609375,-0.002145176287740469,0.00692102313041687,-0.0035814191214740276
1772702574061796000,4.329796142578125,-0.00034354778472334146,0.007161772809922695,-0.002543318783864379
1772702574071845400,4.339845458984375,-0.00044661210267804563,0.006197175942361355,0.0008721852791495621
1772702574081895200,4.349895263671875,-0.002305232221260667,0.006474677007645369,0.0014000238152220845
1772702574091944200,4.359944091796875,0.001416002749465406,0.005775331053882837,0.0021430456545203924
1772702574101994200,4.369994140625,-0.0030828751623630524,0.007240602280944586,-0.001350755337625742
1772702574112044000,4.3800439453125,-0.0012591425329446793,0.006220079027116299,-0.0002146507758880034
1772702574122093300,4.39009326171875,0.00026072346372529864,0.006415288895368576,-0.0026346652302891016
1772702574132143400,4.400143310546875,-0.0020098877139389515,0.008859537541866302,0.0003603257064241916
1772702574142193200,4.410193115234375,-0.00019654128118418157,0.004233094397932291,0.0014357101172208786
1772702574152242200,4.4202421875,-0.003513242118060589,0.007648598402738571,-0.0008855010382831097
1772702574162292200,4.430292236328125,-0.0010793792316690087,0.006643255241215229,-0.0002460760879330337
1772702574172342300,4.44034228515625,-0.003410177771002054,0.007199589628726244,-0.0023331954143941402
1772702574182391000,4.45039111328125,-0.0010934938909485936,0.007820638827979565,-0.0011507519520819187
1772702574192441300,4.46044140625,-0.0010128001449629664,0.0070310113951563835,0.003733751829713583
1772702574202490000,4.470489990234375,-0.003593669505789876,0.005875199567526579,-0.0010418286547064781
1772702574212540200,4.4805400390625,-0.001047154888510704,0.007902397774159908,0.0005257080192677677
1772702574222590200,4.490590087890625,-0.0005909554311074317,0.005869606975466013,-0.0010697918478399515
1772702574232639200,4.50063916015625,-0.001728391507640481,0.007044061087071896,-0.0041465419344604015
1772702574242689000,4.51068896484375,-0.001520665013231337,0.006457899231463671,0.0008042746339924634
1772702574252739000,4.520739013671875,0.0008093346259556711,0.0062821307219564915,0.0029049760196357965
1772702574262788400,4.530788330078125,-0.0014213290996849537,0.00675271125510335,0.0010279801208525896
1772702574272838100,4.540838134765625,-0.0010966897243633866,0.006166815757751465,0.0015475628897547722
1772702574282887200,4.55088720703125,0.000431432097684592,0.00708667142316699,-0.0008993495139293373
1772702574292937200,4.560937255859375,-0.004027232062071562,0.00711623253300786,0.0006857639527879655
1772702574302987000,4.570987060546875,-0.0027893949300050735,0.007466970942914486,0.00042530681821517646
1772702574313036300,4.581036376953125,-0.0016136092599481344,0.007893609814345837,-0.0010346380295231938
1772702574323086300,4.59108642578125,-0.0013078784104436636,0.008019310422241688,0.0004719121498055756
1772702574333135000,4.601135009765625,0.0001597896625753492,0.009110940620303154,-0.000672181835398078
1772702574343185200,4.61118505859375,-0.0019446401856839657,0.008836101740598679,-0.0026557042729109526
1772702574353235200,4.621235107421875,-0.0006106628570705652,0.00788775086402893,0.0006404902087524533
1772702574363284200,4.6312841796875,-0.0021465078461915255,0.005791310220956802,0.00026844663079828024
1772702574373334300,4.641334228515625,-0.000830107310321182,0.004819788970053196,-0.00010040117194876075
1772702574383384300,4.65138427734375,-0.0018583538476377726,0.006224073935300112,-0.000791491474956274
1772702574393433000,4.66143310546875,-0.0013137373607605696,0.006458431947976351,-0.002055960241705179
1772702574403483100,4.671483154296875,-0.0035289546940475702,0.006397179327905178,0.002013349672779441
1772702574413533200,4.681533203125,0.0005880259559489787,0.005888249259442091,-0.0015835155500099063
1772702574423582200,4.691582275390625,-0.0006524744676426053,0.009124788455665112,-0.0008277104352600873
1772702574433632300,4.70163232421875,-0.0003478088474366814,0.007312774192541838,0.0013856426812708378
1772702574443681300,4.711681396484375,-0.0007816377910785377,0.007896272465586662,0.0017920411191880703
1772702574453731300,4.7217314453125,0.000003994741746282671,0.007412376347929239,-0.0005089300684630871
1772702574463781000,4.731781005859375,-0.0005760417552664876,0.005907690152525902,0.00023302659974433482
1772702574473830100,4.741830078125,-0.0023422501981258392,0.006626477465033531,-0.0007696535321883857
1772702574483880200,4.751880126953125,0.0014801849611103535,0.008350874297320843,-0.0008130630594678223
1772702574493930000,4.761929931640625,0.0009062737226486206,0.007325024344027042,0.00023462448734790087
1772702574503979300,4.771979248046875,-0.0011036139912903309,0.007792941760271788,0.0006916229031048715
1772702574514029300,4.782029296875,-0.0011046791914850473,0.008185225538909435,0.0002609897928778082
1772702574524078000,4.792078125,-0.00216514989733696,0.008734902366995811,0.0003379551344551146
1772702574534128000,4.802128173828125,-0.0006735134520567954,0.007378287613391876,-0.0010668623726814985
1772702574544178200,4.81217822265625,-0.0011414308100938797,0.007736483123153448,0.0009552759001962841
1772702574554227200,4.822227294921875,-0.0006056028068996966,0.005367601290345192,0.0011912320042029023
1772702574564277200,4.83227734375,-0.0012860405258834362,0.006336725316941738,0.00019387812062632293
1772702574574327300,4.842327392578125,-0.0005049353349022567,0.006687996443361044,0.0007400924805551767
1772702574584376000,4.8523759765625,-0.0024596955627202988,0.00646642129868269,-0.00007057376933516935
1772702574594426000,4.862426025390625,-0.0020482372492551804,0.0082115912809968,0.0015662050573155284
1772702574604475100,4.87247509765625,-0.001728391507640481,0.006471747532486916,0.00010466222738614306
1772702574614525200,4.882525146484375,-0.002965163439512253,0.007583351340144873,-0.0006103964988142252
1772702574624575200,4.8925751953125,-0.001990180229768157,0.00836951658129692,-0.0014061490073800087
1772702574634624300,4.902624267578125,-0.0011733887949958444,0.008328503929078579,-0.00018216021999251097
1772702574644674300,4.91267431640625,-0.003614442190155387,0.006150037981569767,-0.000009054747351910919
1772702574654724000,4.92272412109375,-0.0010538127971813083,0.00945182517170906,-0.0032439965289086103
1772702574664773000,4.932773193359375,-0.001461010193452239,0.004852545913308859,0.0024474449455738068
1772702574674823200,4.9428232421875,-0.0024916534312069416,0.00947765726596117,-0.00119602563790977
1772702574684872200,4.9528720703125,0.002177933230996132,0.008499745279550552,-0.0009411611245013773
1772702574694922200,4.962922119140625,-0.0017710020765662193,0.010782340541481972,-0.0014032195322215557
1772702574704972300,4.97297216796875,-0.0022807312197983265,0.005615541245788336,-0.0017094830982387066
1772702574715021000,4.98302099609375,-0.0015275891637429595,0.008174306713044643,-0.0046546729281544685
1772702574725071000,4.993071044921875,-0.0016671388875693083,0.009282448329031467,-0.0022594258189201355
1772702574735121200,5.00312109375,0.001490304945036769,0.006449377164244652,-0.0015241270884871483
1772702574745170200,5.013170166015625,-0.0013994910987094045,0.008447014726698399,0.0004487426485866308
1772702574755220200,5.02322021484375,-0.0009784454014152288,0.008057660423219204,-0.004336691461503506
1772702574765269200,5.033269287109375,0.001970472978428006,0.007871504873037338,0.0009651295840740204
1772702574775319000,5.043319091796875,-0.0028298748657107353,0.006391586735844612,-0.002469016704708338
1772702574785369000,5.053369140625,-0.0007350324303843081,0.008419583551585674,0.0019891150295734406
1772702574795418600,5.063418701171875,0.0014543522847816348,0.007839014753699303,0.00145195540972054
1772702574805468700,5.07346875,-0.005626460537314415,0.005992112215608358,-0.0034735610242933035
1772702574815518700,5.083518798828125,-0.0007597998483106494,0.006477872841060162,0.0024224112275987864
1772702574825567500,5.0935673828125,-0.0043984767980873585,0.010250506922602654,0.0003414172388147563
1772702574835617500,5.103617431640625,-0.0009030779474414885,0.006897853687405586,-0.00216514989733696
1772702574845666600,5.11366650390625,-0.00038216362008824944,0.00689066294580698,-0.0004442152567207813
1772702574855716400,5.12371630859375,0.0024378576781600714,0.006876814644783735,-0.00035446672700345516
1772702574865766400,5.133766357421875,-0.0016261261189356446,0.006134058814495802,-0.0018905780743807554
1772702574875815700,5.143815673828125,-0.0015960324089974165,0.006148439832031727,0.00025007082149386406
1772702574885865500,5.153865478515625,-0.0020865867845714092,0.00788455456495285,-0.0035060516092926264
1772702574895915500,5.16391552734375,-0.0008234494016505778,0.006410494912415743,-0.001528920722194016
1772702574905964500,5.173964599609375,-0.001654089312069118,0.008824383839964867,0.0005230448441579938
1772702574916014300,5.184014404296875,0.000782436749432236,0.004800347611308098,0.00015472965606022626
1772702574926063600,5.194063720703125,-0.001133441342972219,0.0076299565844237804,-0.002552107209339738
1772702574936113700,5.20411376953125,-0.0007552724564447999,0.004772917367517948,0.0010863033821806312
1772702574946163500,5.21416357421875,-0.0032778186723589897,0.006422479171305895,-0.001986984396353364
1772702574956212500,5.22421240234375,-0.0007590008899569511,0.005814746022224426,-0.0003211772127542645
1772702574966262500,5.234262451171875,-0.0012460930738598108,0.0073196981102228165,-0.002263953210785985
1772702574976312600,5.2443125,-0.002838130807504058,0.0062248725444078445,0.0011677960865199566
1772702574986361600,5.254361572265625,-0.0009185242815874517,0.008201204240322113,-0.001782187377102673
1772702574996411600,5.26441162109375,-0.0003246393462177366,0.007695470005273819,0.002095108851790428
1772702575006460400,5.27446044921875,-0.003238936420530081,0.006256298162043095,0.001368598430417478
1772702575016510500,5.284510498046875,-0.004810201469808817,0.00780625781044364,-0.00025752768851816654
1772702575026560500,5.294560546875,-0.0019044264918193221,0.0076001291163265705,-0.0017555557424202561
1772702575036609500,5.304609619140625,0.00009747169679030776,0.007956460118293762,-0.0016221314435824752
1772702575046658600,5.314658447265625,-0.0009568737586960196,0.0070581757463514805,-0.0007850998663343489
1772702575056708600,5.32470849609375,0.0004814995336346328,0.006416353862732649,-0.00008229167724493891
1772702575066758700,5.334758544921875,-0.002356897573918104,0.006044842768460512,-0.0007680556736886501
1772702575076807400,5.344807373046875,-0.001389104756526649,0.007555920630693436,0.001279116258956492
1772702575086857500,5.354857421875,-0.0004921521758660674,0.007412376347929239,0.0010543455136939883
1772702575096906500,5.364906494140625,-0.0037055222783237696,0.005979862064123154,-0.003242931328713894
1772702575106956500,5.37495654296875,-0.00236302288249135,0.007387076038867235,-0.002444781828671694
1772702575117006600,5.385006591796875,-0.0010969560826197267,0.006806773599237204,0.0003741741238627583
1772702575127055600,5.3950556640625,-0.0000977380113909021,0.0075665730983018875,-0.0007070692372508347
1772702575137105400,5.40510546875,-0.002672215923666954,0.007501059677451849,0.0006809702608734369
1772702575147155500,5.415155517578125,-0.0007731156656518579,0.009237173944711685,-0.002116147894412279
1772702575157204700,5.425204833984375,-0.0015952334506437182,0.0057074204087257385,-0.0011773834703490138
1772702575167254500,5.435254638671875,-0.003334810258820653,0.006941263098269701,0.0004575310740619898
1772702575177303600,5.445303466796875,-0.0012298477813601494,0.00643686018884182,-0.0013920343481004238
1772702575187353600,5.455353515625,0.0006684534018859267,0.005694637540727854,-0.002223206916823983
1772702575197403400,5.4654033203125,0.0007800398743711412,0.006707970052957535,-0.001529187080450356
1772702575207452400,5.475452392578125,-0.0008167914929799736,0.008167382329702377,0.0010703244479373097
1772702575217502700,5.485502685546875,-0.00041758365114219487,0.008065382950007915,-0.0015670040156692266
1772702575227552500,5.495552490234375,0.00039867521263659,0.006445648614317179,-0.000841825210954994
1772702575237601500,5.5056015625,-0.0032618397381156683,0.010003898292779922,-0.0026341325137764215
1772702575247651600,5.515651611328125,-0.00039707732503302395,0.008943427354097366,-0.00020053602929692715
1772702575257700400,5.525700439453125,-0.0005113269435241818,0.007427290081977844,0.0016548882704228163
1772702575267750400,5.53575048828125,-0.0030330740846693516,0.004759068600833416,0.0007443535141646862
1772702575277800400,5.545800537109375,-0.0011656655697152019,0.005902363918721676,0.0006173207075335085
1772702575287849500,5.555849365234375,-0.003254382871091366,0.00860494002699852,0.000013848437447450124
1772702575297899500,5.5658994140625,0.00034914040588773787,0.00794207863509655,-0.0024029703345149755
1772702575307949600,5.575949462890625,-0.0023995081428438425,0.00606295233592391,0.0010040117194876075
1772702575317998600,5.58599853515625,-0.0009089368977583945,0.006684534251689911,0.0008913599886000156
1772702575328048400,5.59604833984375,-0.0015363775892183185,0.008678176440298557,-0.003314570290967822
1772702575338097700,5.60609765625,0.00018695391190703958,0.008346080780029297,0.000696150294970721
1772702575348147700,5.616147705078125,-0.0001430117554264143,0.007639809977263212,-0.000215716048842296
1772702575358197500,5.626197509765625,-0.0014375743921846151,0.005120726302266121,-0.0006053365068510175
1772702575368246500,5.63624658203125,-0.0016112125013023615,0.008754342794418335,-0.0007571366732008755
1772702575378296600,5.646296630859375,-0.0009515474666841328,0.008700813166797161,0.0005432848702184856
1772702575388346400,5.656346435546875,-0.00033182985498569906,0.006656304933130741,0.0002711098059080541
1772702575398395600,5.666395751953125,-0.000018109494703821838,0.007493868935853243,0.0010463559301570058
1772702575408445700,5.67644580078125,-0.0006420881254598498,0.008067780174314976,0.00040959418402053416
1772702575418495500,5.68649560546875,-0.0012892362428829074,0.0070187607780098915,-0.0019214707426726818
1772702575428544500,5.69654443359375,0.00038269624928943813,0.008332764729857445,0.000526506919413805
1772702575438594600,5.706594482421875,0.0006612628931179643,0.006508765742182732,-0.00042024682625196874
1772702575448644600,5.71664453125,-0.0026581010315567255,0.005997172556817532,0.001219461439177394
1772702575458693600,5.726693603515625,-0.0017907095607370138,0.007090399973094463,0.0017278589075431228
1772702575468743700,5.73674365234375,-0.00029534456552937627,0.009621202014386654,-0.00038695731200277805
1772702575478792400,5.74679248046875,-0.002886333968490362,0.006863764952868223,-0.004682635888457298
1772702575488842500,5.756842529296875,-0.001984321279451251,0.006640592124313116,0.0005866943974979222
1772702575498892500,5.766892578125,-0.0023337281309068203,0.00737376045435667,-0.0045572011731565
1772702575508941600,5.776941650390625,-0.0029465213883668184,0.007376956287771463,-0.003739078063517809
1772702575518991400,5.786991455078125,-0.0023153522051870823,0.007868043147027493,-0.001136370818130672
1772702575529041400,5.79704150390625,-0.002600576728582382,0.00805952399969101,-0.002246642718091607
1772702575539090700,5.807090576171875,-0.0005597964627668262,0.008794024586677551,-0.0030541131272912025
1772702575549140500,5.817140380859375,-0.0007920240750536323,0.007417436223477125,-0.0033750240691006184
1772702575559190500,5.8271904296875,-0.00033875409280881286,0.006901581771671772,0.00007004113285802305
1772702575569239600,5.837239501953125,-0.001820270554162562,0.009302954189479351,0.00023995080846361816
1772702575579289300,5.847289306640625,-0.002425074577331543,0.008672317489981651,0.0012266519479453564
1772702575589338600,5.857338623046875,-0.0011944277212023735,0.006389189511537552,0.0009773800848051906
1772702575599388700,5.867388671875,-0.0028160265646874905,0.008867527358233929,-0.0024407871533185244
1772702575609438500,5.8774384765625,-0.0013768542557954788,0.007538343779742718,-0.0012663330417126417
1772702575619487500,5.887487548828125,-0.003715642262250185,0.00965768750756979,-0.002555303042754531
1772702575629537500,5.89753759765625,-0.0005062668933533132,0.005033374298363924,-0.0004820321628358215
1772702575639587600,5.907587646484375,-0.0032506543211638927,0.007544469088315964,0.002095108851790428
1772702575649636600,5.91763671875,-0.000010918960470007733,0.007894674316048622,-0.0003664509567897767
1772702575659686700,5.927686767578125,-0.0020642161834985018,0.009801497682929039,0.001743305241689086
1772702575669735400,5.9377353515625,-0.0006026733317412436,0.008480303920805454,-0.002811765531077981
1772702575679785500,5.947785400390625,-0.0020911141764372587,0.11001225560903549,0.06512893736362457
1772702575689835500,5.95783544921875,-0.004187021870166063,0.13934829831123352,0.08254893869161606
1772702575699884300,5.96788427734375,-0.0036192359402775764,0.19280727207660675,0.11363521963357925
1772702575709934600,5.9779345703125,-0.003691940102726221,0.18165580928325653,0.10528780519962311
1772702575719983600,5.987983642578125,-0.0024674187880009413,0.006287190597504377,-0.0015017564874142408
1772702575730033700,5.99803369140625,0.007027283310890198,-0.28484585881233215,-0.17774921655654907
1772702575740083500,6.00808349609375,0.007448328658938408,-0.5123232007026672,-0.3487963378429413
1772702575750132500,6.018132568359375,0.0015454323729500175,-0.05066397786140442,-0.048341698944568634
1772702575760182500,6.0281826171875,-0.0062637547962367535,0.37684687972068787,0.2876166105270386
1772702575770232300,6.038232421875,-0.005532450973987579,0.20161300897598267,0.11603392660617828
