time,seconds_elapsed,z,y,x
1772702569799497200,0.067497314453125,-0.004606133326888084,0.19777823984622955,0.13577578961849213
1772702569809547000,0.077547119140625,0.001276256749406457,-0.043101489543914795,-0.029356449842453003
1772702569819597000,0.08759716796875,0.0006813942454755306,-0.084963358938694,-0.05656110495328903
1772702569829646000,0.09764599609375,0.0009407860925421119,0.06938653439283371,0.04672906547784805
1772702569839696000,0.10769580078125,-0.002520787063986063,-0.016912151128053665,-0.013345662504434586
1772702569849745200,0.1177451171875,0.0015818125102669,-0.020215269178152084,-0.012607433833181858
1772702569859795200,0.127795166015625,-0.0013806914212182164,0.023687489330768585,0.01830434799194336
1772702569869845000,0.137844970703125,0.0023701046593487263,-0.018326006829738617,-0.015946298837661743
1772702569879894000,0.14789404296875,-0.0003141057677567005,0.005816121120005846,0.0056088762357831
1772702569889944000,0.157944091796875,0.001365017262287438,0.003124197479337454,0.0010271737119182944
1772702569899994000,0.167994140625,0.0018357945373281837,-0.007717961445450783,-0.005470437463372946
1772702569910043000,0.17804296875,0.0025292816571891308,0.008278582245111465,0.003675656858831644
1772702569920093200,0.18809326171875,-0.0002010897733271122,-0.006057530641555786,-0.005336464382708073
1772702569930142000,0.198141845703125,0.0019462170312181115,0.001083469484001398,-0.0010631559416651726
1772702569940192000,0.20819189453125,-0.0009901002049446106,0.0000657164491713047,0.00287513411603868
1772702569950242000,0.218241943359375,0.00029088027076795697,-0.0027431193739175797,-0.0017116281669586897
1772702569960291000,0.228291015625,-0.0012120361207053065,0.0016963034868240356,0.00478283129632473
1772702569970340900,0.2383408203125,-0.0012413308722898364,-0.0030497158877551556,-0.0005634641856886446
1772702569980390100,0.24839013671875,0.002273610793054104,0.00023559853434562683,0.00007893680594861507
1772702569990440200,0.258440185546875,0.000729509862139821,-0.0001385752111673355,-0.0007714104722253978
1772702570000490000,0.268489990234375,-0.0014346729731187224,-0.0003647292032837868,0.0015420923009514809
1772702570010539000,0.2785390625,0.003020262811332941,-0.0019000419415533543,0.002527994569391012
1772702570020589000,0.288589111328125,-0.0000367690809071064,-0.0012020692229270935,-0.00024470570497214794
1772702570030638800,0.298638916015625,0.0002609723014757037,0.0006205984391272068,0.0008341408101841807
1772702570040688000,0.308688232421875,-0.0006045689806342125,0.0025727497413754463,0.0017199302092194557
1772702570050738200,0.31873828125,-0.0009435893734917045,0.0010712593793869019,-0.0030644387006759644
1772702570060787000,0.328786865234375,0.0013980544172227383,0.0009062616154551506,0.0042253416031599045
1772702570070837000,0.3388369140625,0.0015799483517184854,0.000005314592272043228,-0.0010562394745647907
1772702570080887000,0.348886962890625,0.0008570717764087021,-0.00047838035970926285,0.001270374283194542
1772702570090936000,0.35893603515625,0.0014259229646995664,0.00038395123556256294,0.000349985872162506
1772702570100986000,0.368986083984375,-0.00022177130449563265,-0.0004919767379760742,-0.0008539684931747615
1772702570111036200,0.3790361328125,0.0013854464050382376,-0.0007622875273227692,0.002758609363809228
1772702570121085000,0.3890849609375,-0.001463789027184248,0.0025007380172610283,0.002784921322017908
1772702570131135000,0.399135009765625,-0.0011364866513758898,-0.00042501045390963554,-0.0017272725235670805
1772702570141184000,0.40918408203125,0.0012209402630105615,-0.0002119438722729683,0.000662853242829442
1772702570151234000,0.419234130859375,-0.0008214379195123911,-0.0008172802627086639,-0.0018471761140972376
1772702570161284000,0.4292841796875,0.001040391973219812,-0.0033771665766835213,-0.00015635747695341706
1772702570171333000,0.4393330078125,-0.00010636518709361553,-0.00076700234785676,0.00023033353500068188
1772702570181383200,0.449383056640625,-0.0007007827516645193,0.0010135872289538383,-0.0019699702970683575
1772702570191433000,0.459432861328125,0.0019698352552950382,0.0009773680940270424,-0.000051961542339995503
1772702570201482000,0.46948193359375,-0.0005545752355828881,0.002364874817430973,0.0017912122420966625
1772702570211532000,0.479531982421875,-0.001641684677451849,0.0010165455751121044,-0.002526159631088376
1772702570221581000,0.4895810546875,-0.00007300206925719976,0.0014592818915843964,-0.00004867516690865159
1772702570231631000,0.499631103515625,0.000025534885935485363,-0.0015160012990236282,0.0008312332211062312
1772702570241681200,0.50968115234375,-0.00211217044852674,0.00013856589794158936,0.0022410887759178877
1772702570251730000,0.51972998046875,-0.0025718321558088064,0.0007497617043554783,0.0021489434875547886
1772702570261780000,0.529780029296875,-0.0008926284499466419,0.0013959654606878757,-0.0005827141576446593
1772702570271830000,0.539830078125,-0.0008984874002635479,0.002919826190918684,0.0004585818387567997
1772702570281879000,0.549879150390625,0.0009014485403895378,0.00009121652692556381,0.0006064624758437276
1772702570291929000,0.55992919921875,-0.0013971257722005248,-0.0022419788874685764,-0.0009464267059229314
1772702570301978000,0.56997802734375,-0.0010112232994288206,-0.00019751070067286491,-0.0009728746372275054
1772702570312028000,0.58002783203125,-0.0010144191328436136,-0.0005415910854935646,0.0006628388073295355
1772702570322078000,0.590077880859375,-0.0015628515975549817,0.0006905603222548962,0.0017259041778743267
1772702570332127000,0.600126953125,-0.0008568476187065244,0.0005707177333533764,-0.00006294116610661149
1772702570342177000,0.610177001953125,0.0013393813278526068,-0.00033967336639761925,-0.0007752844248898327
1772702570352227000,0.62022705078125,0.00021659262711182237,0.00011199852451682091,0.0007706806063652039
1772702570362276000,0.630276123046875,-0.0008936868980526924,-0.0005548275075852871,-0.001098712906241417
1772702570372326100,0.640326171875,-0.00009420583955943584,-0.001402245368808508,-0.0012782099656760693
1772702570382376000,0.6503759765625,-0.00046944874338805676,0.0027086245827376842,-0.0011680158786475658
1772702570392425000,0.660425048828125,0.002252301899716258,-0.00031779147684574127,-0.0017805430106818676
1772702570402475000,0.67047509765625,-0.0007098445203155279,-0.00014778878539800644,0.0015580641338601708
1772702570412524000,0.68052392578125,-0.001507727662101388,-0.0009866845794022083,-0.00036047707544639707
1772702570422574000,0.690573974609375,-0.002589864656329155,0.0006486964412033558,-0.0001015422458294779
1772702570432624000,0.7006240234375,-0.002271350473165512,-0.0024613430723547935,-0.00010820015450008214
1772702570442673000,0.7106728515625,0.000053680152632296085,0.0027366941794753075,-0.002305977512151003
1772702570452723000,0.720722900390625,0.00029629410710185766,-0.0022743092849850655,-0.002074282383546233
1772702570462772200,0.730772216796875,-0.0009688861900940537,-0.002421754878014326,0.000531156430952251
1772702570472822000,0.740822021484375,0.0007187590817920864,-0.0013341200537979603,-0.000441696320194751
1772702570482872000,0.7508720703125,-0.00042906671296805143,0.000012120697647333145,0.000006984890205785632
1772702570492921000,0.760921142578125,-0.0003574276342988014,0.0011442303657531738,0.001898361835628748
1772702570502971000,0.770970947265625,0.0004940664512105286,-0.0008895071223378181,0.0016149459406733513
1772702570513021000,0.78102099609375,0.0014022043906152248,0.00008467724546790123,0.000056730437790974975
1772702570523070200,0.7910703125,0.002181826625019312,-0.002287681680172682,-0.003155815415084362
1772702570533120000,0.8011201171875,-0.0003694818587973714,-0.000156354159116745,-0.0005680217873305082
1772702570543170000,0.811170166015625,0.0004971745074726641,0.00043159397318959236,0.0011932995403185487
1772702570553219000,0.821218994140625,0.00010728772031143308,0.00011893920600414276,0.0010537499329075217
1772702570563269000,0.83126904296875,-0.0013634790666401386,0.00029982253909111023,0.002084114123135805
1772702570573318000,0.84131787109375,0.0017638711724430323,0.0004433668218553066,-0.0006472239037975669
1772702570583368000,0.851367919921875,0.0003531292313709855,-0.0012761498801410198,0.00003057948197238147
1772702570593418200,0.861418212890625,0.00013075524475425482,0.0014506611041724682,0.002964317798614502
1772702570603467000,0.871467041015625,0.001225467654876411,-0.00247776135802269,0.001963807502761483
1772702570613517000,0.88151708984375,0.002475289162248373,0.0009619775228202343,-0.0012314531486481428
1772702570623567000,0.891567138671875,-0.0012508201180025935,0.0007357546128332615,0.0015843610744923353
1772702570633616000,0.901615966796875,0.001029378268867731,-0.0004831738770008087,0.001795017160475254
1772702570643666000,0.911666015625,0.00013153202598914504,0.0003601829521358013,-0.0029461330268532038
1772702570653715200,0.921715087890625,0.0015283600660040975,-0.00043157488107681274,0.001025172881782055
1772702570663765000,0.931764892578125,0.0007301197038032115,0.00099500035867095,-0.0007126693963073194
1772702570673815000,0.94181494140625,0.0001018799957819283,0.00019365549087524414,-0.0012255941983312368
1772702570683864000,0.951864013671875,-0.0012873966479673982,0.0010121106170117855,0.0019035444129258394
1772702570693913900,0.961913818359375,0.0000417870469391346,-0.0005263974890112877,-0.0011191433295607567
1772702570703964000,0.9719638671875,0.00042227591620758176,0.0004055728204548359,0.0029960868414491415
1772702570714013200,0.98201318359375,-0.0019311595242470503,0.0010529872961342335,-0.00002500324626453221
1772702570724063000,0.99206298828125,-0.000036247074604034424,-0.0014670118689537048,-0.0003559425240382552
1772702570734112000,1.002112060546875,0.0018346235156059265,0.00043182214722037315,0.0008262346964329481
1772702570744162000,1.012162109375,-0.0015647262334823608,0.0011582528240978718,0.000606394256465137
1772702570754212000,1.022212158203125,-0.0007774957921355963,0.0016783676110208035,0.0019014894496649504
1772702570764261000,1.03226123046875,-0.0010184274287894368,0.0002651344984769821,-0.0009398305555805564
1772702570774311200,1.042311279296875,-0.0011694285785779357,0.0006156065501272678,-0.0012942972825840116
1772702570784361200,1.052361328125,0.0011572171933948994,0.0013376004062592983,0.0013756905682384968
1772702570794410200,1.06241015625,0.0010645391885191202,-0.002061125822365284,0.004030595533549786
1772702570804460000,1.0724599609375,0.0016604634001851082,0.000567601528018713,-0.00027107103960588574
1772702570814509000,1.082509033203125,-0.003132693935185671,0.0011497684754431248,0.0005925921141169965
1772702570824559000,1.09255908203125,-0.0004785875789821148,0.0018869317136704922,-0.0019512593280524015
1772702570834609200,1.102609130859375,0.00044020306086167693,0.0007108789868652821,0.0010141704697161913
1772702570844658200,1.112658203125,-0.0003745491849258542,0.00029454799368977547,0.00001429050462320447
1772702570854708200,1.122708251953125,-0.002626518253237009,0.0011092093773186207,-0.000263743510004133
1772702570864758300,1.13275830078125,0.0014113562647253275,0.00021682493388652802,-0.0025281463749706745
1772702570874807000,1.14280712890625,0.00038737087743356824,-0.002216505352407694,-0.0006684609106741846
1772702570884857000,1.152857177734375,-0.00066260842140764,0.00038649095222353935,0.00011168567289132625
1772702570894906000,1.162906005859375,0.0006119805038906634,-0.0016044876538217068,-0.0016457343008369207
1772702570904956200,1.1729560546875,-0.0020884608384221792,0.00015558069571852684,-0.003262212732806802
1772702570915006200,1.183006103515625,-0.003854402806609869,0.0007356172427535057,-0.00024778087390586734
1772702570925055200,1.19305517578125,0.0014521026751026511,-0.0010404535569250584,-0.00047378387534990907
1772702570935105000,1.20310498046875,0.00011839158833026886,-0.0006255330517888069,0.0031875299755483866
1772702570945155000,1.213155029296875,-0.000050179543904960155,-0.0015318337827920914,0.0020986858289688826
1772702570955204400,1.223204345703125,-0.001996151404455304,-0.0001464574597775936,-0.0021357403602451086
1772702570965254100,1.233254150390625,-0.0006680295336991549,0.0004050689749419689,0.0005972564686089754
1772702570975304200,1.24330419921875,0.0004457044997252524,0.0006362316198647022,-0.00023657927522435784
1772702570985353200,1.253353271484375,0.0004275110550224781,-0.0006549768149852753,-0.002090147230774164
1772702570995403000,1.263403076171875,0.0009415011154487729,0.0005785995163023472,-0.0006491108215413988
1772702571005452000,1.2734521484375,-0.0014302365016192198,0.0018416191451251507,0.0004969383007846773
1772702571015502300,1.28350244140625,0.0008044218993745744,-0.002642078325152397,-0.0012072185054421425
1772702571025552400,1.293552490234375,-0.0015561195323243737,0.0008164090104401112,0.0028261453844606876
1772702571035601200,1.30360107421875,-0.0005278730532154441,0.002354117576032877,-0.0012255877954885364
1772702571045651200,1.313651123046875,-0.0017883337568491697,0.000049897003918886185,-0.001099907560274005
1772702571055701200,1.323701171875,0.001037280191667378,-0.0006017787382006645,0.002701754914596677
1772702571065750000,1.33375,0.000495407497510314,-0.001245609950274229,0.0002822192618623376
1772702571075800000,1.343800048828125,0.0001936713233590126,0.00061380909755826,0.0013613321352750063
1772702571085849000,1.35384912109375,-0.00048320251516997814,-0.001293775625526905,0.000593588687479496
1772702571095899100,1.363899169921875,-0.00016761792358011007,-0.000818135216832161,-0.0008170877699740231
1772702571105949200,1.37394921875,-0.0016104273963719606,-0.0005288370884954929,0.0004898545448668301
1772702571115998200,1.383998291015625,-0.0006623420631513,-0.0007552057504653931,-0.00008991561480797827
1772702571126048000,1.394048095703125,0.0012059388682246208,0.0007421732880175114,0.0003818214754574001
1772702571136097300,1.40409716796875,-0.0003014103276655078,-0.0005545197054743767,0.0013642616104334593
1772702571146147300,1.414147216796875,-0.00023944966960698366,-0.0004619220271706581,-0.000620988488662988
1772702571156197000,1.424197021484375,0.0011099741095677018,-0.0008707172237336636,-0.0015562905464321375
1772702571166246100,1.43424609375,-0.0015948971267789602,-0.0009564324282109737,0.0025399639271199703
1772702571176296200,1.444296142578125,-0.0015967614017426968,-0.0009513720870018005,-0.0006766019505448639
1772702571186346000,1.454345947265625,-0.0016162666724994779,0.0016651717014610767,-0.0010230941697955132
1772702571196395300,1.464395263671875,0.0018029657658189535,-0.0004376606084406376,0.0017769532278180122
1772702571206445300,1.4744453125,0.0008572586230002344,-0.0008924542926251888,-0.0010103466920554638
1772702571216495000,1.4844951171875,-0.0006431663641706109,-0.0003797956742346287,-0.0006215252797119319
1772702571226544000,1.494544189453125,-0.000854264129884541,0.0009072115644812584,0.0013337028212845325
1772702571236594200,1.50459423828125,-0.0012457488337531686,0.00015939632430672646,-0.00026712327962741256
1772702571246643000,1.514642822265625,-0.00037568516563624144,0.001807499211281538,-0.0010940154315903783
1772702571256693200,1.524693359375,-0.0011021955870091915,0.0006591440178453922,0.0006524855270981789
1772702571266743300,1.534743408203125,-0.0013601395767182112,0.00038250070065259933,-0.0005933004431426525
1772702571276792000,1.5447919921875,-0.0026307336520403624,-0.0023437775671482086,0.0006887452909722924
1772702571286842000,1.554842041015625,0.0011585763422772288,0.0027104876935482025,-0.00137893739156425
1772702571296892200,1.56489208984375,-0.0005208130460232496,0.000478226225823164,-0.0014857301721349359
1772702571306941200,1.574941162109375,0.001003285520710051,-0.00030865753069519997,-0.00040632422314956784
1772702571316991000,1.584990966796875,0.000015252851881086826,-0.0014905687421560287,-0.002900907304137945
1772702571327040300,1.595040283203125,-0.0011975570814684033,0.001039775088429451,-0.00030557913123629987
1772702571337090300,1.60509033203125,0.0016869127284735441,0.0002557402476668358,0.00003157704486511648
1772702571347140000,1.61514013671875,0.00008631899254396558,-0.000034765806049108505,-0.0007142300019040704
1772702571357189000,1.625189208984375,0.0002128191408701241,0.0006307582370936871,-0.0017560585401952267
1772702571367239200,1.6352392578125,0.0005422945832833648,0.0003885379992425442,-0.004000062122941017
1772702571377289000,1.6452890625,-0.00011284300126135349,-0.0003789849579334259,0.003076756140217185
1772702571387338200,1.655338134765625,0.0005093014915473759,0.00006394926458597183,0.002188657410442829
1772702571397388300,1.66538818359375,0.00038173608481884,0.001633616629987955,0.001968680415302515
1772702571407437000,1.67543701171875,-0.002559390850365162,0.00044024642556905746,0.001333543099462986
1772702571417487000,1.685487060546875,0.0015051255468279123,0.0003949725069105625,-0.0017836869228631258
1772702571427537200,1.695537109375,0.00046908610966056585,0.00246130907908082,-0.0007882998324930668
1772702571437586200,1.705586181640625,0.001219564932398498,0.0014551668427884579,0.0016793851973488927
1772702571447636200,1.71563623046875,-0.00045417144428938627,-0.001533173955976963,0.0021605028305202723
1772702571457686300,1.725686279296875,-0.0014520578552037477,0.0016237376257777214,-0.0006035920232534409
1772702571467735000,1.735735107421875,0.00110817130189389,0.0011757551692426205,-0.001055693719536066
1772702571477785000,1.74578515625,0.0013486547395586967,-0.0017747608944773674,-0.00136488676071167
1772702571487834000,1.755834228515625,0.0002928724279627204,0.0010660975240170956,0.0011779575143009424
1772702571497884200,1.76588427734375,-0.0016203424893319607,0.0011039148084819317,0.0002911249175667763
1772702571507934200,1.775934326171875,0.0011604048777371645,-0.0007589259184896946,0.0003570906992536038
1772702571517983200,1.785983154296875,0.0008362982189282775,-0.0009160526096820831,0.0038271895609796047
1772702571528033300,1.796033203125,-0.0007908330298960209,0.0008627166971564293,0.0017281093169003725
1772702571538083000,1.8060830078125,0.0014185253530740738,0.0009295623749494553,0.0011328927939757705
1772702571548132000,1.816132080078125,0.000664078863337636,-0.00036551617085933685,-0.0007774476544000208
1772702571558182100,1.82618212890625,0.00027419201796874404,-0.001960217021405697,-0.002155100926756859
1772702571568231200,1.836231201171875,0.0013594209449365735,-0.0012134215794503689,-0.001502713654190302
1772702571578281200,1.84628125,-0.0000824144808575511,-0.00039662979543209076,-0.0004206713638268411
1772702571588331300,1.856331298828125,0.0006760107353329659,0.0007210229523479939,0.0017692495603114367
1772702571598380000,1.866380126953125,0.0021319608204066753,0.0004741479642689228,-0.00011839903891086578
1772702571608430000,1.87643017578125,-0.0014995974488556385,0.001833997666835785,0.0007004927610978484
1772702571618480000,1.886480224609375,-0.002423181664198637,0.00045181671157479286,-0.0004116432974115014
1772702571628529200,1.896529052734375,-0.0015563941560685635,-0.002019468229264021,-0.00018795160576701164
1772702571638579200,1.9065791015625,0.0003315207432024181,-0.0017555486410856247,-0.002471079584211111
1772702571648628200,1.916628173828125,0.001117594656534493,0.0004984717816114426,-0.001653352053835988
1772702571658678000,1.926677978515625,-0.0006230473518371582,0.0013181930407881737,-0.0017249910160899162
1772702571668728000,1.93672802734375,0.0006080521270632744,-0.0002971375361084938,0.0004593858611769974
1772702571678777300,1.94677734375,0.0009686441044323146,0.001344168558716774,0.0006383502623066306
1772702571688827100,1.9568271484375,0.00033467612229287624,-0.0009570359252393246,0.00015036793774925172
1772702571698877200,1.966877197265625,-0.0022656344808638096,0.004673684947192669,0.005782420746982098
1772702571708926200,1.97692626953125,-0.00011742883361876011,-0.0006617973558604717,0.001105341943912208
1772702571718976300,1.986976318359375,-0.0012788334861397743,-0.003560648299753666,-0.002638263627886772
1772702571729025000,1.99702490234375,0.00179362203925848,0.0013650399632751942,0.00035278877476230264
1772702571739075000,2.007074951171875,0.0004548509605228901,-0.001767902635037899,-0.0009649433195590973
1772702571749125000,2.017125,0.00035796361044049263,-0.0008538588881492615,-0.003140263259410858
1772702571759174100,2.027174072265625,-0.0014694975689053535,-0.00120566226541996,-0.0027059016283601522
1772702571769224200,2.03722412109375,0.002484561875462532,0.0024493327364325523,-0.0012183820363134146
1772702571779274200,2.047274169921875,0.0007878619944676757,-0.0011169067583978176,0.0004420989425852895
1772702571789323000,2.057322998046875,-0.00020440598018467426,-0.00016972003504633904,0.003114464459940791
1772702571799373000,2.067373046875,-0.001191107090562582,0.0015080710873007774,-0.0016994655597954988
1772702571809422300,2.07742236328125,-0.0019905781373381615,0.0008251662366092205,-0.0008393680909648538
1772702571819472100,2.08747216796875,0.0005322343204170465,-0.00023317430168390274,0.0017755897715687752
1772702571829522200,2.097522216796875,-0.001513789058662951,-0.0005980385467410088,0.0015816481318324804
1772702571839571200,2.1075712890625,-0.0021814433857798576,0.0014901459217071533,-0.0008135990356095135
1772702571849621000,2.11762109375,0.0010648861061781645,-0.0018016640096902847,-0.0005708311800844967
1772702571859671000,2.127671142578125,0.002060109283775091,0.000334723386913538,-0.00035618041874840856
1772702571869720300,2.13772021484375,0.003523483406752348,2.2258609533309937e-7,0.000168681115610525
1772702571879770000,2.14777001953125,0.00031464063795283437,-0.001862658653408289,-0.0004473080625757575
1772702571889819100,2.157819091796875,-0.0012408326147124171,0.0007333029061555862,-0.0024355060886591673
1772702571899869200,2.167869140625,0.0013469610130414367,0.000022238586097955704,0.0008897167863324285
1772702571909919200,2.177919189453125,0.002526400610804558,-0.00016910862177610397,0.0009210958960466087
1772702571919968300,2.18796826171875,0.002524270210415125,-0.0003944123163819313,-0.000794778810814023
1772702571930018300,2.198018310546875,0.0005329923005774617,-0.00037334393709897995,0.0018555531278252602
1772702571940068400,2.208068359375,0.0016147682908922434,0.0007507763803005219,-0.0012265231925994158
1772702571950117000,2.2181171875,0.0000714670168235898,0.0005170227959752083,-0.0012266142293810844
1772702571960167200,2.228167236328125,-0.002003934234380722,-0.0009415904060006142,0.002667992375791073
1772702571970216200,2.23821630859375,0.0028044460341334343,-0.0005309176631271839,-0.001400982728227973
1772702571980266000,2.248265869140625,-0.0002411450259387493,-0.000552755780518055,0.0005662943585775793
1772702571990316000,2.25831591796875,-0.0013447590172290802,0.0004659034311771393,0.00013912332360632718
1772702572000365300,2.268365234375,0.0005280002951622009,-0.0010971175506711006,-0.0019506968092173338
1772702572010415000,2.2784150390625,-0.00018274097237735987,-0.0005865991115570068,0.0000022623571567237377
1772702572020465200,2.288465087890625,-0.0009420083370059729,-0.0002571661025285721,0.0021532976534217596
1772702572030514200,2.29851416015625,-0.0006697567878291011,0.001897603739053011,-0.0001828941167332232
1772702572040564000,2.30856396484375,0.0009334661299362779,-0.00013465480878949165,-0.0011743889190256596
1772702572050614000,2.318614013671875,0.0007873468566685915,0.0012087891809642315,-0.0013294443488121033
1772702572060663300,2.328663330078125,0.0007458014879375696,0.002440767828375101,-0.00010012913844548166
1772702572070713000,2.338713134765625,0.0011001352686434984,-0.0016710460186004639,-0.002874487079679966
1772702572080762000,2.34876220703125,-0.0007409079698845744,0.00028717610985040665,0.001010532258078456
1772702572090812200,2.358812255859375,0.0025980789214372635,0.0004549296572804451,0.003032160922884941
1772702572100862200,2.3688623046875,0.0003580941120162606,0.0014624036848545074,0.00014556055248249322
1772702572110911200,2.3789111328125,0.0018495013937354088,0.0003417632542550564,-0.0019442583434283733
1772702572120961300,2.388961181640625,0.0011112730717286468,0.00011645955964922905,-0.00030641426565125585
1772702572131011300,2.39901123046875,-0.00021105317864567041,0.0016207988373935223,-0.0022847014479339123
1772702572141060000,2.40906005859375,0.0010211914777755737,-0.00030999304726719856,0.0007771346135996282
1772702572151110100,2.419110107421875,-0.0012235125759616494,-0.0010285135358572006,-0.00040718488162383437
1772702572161159000,2.429158935546875,0.0013861190527677536,0.00019014906138181686,0.003410456469282508
1772702572171209200,2.439209228515625,0.0026921769604086876,-0.0007420498877763748,0.0002624114276841283
1772702572181259300,2.44925927734375,0.003272479632869363,0.0006121671758592129,0.0032427548430860043
1772702572191308300,2.459308349609375,-0.0026047753635793924,0.0007457341998815536,-0.004016053397208452
1772702572201358000,2.469358154296875,-0.0018686775583773851,-0.0010998360812664032,0.001447688089683652
1772702572211408100,2.479408203125,0.002602872671559453,0.0004435642622411251,-0.0018562908517196774
1772702572221457200,2.48945703125,-0.0020840244833379984,-0.00238471245393157,0.0010886326199397445
1772702572231507000,2.4995068359375,0.0025264204014092684,-0.0016967360861599445,-0.000060022808611392975
1772702572241556200,2.50955615234375,-0.0003974641440436244,-0.00009564356878399849,-0.0013119748327881098
1772702572251606300,2.519606201171875,0.0008863864350132644,-0.001589952502399683,-0.0013593786861747503
1772702572261656000,2.529656005859375,-0.00015277904458343983,0.0010686805471777916,0.0009818060789257288
1772702572271705000,2.539705078125,0.0012074857950210571,0.00032511400058865547,0.0014378898777067661
1772702572281755100,2.549755126953125,0.0019726119935512543,0.0022889291867613792,0.0004083119274582714
1772702572291805200,2.55980517578125,0.0015115971909835935,-0.000020539388060569763,-0.0016896483721211553
1772702572301854200,2.569854248046875,0.00029852730222046375,0.0007227486930787563,-0.0008496873779222369
1772702572311904300,2.579904296875,0.0006239644717425108,0.0006529409438371658,0.0006840708665549755
1772702572321953000,2.589953125,-0.0008831183658912778,0.0015743942931294441,-0.001821697223931551
1772702572332003000,2.600003173828125,0.004606250207871199,0.0019318945705890656,0.0017765868688002229
1772702572342053000,2.61005322265625,0.0014019348891451955,0.0016091186553239822,-0.000027971051167696714
1772702572352102100,2.62010205078125,0.0012000711867585778,0.0014906288124620914,0.0011726412922143936
1772702572362152200,2.630152099609375,0.001976648811250925,-0.0020915893837809563,0.0023201974108815193
1772702572372202200,2.6402021484375,-0.0008246948709711432,0.00006741192191839218,0.0017583903390914202
1772702572382251300,2.650251220703125,-0.0015863588778302073,-0.0010724207386374474,0.00009977354784496129
1772702572392301000,2.660301025390625,0.000087559106759727,0.0011495794169604778,0.0007231601048260927
1772702572402350000,2.67035009765625,-0.0013087361585348845,-0.0008200942538678646,0.00006216354086063802
1772702572412400000,2.680400146484375,-0.000059987884014844894,-0.0006318599916994572,-0.005507437977939844
1772702572422450200,2.6904501953125,-0.00043602625373750925,-0.00029443763196468353,-0.0011377234477549791
1772702572432499200,2.700499267578125,0.00009631714783608913,0.0002581486478447914,-0.00021615438163280487
1772702572442549200,2.71054931640625,0.0005415976047515869,-0.0021514794789254665,0.0031937570311129093
1772702572452599000,2.72059912109375,0.0008178971474990249,-0.0005374294705688953,0.0004980039084330201
1772702572462648000,2.73064794921875,-0.0005986383184790611,-0.0017044264823198318,-0.002055701334029436
1772702572472698000,2.740697998046875,-0.0011966259917244315,0.0012268982827663422,-0.0010461617494001985
1772702572482747100,2.7507470703125,-0.0004458808107301593,0.002074049785733223,-0.0009156668093055487
1772702572492797200,2.760797119140625,0.0026325550861656666,0.002138336654752493,0.002918642945587635
1772702572502847200,2.77084716796875,-0.000561374006792903,-0.0012502693571150303,0.003990032710134983
1772702572512896000,2.78089599609375,-0.0013036311138421297,0.00156834302470088,-0.0002358772326260805
1772702572522946000,2.790946044921875,-0.0012913804966956377,-0.0008649872615933418,-0.0010665170848369598
1772702572532996000,2.80099609375,0.0013592654140666127,-0.0015583713538944721,-0.0011955748777836561
1772702572543045000,2.811045166015625,0.0009557965095154941,0.00002834014594554901,-0.0012017001863569021
1772702572553095200,2.82109521484375,-0.0015363817801699042,0.00022975867614150047,-0.0011943826684728265
1772702572563144200,2.831144287109375,0.0011970866471529007,-0.001172129064798355,0.0010879464680328965
1772702572573194200,2.8411943359375,-0.0024455804377794266,-0.00192591967061162,0.0006628971314057708
1772702572583244000,2.851244140625,-0.00008601963054388762,-0.0012894244864583015,0.0013601126847788692
1772702572593293300,2.861293212890625,0.0016988920979201794,-0.00011644139885902405,-0.0022736259270459414
1772702572603343400,2.87134326171875,-0.00014215114060789347,0.00022763898596167564,-0.0006112806731835008
1772702572613393200,2.88139306640625,-0.0012369600590318441,0.001203879714012146,0.0009082574397325516
1772702572623442200,2.891442138671875,0.000928988738451153,-0.00138790812343359,0.0018478207057341933
1772702572633492200,2.9014921875,-0.0003716693026944995,0.0012164418585598469,0.00045011413749307394
1772702572643541000,2.911541015625,0.0005881339311599731,-0.0000693323090672493,-0.0021725669503211975
1772702572653591000,2.921591064453125,0.0002032508491538465,0.0025169169530272484,-0.002727265004068613
1772702572663641000,2.93164111328125,0.0012389541370794177,-0.0009489208459854126,-0.000492872844915837
1772702572673690000,2.941690185546875,-0.001491568167693913,-0.0008782320655882359,0.0016728900372982025
1772702572683740200,2.951740234375,-0.002313153352588415,0.0009353803470730782,-0.0028488910757005215
1772702572693790200,2.961790283203125,0.0001276099355891347,0.0008225240744650364,0.00280332425609231
1772702572703839000,2.9718388671875,0.0006312137120403349,-0.0008518053218722343,-0.0003240257501602173
1772702572713889000,2.981888916015625,-0.00020742975175380707,-0.0017297398298978806,0.0011854491895064712
1772702572723939000,2.99193896484375,0.0009790085023269057,0.0005491273477673531,0.0015553622506558895
1772702572733988000,3.001988037109375,-0.00035663461312651634,0.00032353727146983147,0.0007055359310470521
1772702572744038100,3.0120380859375,0.0016756237018853426,-0.00030683306977152824,0.00070234015583992
1772702572754087200,3.022087158203125,-0.00016906170640140772,0.001207204069942236,-0.0012933432590216398
1772702572764137200,3.03213720703125,0.003179863328114152,-0.003088208846747875,0.0017887330614030361
1772702572774187000,3.04218701171875,0.0010191379114985466,0.0012069535441696644,-0.0011041464749723673
1772702572784236300,3.052236328125,0.0015094258124008775,0.0007379711605608463,0.00047750488738529384
1772702572794286000,3.0622861328125,0.0006228587590157986,-0.0030006365850567818,-0.00040798605186864734
1772702572804336000,3.072336181640625,0.001332058571279049,0.002658314537256956,-0.0006063915207050741
1772702572814385200,3.08238525390625,-0.0012191208079457283,-0.0011945110745728016,-0.001043657655827701
1772702572824435000,3.09243505859375,0.0014317898312583566,0.0013781026937067509,0.0010085742687806487
1772702572834484200,3.102484130859375,0.0008252139668911695,0.0003552176058292389,0.001535832416266203
1772702572844534300,3.1125341796875,0.0036510941572487354,-0.0014522699639201164,0.0013653901405632496
1772702572854584000,3.122583984375,0.000055404845625162125,0.0005329437553882599,0.0004147866857238114
1772702572864633000,3.132633056640625,-0.00038055458571761847,0.002199549227952957,-0.0005593976238742471
1772702572874683100,3.14268310546875,0.0017104116268455982,0.00014861347153782845,0.00034769473131746054
1772702572884733000,3.15273291015625,-0.0012132066767662764,0.00048150913789868355,0.0014675540151074529
1772702572894782000,3.162781982421875,0.0012070125667378306,0.0003668125718832016,0.0012356317602097988
1772702572904832000,3.17283203125,0.0029825419187545776,-0.0009112386032938957,-0.0011569521157070994
1772702572914881000,3.182881103515625,-0.0006609162082895637,-0.0017909505404531956,0.000009211216820403934
1772702572924931000,3.19293115234375,0.00041819666512310505,-0.00019624968990683556,-0.0004211556224618107
1772702572934981000,3.202981201171875,-0.0014737322926521301,0.001443337183445692,0.0004841984191443771
1772702572945030000,3.21302978515625,0.0025854576379060745,0.0006832708604633808,0.00029804345103912055
1772702572955080000,3.223079833984375,0.0005595257389359176,0.0004077800549566746,-0.0018792983610183
1772702572965130000,3.2331298828125,-0.00045860069803893566,-0.000021787825971841812,0.0016469932161271572
1772702572975179000,3.243178955078125,0.0021069245412945747,0.000966537743806839,-0.002811671467497945
1772702572985229000,3.25322900390625,0.0017540556145831943,-0.0007115197367966175,0.0018600455950945616
1772702572995278000,3.263278076171875,0.0011961323907598853,0.0005265539512038231,0.0016750941285863519
1772702573005328100,3.273328125,-0.0009405218297615647,0.00021176785230636597,-0.0018458712147548795
1772702573015378000,3.2833779296875,-0.0007072221487760544,-0.0003940504975616932,0.002685548271983862
1772702573025427200,3.29342724609375,-0.0019929963164031506,0.0005423175171017647,-0.0008007960859686136
1772702573035477200,3.303477294921875,0.0014660268789157271,-0.000988996122032404,-0.0019983150996267796
1772702573045527000,3.313527099609375,-0.0012610499979928136,0.00021848129108548164,-0.002153044566512108
1772702573055576000,3.323576171875,-0.00022062344942241907,-0.0005015064962208271,0.0016644832212477922
1772702573065626000,3.333626220703125,0.00017219281289726496,-0.0014685001224279404,0.0003683228278532624
1772702573075675100,3.343675048828125,-0.0006388179026544094,0.001316957175731659,-0.0017136893002316356
1772702573085725200,3.35372509765625,0.002205171622335911,0.0019832802936434746,0.0023481640964746475
1772702573095775200,3.363775146484375,0.00020797201432287693,0.00040867552161216736,0.000620536389760673
1772702573105824000,3.373823974609375,-0.0008418461075052619,0.0025589121505618095,-0.001141144661232829
1772702573115874000,3.3838740234375,-0.0014000897062942386,0.000349478330463171,0.000514016835950315
1772702573125924000,3.393924072265625,-0.001318064401857555,0.0007718559354543686,0.0003225355176255107
1772702573135972900,3.403972900390625,-0.002047124085947871,0.000154206994920969,0.004110039211809635
1772702573146023000,3.41402294921875,0.00006023526657372713,0.00014035869389772415,0.0001714900863589719
1772702573156072200,3.424072265625,0.000435627531260252,-0.0015322756953537464,0.00047036464093253016
1772702573166122000,3.4341220703125,0.00099462503567338,-0.001680880319327116,0.0007100491784512997
1772702573176172000,3.444172119140625,-0.00033574178814888,0.0016557136550545692,-0.0007112739840522408
1772702573186221000,3.454220947265625,0.0002126030740328133,-0.0014034593477845192,0.002081583021208644
1772702573196271000,3.46427099609375,-0.0035636392422020435,0.0011753435246646404,0.0029203095473349094
1772702573206321000,3.47432080078125,0.0006241817027330399,-0.001680630724877119,-0.000829953933134675
1772702573216370200,3.4843701171875,0.0006595999002456665,0.0011847554706037045,-0.000983581179752946
1772702573226420200,3.494420166015625,-0.0019106168765574694,0.0003860732540488243,0.00023694560513831675
1772702573236469000,3.504468994140625,-0.0008992956718429923,0.00023351376876235008,-0.001016097841784358
1772702573246519000,3.51451904296875,0.0012552016414701939,0.000024456065148115158,-0.001111439079977572
1772702573256569000,3.524569091796875,0.0020897190552204847,0.00033223768696188927,-0.0009889883222058415
1772702573266618000,3.5346181640625,0.0010723915183916688,0.00008536223322153091,0.0007814811542630196
1772702573276668200,3.544668212890625,0.0004971513408236206,0.0029993471689522266,-0.0006805162411183119
1772702573286718200,3.55471826171875,-0.0008088628528639674,-0.0005370643921196461,-0.0010096828918904066
1772702573296767000,3.56476708984375,-0.0033019413240253925,0.002553270198404789,-0.004189567640423775
1772702573306817000,3.574817138671875,0.0008645742782391608,-0.001240935642272234,0.002812681719660759
1772702573316866000,3.584865966796875,-0.0012420436833053827,-0.0003926679491996765,-0.0007240572012960911
1772702573326916000,3.594916015625,0.00007755274418741465,-0.0015788399614393711,-0.0014279306633397937
1772702573336966100,3.604966064453125,-0.002396713010966778,-0.0010968721471726894,-0.00004861401976086199
1772702573347015200,3.61501513671875,-0.00028455990832298994,-0.00020924070850014687,0.00003394397208467126
1772702573357065000,3.62506494140625,0.0001316559500992298,0.0031393575482070446,-0.00217713275924325
1772702573367115000,3.635114990234375,-0.0017674441915005445,0.0023270933888852596,-0.002156892791390419
1772702573377164000,3.6451640625,-0.0026866740081459284,0.00004209531471133232,-0.0031619644723832607
1772702573387214000,3.655214111328125,-0.0010807879734784365,-0.00012994511052966118,-0.0038248253986239433
1772702573397263000,3.66526318359375,0.0022793193347752094,-0.0011668363586068153,0.0006780295516364276
1772702573407313200,3.675313232421875,0.00004013360012322664,0.0013290783390402794,0.0011419521179050207
1772702573417363200,3.68536328125,0.0011541987769305706,0.0004601944237947464,-0.0011387629201635718
1772702573427412000,3.695411865234375,0.0014024053234606981,0.0015049520879983902,-0.0009254437172785401
1772702573437462000,3.7054619140625,0.001289041480049491,0.000850290060043335,-0.0020487885922193527
1772702573447512000,3.715511962890625,0.0014490974135696888,-0.00012629106640815735,-0.004442703910171986
1772702573457561000,3.72556103515625,-0.0007045638049021363,0.002256878651678562,-0.0011090511688962579
1772702573467611100,3.735611083984375,0.0010874771978706121,-0.0006989641115069389,-0.00014525320148095489
1772702573477660200,3.74566015625,-0.0007596635259687901,0.00031691882759332657,-0.0013399003073573112
1772702573487710000,3.7557099609375,-0.0006201139185577631,-0.0004098578356206417,-0.0005406857817433774
1772702573497760000,3.765760009765625,-0.0004568746080622077,0.00023829517886042595,-0.0010484348749741912
1772702573507809300,3.775809326171875,-0.00035487546119838953,-0.00008021900430321693,-0.0008444366976618767
1772702573517859000,3.785859130859375,0.0017504454590380192,0.000006532762199640274,0.0007850432302802801
1772702573527909000,3.7959091796875,0.0021421965211629868,0.0021328008733689785,-0.000747872341889888
1772702573537958100,3.805958251953125,0.000898323894944042,-0.0016652490012347698,-0.0016876154113560915
1772702573548008000,3.816008056640625,-0.00016907101962715387,0.0007180138491094112,-0.0017704397905617952
1772702573558057000,3.826056884765625,-0.0018781443359330297,-0.00024951715022325516,-0.0006355411605909467
1772702573568107000,3.83610693359375,-0.002378552220761776,0.0023268251679837704,-0.0024054781533777714
1772702573578157300,3.8461572265625,-0.0004986844724044204,0.00007627159357070923,-0.0015522672329097986
1772702573588206000,3.8562060546875,0.0004102524253539741,-0.0003066910430788994,-0.0015751705504953861
1772702573598256000,3.866256103515625,0.0012686740374192595,0.00023605721071362495,-0.0006919362931512296
1772702573608306200,3.87630615234375,0.0014327247627079487,0.0008568405173718929,0.003951551392674446
1772702573618355000,3.88635498046875,0.0004907901748083532,0.0008357218466699123,-0.0012013904051855206
1772702573628405000,3.896405029296875,0.00042048271279782057,0.0002612778916954994,-0.00028419774025678635
1772702573638455000,3.906455078125,-0.00056786451023072,-0.002269970253109932,-0.0005908265593461692
1772702573648504000,3.916504150390625,-0.0012994349235668778,0.0013703042641282082,-0.0017333226278424263
1772702573658554000,3.92655419921875,0.0005637467838823795,0.0006621689535677433,-0.0023566237650811672
1772702573668603100,3.93660302734375,-0.0005814124597236514,0.00031436048448085785,0.001440511317923665
1772702573678653000,3.94665283203125,0.0012345477007329464,0.002014470286667347,0.0007583986152894795
1772702573688703000,3.956702880859375,0.0017924800049513578,-0.0003634667955338955,0.0016319153364747763
1772702573698752300,3.966752197265625,0.003506898880004883,-0.00007027573883533478,0.0023894256446510553
1772702573708802000,3.976802001953125,-0.0007629472529515624,0.0006413208320736885,-0.0010551069863140583
1772702573718852000,3.98685205078125,0.0010961942607536912,-0.0003498867154121399,0.000002327346010133624
1772702573728901000,3.996901123046875,0.0015113811241462827,0.001326573546975851,0.0012817098759114742
1772702573738951000,4.006950927734375,-0.0008990173228085041,0.00022779032588005066,-0.0005771498545072973
1772702573749000200,4.017000244140625,0.0006586655508726835,0.0003750631585717201,-0.0006892689852975309
1772702573759050200,4.02705029296875,0.0011363818775862455,-0.0018715159967541695,0.0007400279282592237
1772702573769100300,4.037100341796875,-0.0005749654956161976,-0.000705051701515913,0.0020010345615446568
1772702573779149000,4.047149169921875,0.0015638947952538729,0.0010280939750373363,0.00040245387936010957
1772702573789199000,4.05719921875,0.0034004105255007744,-0.00042199715971946716,0.002590507036074996
1772702573799249200,4.067249267578125,0.0010931114666163921,-0.0002809041179716587,0.00025501250638626516
1772702573809298200,4.077298095703125,0.0010843230411410332,-0.0012313863262534142,0.002918972633779049
1772702573819348200,4.08734814453125,-0.002089057583361864,-0.00022620894014835358,-0.0017490317113697529
1772702573829397200,4.097397216796875,0.0011283071944490075,0.0016137692146003246,0.00023742025950923562
1772702573839447300,4.107447265625,-0.0010664383880794048,0.0003142128698527813,-0.0012057926505804062
1772702573849497000,4.1174970703125,-0.0005042449338361621,0.0002502966672182083,0.0003337808302603662
1772702573859546000,4.127546142578125,0.0010694644879549742,0.0011575641110539436,0.0007564625702798367
1772702573869596200,4.13759619140625,0.00023296562721952796,-0.0005231564864516258,-0.0003705871640704572
1772702573879646200,4.147646240234375,0.0018160379258915782,0.0012283851392567158,0.00026768643874675035
1772702573889695200,4.1576953125,0.0024085913319140673,0.0024140249006450176,-0.0009658897179178894
1772702573899745300,4.167745361328125,-0.0005707256495952606,-0.0005243984051048756,-0.0004910051939077675
1772702573909794000,4.1777939453125,0.0008956108358688653,-0.0008945781737565994,0.0004927664995193481
1772702573919844000,4.187843994140625,-0.0015524823684245348,-0.00038419105112552643,-0.0032348795793950558
1772702573929894100,4.19789404296875,0.0007263844599947333,-0.00007819384336471558,0.0009883614256978035
1772702573939943400,4.207943359375,0.000957312760874629,0.00016837939620018005,-0.0016684294678270817
1772702573949993200,4.2179931640625,-0.0010730811627581716,0.0007508127018809319,-0.00042446699808351696
1772702573960043300,4.228043212890625,0.0027349204756319523,-0.00008988147601485252,0.002794811502099037
1772702573970092300,4.23809228515625,0.001800417434424162,0.00022676819935441017,0.0006312595796771348
1772702573980142000,4.24814208984375,0.0018415332306176424,-0.002373982686549425,-0.001235142583027482
1772702573990191000,4.258191162109375,-0.00043600203935056925,0.0010050362907350063,-0.0006979829631745815
1772702574000241200,4.2682412109375,0.0007183084380812943,-0.001179784070700407,-0.0012726318091154099
1772702574010291200,4.278291259765625,-0.000032170326448976994,0.0026338626630604267,-0.0013328192289918661
1772702574020340200,4.28834033203125,0.00020959804533049464,-0.00014732126146554947,0.00008116458775475621
1772702574030390300,4.298390380859375,0.00003143260255455971,-0.00035797711461782455,0.002142184879630804
1772702574040440000,4.308440185546875,-0.0016284926095977426,-0.0006537162698805332,-0.00004827740485779941
1772702574050489000,4.318489013671875,-0.0014793557347729802,-0.000469425693154335,-0.0004378978628665209
1772702574060539100,4.3285390625,-0.0007218967657536268,0.0010142759419977665,-0.0024055829271674156
1772702574070588200,4.338588134765625,0.0023135743103921413,0.0007498241029679775,-0.0002079424448311329
1772702574080638200,4.34863818359375,-0.00086057442240417,0.0010635722428560257,0.0010038462933152914
1772702574090688300,4.358688232421875,0.00011866987915709615,-0.0012054410763084888,-0.0007578348158858716
1772702574100737000,4.368737060546875,0.000027236761525273323,0.00237755523994565,0.000035792007111012936
1772702574110787000,4.378787109375,-0.0019480297341942787,0.002624430228024721,-0.003201280254870653
1772702574120837000,4.388837158203125,0.0023336573503911495,-0.0009617847390472889,0.0005026747821830213
1772702574130886400,4.398886474609375,0.0008276398293673992,-0.0021540820598602295,0.0027320068329572678
1772702574140936200,4.408936279296875,0.0000041763996705412865,-0.00011434406042098999,-0.0009572840644977987
1772702574150985200,4.418985107421875,-0.0021071776282042265,0.00147955771535635,-0.0024321426171809435
1772702574161035300,4.42903515625,0.0008975084638223052,-0.00020076893270015717,0.0001420175249222666
1772702574171085000,4.4390849609375,0.0008407831192016602,0.0007180212996900082,0.00005892690387554467
1772702574181134300,4.44913427734375,0.0015852295327931643,0.00134967640042305,-0.002135226968675852
1772702574191184400,4.459184326171875,-0.0007807227084413171,0.0019616708159446716,0.001961247529834509
1772702574201234200,4.469234130859375,0.00005071028135716915,0.0003294176422059536,-0.0014259913004934788
1772702574211283200,4.479283203125,-0.0015881989384070039,0.0005978643894195557,-0.0007018776959739625
1772702574221333200,4.489333251953125,-0.00016310857608914375,-0.0003830208443105221,0.001988268457353115
1772702574231382000,4.499382080078125,-0.00033940980210900307,0.00019834702834486961,-0.0019225835567340255
1772702574241432000,4.50943212890625,-0.0004877024330198765,-0.0004209750331938267,0.0018790916074067354
1772702574251482400,4.519482421875,-0.0011074200738221407,-0.0016462956555187702,0.0022809626534581184
1772702574261531100,4.52953125,0.0006534690619446337,-0.0008697104640305042,0.0018572129774838686
1772702574271581200,4.539581298828125,0.0016255228547379375,-0.001448947936296463,-0.002948727458715439
1772702574281631200,4.54963134765625,-0.0004869875265285373,0.000042587053030729294,0.0015431251376867294
1772702574291680000,4.559679931640625,0.0012821503914892673,-0.0015619676560163498,-0.0003477192367427051
1772702574301730000,4.56972998046875,-0.002569910604506731,-0.002197722904384136,-0.0008018948719836771
1772702574311779300,4.579779296875,0.001514579402282834,-0.00040115462616086006,-0.00182561413384974
1772702574321829000,4.5898291015625,-0.00008541217539459467,0.001108068972826004,0.0003533599665388465
1772702574331879200,4.599879150390625,0.0007271182839758694,-0.000040285754948854446,-0.0005901979748159647
1772702574341928200,4.60992822265625,-0.00018498871941119432,-0.00044308556243777275,-0.0027957186102867126
1772702574351978200,4.619978271484375,0.0012307476717978716,0.000951345544308424,0.001508748740889132
1772702574362028000,4.630028076171875,0.0010949529241770506,-0.0011356002651154995,0.0007007803069427609
1772702574372077300,4.640077392578125,-0.0014595510438084602,-0.0010684886947274208,0.000018212100258097053
1772702574382127400,4.65012744140625,0.00006982835475355387,-0.001551943365484476,0.0007266778848133981
1772702574392176000,4.660176025390625,-0.00041646487079560757,0.0014086929149925709,-0.0003468423674348742
1772702574402226200,4.67022607421875,-0.0015769224846735597,0.00027501629665493965,-0.0008303725626319647
1772702574412276200,4.680276123046875,0.0010966249974444509,-0.00015162210911512375,-0.0025169523432850838
1772702574422325200,4.6903251953125,-0.00079699931666255,-0.0005810228176414967,0.000309384660795331
1772702574432375300,4.700375244140625,0.0010392502881586552,0.00036093732342123985,0.0010036707390099764
1772702574442425300,4.71042529296875,0.0014092008350417018,-0.0002492191269993782,0.0038789245299994946
1772702574452474000,4.72047412109375,-0.0006385036977007985,-0.0004332438111305237,-0.00006681497325189412
1772702574462524200,4.730524169921875,-0.0002764039672911167,-0.0011237743310630322,0.001680887071415782
1772702574472573200,4.7405732421875,-0.00006335112266242504,-0.0013549369759857655,0.0015959322918206453
1772702574482623000,4.750623046875,-0.00039457250386476517,0.0008238530717790127,-0.001871186075732112
1772702574492673300,4.76067333984375,-0.00020282494369894266,0.0021162847988307476,-0.0011111199855804443
1772702574502722300,4.770722412109375,-0.0006639307830482721,0.0019505592063069344,0.0010470945853739977
1772702574512772000,4.780772216796875,0.0007312992820516229,0.00021124863997101784,0.00019221992988605052
1772702574522822100,4.790822265625,0.0010160548845306039,-0.0014907605946063995,-0.0019334249664098024
1772702574532871200,4.80087109375,-0.0023235492408275604,-0.0026300610043108463,-0.0006156929302960634
1772702574542921200,4.810921142578125,0.0009198968764394522,-0.0011320877820253372,0.0009416721295565367
1772702574552970200,4.82097021484375,-0.0020607130136340857,-0.0004282142035663128,-0.0022447998635470867
1772702574563020300,4.831020263671875,-0.0010697508696466684,-0.00010703690350055695,0.0025233235210180283
1772702574573070300,4.8410703125,0.0008057774975895882,-0.0005111172795295715,0.0002622598549351096
1772702574583119000,4.851119140625,-0.0003899860894307494,-0.0000986163504421711,0.0003767302550841123
1772702574593169200,4.861169189453125,-0.0005380578804761171,0.0011450797319412231,0.0011173553066328168
1772702574603219200,4.87121923828125,-0.0029253694228827953,-0.0005855672061443329,0.0014173586387187243
1772702574613268200,4.881268310546875,-0.0015461182920262218,-0.0012564174830913544,-0.0011781580979004502
1772702574623318300,4.891318359375,0.0006275086780078709,-0.0007243864238262177,-0.000612597621511668
1772702574633367300,4.9013671875,-0.001639107707887888,0.00035605812445282936,-0.002827016171067953
1772702574643417000,4.9114169921875,-0.0005675815045833588,0.0010763159953057766,-0.0009091831743717194
1772702574653467100,4.921467041015625,-0.0008951503550633788,-0.0016065528616309166,-0.001226365682668984
1772702574663516200,4.93151611328125,0.0002043460262939334,0.00034906063228845596,0.0014640780864283442
1772702574673566200,4.941566162109375,-0.0037397954147309065,0.00036290939897298813,-0.000015307858120650053
1772702574683616300,4.9516162109375,0.0024634115397930145,-0.001350631471723318,-0.0011825819965451956
1772702574693665300,4.961665283203125,0.0019153328612446785,0.0012187864631414413,0.0016081444919109344
1772702574703715000,4.971715087890625,-0.00046096579171717167,-0.0004234020598232746,-0.0005381557857617736
1772702574713764000,4.98176416015625,0.0018930023070424795,-0.0003498988226056099,-0.00162259500939399
1772702574723814100,4.991814208984375,-0.0006445497274398804,0.0006113024428486824,-0.001812873873859644
1772702574733864200,5.0018642578125,0.0013397716684266925,-0.00034637004137039185,-0.001664535840973258
1772702574743913200,5.011913330078125,-0.00033994996920228004,-0.0025577396154403687,-0.0009151317062787712
1772702574753963300,5.02196337890625,-0.0009306389838457108,0.0005746707320213318,-0.0037498001474887133
1772702574764013300,5.032013427734375,0.0041986689902842045,-0.0024181040935218334,0.002812274033203721
1772702574774062000,5.04206201171875,-0.0013223303249105811,-0.001100371591746807,-0.0007576934294775128
1772702574784112000,5.052112060546875,-0.0014206834603101015,0.0010749949142336845,0.002114888047799468
1772702574794162400,5.062162353515625,-0.0010640863329172134,-0.0014512799680233002,-0.0004494697495829314
1772702574804211700,5.072211669921875,0.0003396827378310263,-0.0016417535953223705,-0.0007601556717418134
1772702574814261500,5.082261474609375,0.0016693990910425782,-0.00121591379866004,0.0010414727730676532
1772702574824310500,5.092310546875,-0.0027945975307375193,0.0034816768020391464,0.0006488722865469754
1772702574834360600,5.102360595703125,0.0032558380626142025,-0.0007793805561959743,-0.000684838742017746
1772702574844410400,5.112410400390625,-0.00016543746460229158,-0.0013655060902237892,0.0011465523857623339
1772702574854459600,5.122459716796875,0.0024854731746017933,0.002536024898290634,0.000138279574457556
1772702574864509700,5.132509765625,0.0004333835677243769,0.0007779286243021488,-0.00214504636824131
1772702574874559700,5.142559814453125,0.00010821165051311255,0.0005185366608202457,0.00020119838882237673
1772702574884608500,5.1526083984375,-0.0010668612085282803,0.0008266358636319637,-0.0032685482874512672
1772702574894658600,5.162658447265625,0.0021728742867708206,-0.0006066770292818546,-0.001825115061365068
1772702574904707300,5.172707275390625,-0.0007578826043754816,0.001776762306690216,-0.0019353023963049054
1772702574914757400,5.18275732421875,8.520437404513359e-7,-0.0010472536087036133,-0.0002897352387662977
1772702574924807400,5.192807373046875,0.001560173463076353,0.0012301797978579998,-0.0033266146201640368
1772702574934856400,5.2028564453125,-0.0010382727487012744,-0.0010172617621719837,0.0007014164002612233
1772702574944906500,5.212906494140625,-0.0006235314067453146,0.0007538273930549622,-0.0014754680451005697
1772702574954955500,5.22295556640625,0.001023367396555841,-0.0027815192006528378,-0.000101809564512223
1772702574965005600,5.233005615234375,-0.000477103516459465,-0.0015831110067665577,-0.00014778500190004706
1772702574975055400,5.243055419921875,-0.0005524709122255445,0.0010238573886454105,-0.00031396624399349093
1772702574985104600,5.253104736328125,0.00030337373027577996,0.0004531717859208584,-0.002235495252534747
1772702574995154700,5.26315478515625,0.00031136319739744067,-0.00012766430154442787,-0.000027734669856727123
1772702575005204500,5.27320458984375,-0.0011470229364931583,-0.0018552006222307682,0.002195662120357156
1772702575015253500,5.28325341796875,0.0013962959637865424,0.0012742802500724792,-0.001982038840651512
1772702575025303600,5.293303466796875,-0.000598713057115674,-0.002166976686567068,-0.0019503149669617414
1772702575035353300,5.303353271484375,0.002616787562146783,0.0009230887517333031,-0.0012626869138330221
1772702575045402600,5.313402587890625,-0.0002607073402032256,-0.0002750363200902939,-0.0013201910769566894
1772702575055452700,5.32345263671875,-0.00011103774886578321,0.0011055469512939453,0.0005794416647404432
1772702575065501400,5.33350146484375,0.0006111923139542341,-0.00072134705260396,-0.0002649762900546193
1772702575075551500,5.343551513671875,-0.0006519450107589364,0.0025953538715839386,-0.001061794115230441
1772702575085601500,5.3536015625,4.505272954702377e-8,0.00037656351923942566,0.0007578256772831082
1772702575095650600,5.363650634765625,0.000988077837973833,-0.000581642147153616,-0.001072564977221191
1772702575105700600,5.37370068359375,-0.0013004362117499113,-0.0015764129348099232,-0.00036712043220177293
1772702575115750700,5.383750732421875,0.0023816502653062344,0.00023719947785139084,0.00042676785960793495
1772702575125799400,5.39379931640625,0.0008472236804664135,-0.0010476275347173214,0.0002386515843681991
1772702575135849500,5.403849365234375,-0.0002755650784820318,0.001821662299335003,0.0019167093560099602
1772702575145898500,5.4138984375,-0.0003517261939123273,-0.00019149575382471085,-0.0008528033504262567
1772702575155948500,5.423948486328125,0.0006924992776475847,-0.001240515150129795,0.0010308504570275545
1772702575165998300,5.433998291015625,-0.002622317522764206,0.00034203846007585526,0.0022133798338472843
1772702575176047600,5.444047607421875,-0.0007234838558360934,-0.0027120751328766346,0.0009110942482948303
1772702575186097700,5.45409765625,0.0021588753443211317,0.0025401609018445015,-0.001962888753041625
1772702575196147500,5.4641474609375,-0.00008137570694088936,-0.002444477751851082,0.001622525043785572
1772702575206196500,5.474196533203125,0.0009040527511388063,0.0036057443358004093,0.0012872314546257257
1772702575216246500,5.48424658203125,0.000427080609370023,0.0013969182036817074,-0.0010076145408675075
1772702575226295600,5.494295654296875,-0.00007975217886269093,0.0012008422054350376,-0.0015038541750982404
1772702575236345600,5.504345703125,0.0006619381601922214,0.0004490320570766926,0.00029724164051003754
1772702575246395600,5.514395751953125,-0.00036797462962567806,-0.00012590503320097923,-0.0013921655481681228
1772702575256444400,5.5244443359375,-0.0003812904469668865,-0.0006793099455535412,0.0014286546502262354
1772702575266494500,5.534494384765625,0.00022612628526985645,-0.0026300018653273582,-0.00022359780268743634
1772702575276544500,5.54454443359375,-0.0006915989797562361,6.686896085739136e-7,0.0027154667768627405
1772702575286593500,5.554593505859375,-0.0022958526387810707,0.0006824987940490246,-0.0009453020757064223
1772702575296643600,5.5646435546875,0.00013854290591552854,0.00003561750054359436,-0.0011695402208715677
1772702575306692600,5.574692626953125,-0.0009123331401497126,0.00048800138756632805,0.0000624802487436682
1772702575316742400,5.584742431640625,-0.00039701140485703945,-0.0006821919232606888,0.001839607721194625
1772702575326792400,5.59479248046875,-0.0004216532688587904,0.0007595266215503216,-0.001621948555111885
1772702575336841500,5.604841552734375,0.0011331001296639442,-0.0011289208196103573,0.00048141609295271337
1772702575346891500,5.6148916015625,0.0014447972644120455,0.0010812459513545036,-0.000979317119345069
1772702575356941600,5.624941650390625,-0.0023717789445072412,-0.0007912223227322102,-0.000506339652929455
1772702575366990600,5.634990478515625,0.00048685900401324034,-0.001599934883415699,0.001057332381606102
1772702575377040600,5.64504052734375,-0.0002692124107852578,-0.001035877037793398,-0.0012939726002514362
1772702575387090400,5.65509033203125,0.0011672524269670248,0.0005345274694263935,-0.001478940132074058
1772702575397139500,5.665139404296875,-0.0002570061478763819,0.000015744008123874664,0.00034718940150924027
1772702575407189500,5.675189453125,-0.0005890671163797379,0.0013239565305411816,-0.00005434633931145072
1772702575417239600,5.685239501953125,-0.0017086600419133902,-0.0005660885944962502,-0.001656237756833434
1772702575427288600,5.69528857421875,-0.002291182754561305,0.0006558406166732311,0.0003158599720336497
1772702575437338600,5.705338623046875,0.0017182062147185206,-0.001947399228811264,0.0014940424589440227
1772702575447388700,5.715388671875,-0.0013285247841849923,0.0007286402396857738,0.0024543912149965763
1772702575457437400,5.7254375,-0.00013809185475111008,-0.001257279422134161,0.003917265683412552
1772702575467487500,5.735487548828125,-0.002445269376039505,0.000008189119398593903,-0.0020664511248469353
1772702575477536500,5.74553662109375,0.0024418975226581097,-0.00029487861320376396,-0.0020435480400919914
1772702575487586600,5.755586669921875,0.000679712975397706,-0.0004373784177005291,-0.0011367941042408347
1772702575497636600,5.76563671875,-0.00026943767443299294,-0.0024595167487859726,-0.004380790516734123
1772702575507685400,5.775685302734375,0.00016682996647432446,0.0025091879069805145,0.0003232190210837871
1772702575517735400,5.7857353515625,0.0012320943642407656,0.000010077375918626785,-0.0019202278926968575
1772702575527785500,5.795785400390625,-0.000020790728740394115,0.0005471482872962952,0.0006105566862970591
1772702575537834800,5.805834716796875,0.0015150542603805661,0.00003235926851630211,0.00032666369224898517
1772702575547884500,5.815884521484375,0.0010203187121078372,0.0012318906374275684,-0.0027095789555460215
1772702575557934600,5.8259345703125,-0.001071327831596136,0.000051578041166067123,0.00028967313119210303
1772702575567983600,5.835983642578125,0.00024053698871284723,0.0005851187743246555,0.0000534811697434634
1772702575578033400,5.846033447265625,0.00011962943244725466,-0.0002684243954718113,0.0002984919701702893
1772702575588082400,5.85608251953125,-0.0013386575737968087,-0.00011977832764387131,0.000009362556738778949
1772702575598132700,5.8661328125,-0.0003937681904062629,0.0000554574653506279,0.0003486492787487805
1772702575608182500,5.8761826171875,-0.0017522159032523632,0.0012134527787566185,-0.001841403660364449
1772702575618231600,5.8862314453125,0.0004089393769390881,-0.0003660679794847965,-0.0018786879954859614
1772702575628281600,5.896281494140625,0.0003806005115620792,-0.0006299628876149654,-0.0017327337991446257
1772702575638331400,5.906331298828125,-0.0015129069797694683,0.0015423777513206005,-0.0011947753373533487
1772702575648380400,5.91638037109375,-0.0010088537819683552,0.001275493297725916,0.00023288321972358972
1772702575658430500,5.926430419921875,0.0015379271935671568,0.0017545954324305058,-0.0018848624313250184
1772702575668479500,5.9364794921875,-0.0014984372537583113,0.001018068753182888,-0.0011070547625422478
1772702575678529500,5.946529541015625,-0.0015325257554650307,0.09605883061885834,0.06431642919778824
1772702575688579600,5.95657958984375,-0.004138325806707144,0.125947505235672,0.07969292253255844
1772702575698628400,5.96662841796875,-0.0018434798112139106,0.1815604269504547,0.11151397228240967
1772702575708678400,5.976678466796875,-0.003708580508828163,0.18453449010849,0.11242984235286713
1772702575718727700,5.986727783203125,-0.0009788405150175095,0.02694832719862461,0.01695365086197853
1772702575728777700,5.99677783203125,0.005883330479264259,-0.2523861229419708,-0.1541125774383545
1772702575738827500,6.00682763671875,0.010511904023587704,-0.5386767387390137,-0.3458569645881653
1772702575748876500,6.01687646484375,0.0023416695185005665,-0.11524118483066559,-0.09260432422161102
1772702575758926600,6.026926513671875,-0.007485661655664444,0.31896060705184937,0.2628003656864166
1772702575768976400,6.036976318359375,-0.005483847111463547,0.24068433046340942,0.14651504158973694
