time,seconds_elapsed,z,y,x
1772702138999865900,0.067865966796875,-0.012923194459080696,0.013123667200934141,0.0029765863916836675
1772702139009914600,0.07791455078125,-0.007821487405896187,0.0057662719091400505,0.004104827803210355
1772702139019964700,0.087964599609375,0.03586626315116882,0.012238591462094337,0.021391400536987928
1772702139030013700,0.098013671875,-0.02862052980661392,0.015269666253682226,-0.0036873376100789754
1772702139040063700,0.108063720703125,0.03901157543957233,0.010042524456232785,0.0010288681237027048
1772702139050112800,0.11811279296875,-0.026824294039607045,0.022868176824972032,-0.015226982456003315
1772702139060162800,0.128162841796875,0.02091127060353756,0.022651355736516415,0.010268296036124228
1772702139070211600,0.138211669921875,-0.017998598027229307,0.0075628912686370306,0.005638257048721425
1772702139080261600,0.14826171875,0.025845219874382017,0.0005426555093377828,0.007193039609515108
1772702139090311000,0.158310791015625,-0.0154500825881958,-0.014323818504624069,-0.008141809968021697
1772702139100360700,0.168360595703125,0.003855506384372711,-0.030729283855203536,-0.004024003952229395
1772702139110409700,0.17840966796875,-0.010510288098454475,-0.008601294405665249,-0.010691380286402999
1772702139120459800,0.188459716796875,0.00939677389860153,-0.006560417961515486,-0.010794671697518788
1772702139130508500,0.198508544921875,0.021818448576331136,0.012207995394431053,0.006757246574712917
1772702139140558600,0.20855859375,0.011344985356926917,0.016058314147032796,-0.007355591493775136
1772702139150608000,0.21860791015625,-0.004367547559738159,0.012779274210054427,-0.00007662716647610068
1772702139160657700,0.22865771484375,-0.009154781836271286,0.0066145227689296,-0.0035805847333976997
1772702139170706700,0.238706787109375,0.005809563061594963,0.007788991642091423,0.0014421844652155414
1772702139180756700,0.2487568359375,0.013291443249583243,-0.0013875453682616352,-0.0023060484526678917
1772702139190805800,0.2588056640625,0.009251227948069572,-0.00021128639681264756,0.0183693219026085
1772702139200855800,0.268855712890625,0.010302782827615738,-0.0012541830458678304,-0.0071937656952999526
1772702139210904800,0.27890478515625,0.017634440889954566,-0.0020066636472940444,-0.0016007634272566065
1772702139220954600,0.28895458984375,0.008810498443245888,-0.0035372707480564713,0.002656181631167419
1772702139231004700,0.299004638671875,0.015397475618124008,-0.0063295500813983375,-0.012005403760727494
1772702139241053700,0.3090537109375,0.00836509276330471,0.0095015311810188,0.0006963756331708282
1772702139251103700,0.319103759765625,0.0026776947766542435,-0.01006206940691918,-0.005961296724318527
1772702139261152800,0.32915283203125,0.0026747721672058106,0.011344163373019545,0.0055301296322839335
1772702139271202800,0.339202880859375,-0.0043570261657238,0.010400708510447294,-0.005370422725658863
1772702139281251600,0.34925146484375,-0.007347440153360366,0.007448891233839094,0.011950184708461166
1772702139291301600,0.359301513671875,0.008362170153856277,0.0069321373507380485,-0.006021575544192455
1772702139301351000,0.369350830078125,-0.0033095629394054413,-0.0062229661680758,-0.007692974788555875
1772702139311400700,0.379400634765625,-0.0015139116942882538,-0.0038365459555760022,-0.011348734516859985
1772702139321449700,0.38944970703125,0.003124269500374794,-0.011866324083600192,0.005594290042831562
1772702139331499800,0.399499755859375,0.0165916538387537,-0.010373089851159601,0.018391821428784167
1772702139341548800,0.409548828125,0.005668108764290809,-0.015326565806381403,0.003960747723979875
1772702139351598800,0.419598876953125,-0.0007686462849378586,-0.003381203403510153,-0.0051245171066140755
1772702139361647600,0.429647705078125,-0.00017594108879566192,0.004062792459502816,0.004383996371040121
1772702139371697700,0.43969775390625,-0.001228080490231514,0.0030464915564283727,0.0023249540825374423
1772702139381746700,0.44974658203125,-0.005869184294342994,0.011981621026340872,-0.021208682647533714
1772702139391796700,0.459796630859375,0.004603694403171539,0.0009715301795862614,0.0061071532021043816
1772702139401845800,0.469845703125,0.0034083471387624737,-0.0008856967933475971,-0.00920355288144201
1772702139411895800,0.479895751953125,0.010888473761081695,0.013979772573616355,-0.01725633285914082
1772702139421944600,0.489944580078125,0.0020586860954761505,0.013267331721633671,-0.015149309543333947
1772702139431994600,0.49999462890625,-0.00602057546377182,0.0033440314645878967,-0.013250654581468551
1772702139442044000,0.5100439453125,0.005649404063820839,-0.0059890478143468494,-0.005925225330516696
1772702139452093700,0.52009375,-0.0049742812812328336,-0.010642590974923222,-0.008075790960527957
1772702139462142700,0.530142822265625,0.0010118073910474776,-0.013834646748192608,-0.0007910544795682653
1772702139472192800,0.54019287109375,0.008199673068523407,-0.015372907432448119,0.022790143152698873
1772702139482241500,0.550241455078125,0.0011696283012628554,-0.018956939931679517,0.03187956813517958
1772702139492291600,0.56029150390625,0.0001233341187238693,0.004055960859917104,0.0035956909709842872
1772702139502341600,0.570341552734375,0.009551672199368475,0.01055818236079067,-0.002308176477672532
1772702139512390700,0.580390625,0.006408697998523712,-0.00284698692895472,-0.007953666984778828
1772702139522440700,0.590440673828125,-0.006012976679205894,-0.012164795573521405,-0.01243929253281094
1772702139532489700,0.60048974609375,0.004015665382146835,0.0013271934831514953,0.0007205876258201897
1772702139542539300,0.610539306640625,0.009548165068030356,0.015882245194073767,-0.012958704163879155
1772702139552588300,0.62058837890625,-0.0034708909809589386,0.028458398047462103,0.00736771575640887
1772702139562638300,0.630638427734375,-0.0019756839871406555,0.024907628497015683,0.009685573377879337
1772702139572687000,0.64068701171875,-0.0016787468671798705,0.008387669921293854,0.0008690470526460558
1772702139582737200,0.650737060546875,0.006550736817717551,-0.019696341855823994,-0.009883694332442246
1772702139592786400,0.660786376953125,0.005205167427659034,-0.010458649242762475,-0.0016332843072363174
1772702139602836500,0.67083642578125,0.0010153145223855973,-0.013280757458787412,-0.0005350384584628046
1772702139612885200,0.68088525390625,0.0029588498055934903,-0.013954656398668884,0.000885641994420439
1772702139622935300,0.690935302734375,0.014479191729426383,0.0052641493395902215,-0.0022357300126808694
1772702139632984000,0.700984130859375,0.004604863446950912,0.008312266597524284,0.01074861319924239
1772702139643034000,0.7110341796875,0.009245382729172706,0.025621475854795423,0.01921202208773466
1772702139653083400,0.72108349609375,0.0040080665975809095,0.021136695123557,0.002138336336100474
1772702139663133200,0.73113330078125,0.013730419188737868,0.026093568612262606,-0.022107866826828103
1772702139673182200,0.74118212890625,0.00414835185110569,0.016433522401284425,-0.011392308797105215
1772702139683232300,0.751232177734375,-0.014704817178845404,0.015019034227170049,-0.023006005259929223
1772702139693281300,0.76128125,-0.011709727016091347,-0.027462774606235325,-0.019112623683735726
1772702139703331300,0.771331298828125,-0.006321604236960411,-0.05127420536438003,0.012407057063910178
1772702139713380400,0.78138037109375,0.004305588239431381,-0.08584162434404716,0.02834802844158839
1772702139723430100,0.79143017578125,-0.004817629414796829,-0.04696419667815789,0.052012616341258394
1772702139733479200,0.801479248046875,0.017327566897869108,0.0035079350557178255,0.047137301922473125
1772702139743529200,0.811529296875,0.004608955100178718,0.0355019050844945,0.017465577995916828
1772702139753578200,0.821578125,-0.0030184710383415222,0.07858542440440505,-0.00930492176353
1772702139763628300,0.831628173828125,0.0055085342884063715,0.08647462501795962,-0.043534053266118276
1772702139773677300,0.84167724609375,-0.007060439905524254,0.044105227050464595,-0.06299091924368404
1772702139783727000,0.85172705078125,-0.006463058534264564,-0.012908764074929057,-0.030913791842944918
1772702139793777200,0.861777099609375,-0.0036240357160568235,-0.03980977661255747,-0.022086977019137703
1772702139803826400,0.871826416015625,0.003109656453132629,-0.053138519665226334,0.02403648538540583
1772702139813876200,0.881876220703125,0.0010147300004959105,-0.03245937731713056,0.024256868404126726
1772702139823925200,0.89192529296875,0.003559738308191299,-0.015904329161718488,0.005592034153663553
1772702139833975300,0.901975341796875,0.003257540491223335,0.01038333725053817,-0.004254515639320016
1772702139844024000,0.912024169921875,0.013134206861257552,0.00737169781178236,-0.004698281918023713
1772702139854074000,0.92207421875,0.002658405554294586,-0.01758322215937078,-0.0044423343955771995
1772702139864123400,0.932123291015625,0.012085574591159819,-0.012194460059422998,0.012041603018692695
1772702139874173200,0.942173095703125,0.0011637830823659895,-0.014481493284367025,0.0339551231670659
1772702139884222200,0.95222216796875,-0.0012327566653490066,-0.009006696868781,0.018718158173165283
1772702139894272300,0.962272216796875,0.002506429862976074,-0.008026380594540387,0.02232141139609739
1772702139904321300,0.9723212890625,0.004756839138269424,0.013125256369821727,-0.013160953304287976
1772702139914371300,0.982371337890625,0.011195932275056839,0.013680442567169665,-0.026069854376534928
1772702139924420400,0.99242041015625,0.0025169512569904328,0.008318550207838416,-0.016575844348268583
1772702139934470100,1.00247021484375,0.0031119945406913757,-0.0032364246379584074,0.01003075638662558
1772702139944519200,1.012519287109375,0.0013186813831329346,-0.011723481546808034,0.03379499613533262
1772702139954569200,1.0225693359375,0.008950783696770668,0.009482753415312618,0.028089354672515762
1772702139964618200,1.0326181640625,-0.0009264671951532363,0.013719295006524771,-0.0008102660701144487
1772702139974668300,1.042668212890625,0.006401683735847472,0.009991342258267104,-0.012182865519751795
1772702139984717300,1.05271728515625,-0.006316343539953232,0.00991159155294299,-0.011145973919797688
1772702139994767000,1.06276708984375,0.0020639467924833295,0.00016488997181877493,-0.006479064387571998
1772702140004816400,1.07281640625,0.011640168911218643,0.005561323921568691,-0.0031379281329689548
1772702140014866400,1.082866455078125,-0.010209843847155571,0.019716818388272075,-0.010322113149170763
1772702140024916200,1.092916259765625,0.011035773277282715,0.009970737861655652,-0.010787036380334757
1772702140034965200,1.10296533203125,0.01462707576751709,0.018058255792595446,0.002708975830907002
1772702140045015300,1.113015380859375,0.007744915038347244,0.019816241908445952,0.016145590571686623
1772702140055064300,1.123064208984375,0.007147533667087555,0.02651236027991399,-0.001662663382058963
1772702140065114400,1.1331142578125,0.002210077264904976,0.007038684731442481,-0.01668004450825974
1772702140075163400,1.143163330078125,-0.007810381489992141,-0.03130180477984249,-0.008057227823953144
1772702140085213200,1.153213134765625,0.003266308319568634,-0.023023787511792033,0.008849076887965202
1772702140095262200,1.16326220703125,0.007308277186751365,-0.013657390485145152,0.014922136024222708
1772702140105312300,1.173312255859375,0.004617722928524017,-0.01125440273033455,0.03193810252253897
1772702140115361300,1.183361328125,0.009707155022025108,0.006186232620570808,0.008147709985845722
1772702140125411300,1.193411376953125,0.002976385462284088,0.019081881485600024,-0.005550368702714331
1772702140135460400,1.20346044921875,0.0145002345174551,0.027685367848351596,-0.01338751490204595
1772702140145510100,1.21351025390625,0.006571195083856582,0.008628803467098623,-0.024802469355799255
1772702140155559400,1.223559326171875,-0.002109539499878883,0.020248203584924337,-0.011228797931619919
1772702140165609500,1.233609375,-0.003909282398223877,0.015026651278045028,-0.014625931839912664
1772702140175658200,1.243658203125,-0.001664133819937706,-0.003540120292268693,-0.005339712493564002
1772702140185708300,1.253708251953125,0.0038736265629529952,-0.016191091947536915,0.0018262975451303644
1772702140195757000,1.263757080078125,0.00027998598515987394,-0.01909901528349146,0.021281620019581168
1772702140205807000,1.27380712890625,0.00042903906702995297,0.00202027204753831,0.004595269068120978
1772702140215856400,1.2838564453125,0.014341244563460349,-0.0030332667486742135,0.0001022867641178891
1772702140225906400,1.293906494140625,0.002521627432107925,-0.011655914469622075,-0.011016214626864529
1772702140235955200,1.303955078125,0.004019757035374641,0.02029310217257589,-0.012535062791174277
1772702140246005200,1.314005126953125,-0.00016658873856067658,0.02121175138745457,-0.0040413843452930445
1772702140256054300,1.32405419921875,-0.0037578912287950512,0.017634495688881723,0.018294092108774928
1772702140266104300,1.334104248046875,-0.0010673369705677031,0.0009858874985016882,0.01823147063476499
1772702140276153300,1.3441533203125,-0.014983634120225905,0.012801376444008201,0.003386149006686173
1772702140286203100,1.354203125,-0.0003214870393276214,0.008400858196429908,-0.009902613662043586
1772702140296252200,1.364252197265625,-0.01139583876132965,0.0009389430842362343,0.0055061825011158355
1772702140306302200,1.37430224609375,0.0019207389295101164,0.008641626416053623,-0.0015849950359668582
1772702140316351200,1.384351318359375,0.019427754047513006,-0.000877568285819143,0.004994798912876285
1772702140326401300,1.3944013671875,0.004614800319075584,0.01807928031431511,0.004256479267543182
1772702140336451300,1.404451416015625,0.0035667525708675384,0.01687911074431613,0.009235514355706981
1772702140346500000,1.4145,0.00805529616177082,0.014200593983754515,-0.006263590439409017
1772702140356550100,1.424550048828125,0.020476970839500425,0.013387195241637527,-0.014644305463531054
1772702140366599400,1.434599365234375,0.005067804783582687,0.0036371509259566664,-0.021177945015975273
1772702140376649200,1.444649169921875,-0.0010655834048986434,0.0019125373567454515,0.00500028337216936
1772702140386698200,1.4546982421875,0.0035737668335437773,0.008013831640221177,0.002950301172956824
1772702140396748300,1.464748291015625,0.0007329904496669769,-0.004800258154887706,0.00223275488759391
1772702140406797000,1.474797119140625,0.014349427869915962,-0.018251951733790336,0.019473164091818033
1772702140416847000,1.48484716796875,0.0013315408647060394,-0.012422606259491294,0.009337965516606345
1772702140426896400,1.494896484375,0.0008797054439783096,-0.006000098931323737,-0.009301711459713988
1772702140436946200,1.5049462890625,0.01853577364385128,0.00496372335460037,-0.003885138904233463
1772702140446995200,1.5149951171875,0.01045651208460331,0.0035698395770974454,-0.026257951694005167
1772702140457045200,1.525045166015625,-0.002263268756866455,0.0026996691464446485,-0.003515337477461435
1772702140467094300,1.53509423828125,0.013600655329227447,0.001683313444443047,0.006913510282081551
1772702140477144300,1.545144287109375,0.012852467310428618,0.0031871056035161016,0.003121552386903204
1772702140487193300,1.555193359375,0.0068657941162586205,-0.0024640702922828495,-0.006454797595995478
1772702140497243100,1.5652431640625,0.0017787001103162765,-0.002470426967833191,0.0010288224579300732
1772702140507292200,1.575292236328125,0.00985737714767456,-0.008519059482309967,0.0046416243939194825
1772702140517342200,1.58534228515625,0.003571428745985031,-0.011782445192430168,-0.01043115388106089
1772702140527391200,1.59539111328125,0.0071627312362194055,-0.0020597455414012073,0.014733435918553731
1772702140537441300,1.605441162109375,-0.00032090251743793486,-0.00722722957348451,0.0171831306256121
1772702140547490300,1.615490234375,0.0020750527083873748,-0.006841846985090523,0.006433311849972233
1772702140557540400,1.625540283203125,-0.0001695113480091095,-0.010133034017588943,-0.0008462872315663844
1772702140567589400,1.63558935546875,0.02766366747319698,-0.008939348987303674,-0.0048193692807341
1772702140577639400,1.645639404296875,0.0046223991036415096,-0.0038110096555203196,0.0007944246135884895
1772702140587688400,1.6556884765625,0.006269581788778305,0.01829781843582168,-0.01092195133899804
1772702140597738200,1.66573828125,0.003573182311654091,0.0016411365368403494,-0.0010893022072035819
1772702140607787300,1.675787353515625,0.009112111738324165,-0.016102317685540764,0.01076929979424458
1772702140617837300,1.68583740234375,0.011506313398480414,-0.004443791133724153,0.011174556126887909
1772702140627887400,1.695887451171875,0.008515899410843849,-0.007367350430227816,0.0131213656459935
1772702140637936400,1.705936279296875,0.00746317548751831,0.0077774838673882185,0.010688804736826568
1772702140647986400,1.715986328125,0.015991934379935263,0.013806388768088072,0.0065704050659900525
1772702140658035200,1.72603515625,0.012103110247850418,0.015086637836974113,-0.0012432141272816807
1772702140668085200,1.736085205078125,-0.016775778234004973,0.010864124771114439,0.008046774928597733
1772702140678134500,1.746134521484375,0.01868599576950073,0.007527034503966569,-0.004910253301425836
1772702140688184300,1.756184326171875,-0.0037602293163537977,-0.002020399911701679,0.004122852083668112
1772702140698233300,1.7662333984375,0.0001315174251794815,-0.005508479489479213,-0.0031891194640891623
1772702140708283400,1.776283447265625,0.0025298107385635375,-0.002855955686699599,-0.008196663694106973
1772702140718332400,1.78633251953125,0.008220131334662437,0.005650189515110105,-0.015411864903080276
1772702140728382500,1.796382568359375,-0.0006084872871637344,0.0037163719083182513,0.0022070359244477002
1772702140738431500,1.806431396484375,-0.0006073182433843612,0.00549103516433388,0.00953604993855115
1772702140748481300,1.816481201171875,0.006578793868422508,-0.00018237082958221434,-0.017737312175962142
1772702140758530300,1.8265302734375,0.002385433831810951,-0.004983231772668659,0.005039446338778362
1772702140768580400,1.836580322265625,0.016599837145209313,-0.01286488840058446,0.004916144186095334
1772702140778629400,1.84662939453125,0.01660217523276806,-0.0008422229778021574,0.0023120169691508634
1772702140788679400,1.856679443359375,0.005376432341337204,0.014116495896875858,0.0003469662571675144
1772702140798728200,1.866728271484375,-0.004953823015093803,0.016430837253853678,-0.0017738755214377305
1772702140808778200,1.8767783203125,-0.0037602293163537977,0.011770261564292013,-0.004933709525538142
1772702140818827300,1.8868271484375,0.014046061009168625,-0.0058537309968844055,-0.0010950058622052892
1772702140828877600,1.896877685546875,0.0020779753178358077,-0.00027549247313290835,0.004995908591151237
1772702140838926300,1.90692626953125,0.008964812222123145,0.0010874481768347322,-0.00944488963993499
1772702140848976400,1.916976318359375,0.0011813187390565872,-0.012006390141416341,-0.01208123177618254
1772702140859025200,1.927025146484375,0.01135492222905159,-0.0060847998064011335,-0.004129877762787509
1772702140869075200,1.9370751953125,0.008809329399466515,-0.004230769437551498,-0.003998846678086556
1772702140879124500,1.94712451171875,-0.0013666121780872343,0.01314728553853929,0.011819918525451794
1772702140889174500,1.957174560546875,0.005666939720511436,-0.00046306920079514384,-0.006743288831308018
1772702140899223300,1.967223388671875,0.0017757775008678436,-0.011483955436199903,0.002532148826122284
1772702140909273300,1.9772734375,0.008659107273817062,-0.002363587326183915,0.012701414067717269
1772702140919323400,1.987323486328125,0.007464344531297683,-0.012621782093401998,0.011183858244773
1772702140929372400,1.997372314453125,0.002977554506063461,0.0031552674268372355,0.0022579304280458015
1772702140939422500,2.00742236328125,-0.0030050270348787305,0.015802220494113863,0.005817065948038362
1772702140949471200,2.01747119140625,0.012406477108597755,-0.00032583442088216543,-0.003495771977177355
1772702140959521300,2.027521240234375,0.011808511215448379,0.0008601056943647563,-0.0009478159438585862
1772702140969570300,2.0375703125,0.012407646152377128,0.003961103917006403,0.0025067358236527068
1772702140979620400,2.047620361328125,0.010760463467240333,-0.005979768529348075,0.01563325256879907
1772702140989669400,2.05766943359375,0.00013210194706916807,-0.007334014416206628,0.005242442114569712
1772702140999719400,2.067719482421875,0.009707739543914795,0.0021595526540651917,0.003592021726153325
1772702141009768200,2.077768310546875,-0.0018166940331459044,0.020787991283740846,-0.004124518884369172
1772702141019818200,2.087818359375,0.0037198973059654234,-0.0043407691506668926,-0.004263959321100265
1772702141029867500,2.097867431640625,-0.0007692308068275451,-0.003460241722781211,0.005311162252514622
1772702141039917300,2.107917236328125,0.003269230929017067,-0.009533826015423982,0.005540840539254714
1772702141049966300,2.11796630859375,-0.004062427133321762,-0.010610825863480567,-0.0012177828585030511
1772702141060016400,2.128016357421875,0.00835807850062847,0.010730488454084842,-0.003385966343595646
1772702141070065200,2.138065185546875,0.012995675173401831,-0.003890815159771591,-0.00868022312708199
1772702141080115200,2.148115234375,0.001477086815237999,0.0017945917991921306,-0.0004965810280409641
1772702141090164500,2.15816455078125,0.009707155022025108,0.019440978855267167,-0.0014145566727733238
1772702141100214300,2.16821435546875,0.008660276317596435,0.007615370374545454,-0.008627351295528933
1772702141110263300,2.17826318359375,-0.0045054947257041926,-0.0036988362516276537,0.00892039540837286
1772702141120313300,2.188313232421875,0.00043254619836807247,-0.0034051505346782505,0.0005182973862159996
1772702141130362400,2.1983623046875,-0.010037994411587715,-0.00670815586913377,-0.00475316761014983
1772702141140412400,2.208412353515625,0.0065723641276359554,0.0058162302643992,-0.015139226540736853
1772702141150461400,2.21846142578125,0.008220131334662437,0.003053122226614505,-0.0021736793608288277
1772702141160511200,2.22851123046875,0.012409984239935874,-0.009827237737737596,0.021157911441521716
1772702141170560300,2.238560302734375,-0.00419803621172905,-0.0011076141820289193,0.014425155420671217
1772702141180610300,2.2486103515625,0.010018705189228058,-0.012342124901805073,0.005680771883041598
1772702141190659300,2.258659423828125,0.011214052453637123,-0.015127810097578912,0.0053029606797499575
1772702141200709400,2.26870947265625,0.005681552767753601,-0.010355280199833214,-0.0006072885606321506
1772702141210758400,2.27875830078125,0.002241056925058365,-0.013222926324326544,-0.002292926392902154
1772702141220808200,2.28880810546875,0.0001461304724216461,0.006386175639461726,0.009257500141940544
1772702141230858200,2.298858154296875,0.02004851629436016,0.006199621825106441,-0.0037516076184809207
1772702141240907500,2.308907470703125,0.013765490502119063,0.0097077760765329,0.005763737458758987
1772702141250957300,2.318957275390625,0.0023918635725975034,-0.007598821098543703,0.0111660622931784
1772702141261006300,2.32900634765625,0.013019056048989295,-0.01908853042209521,0.026905722962075378
1772702141271056400,2.339056396484375,0.005087678527832031,-0.02191142408940941,0.012315145563334226
1772702141281105200,2.349105224609375,0.010918868899345397,-0.007208141280524432,-0.004233093825378455
1772702141291155500,2.359155517578125,0.011814940956234931,-0.019376955442037432,-0.003386117040645331
1772702141301204500,2.36920458984375,0.006274842485785484,-0.00036623949650675056,0.007470908986113499
1772702141311254300,2.379254150390625,0.009113865303993225,0.0008616217980161308,0.021916371975874063
1772702141321303300,2.38930322265625,0.0001344400346279144,-0.0053532158625312146,0.01439305694908835
1772702141331353300,2.399353271484375,-0.0022562544941902157,-0.0018911292425356804,0.018166049848892724
1772702141341402400,2.40940234375,0.014054244315624236,0.005428436523210257,-0.012409077774349134
1772702141351452400,2.419452392578125,0.019440029007196425,0.018655929424799978,-0.007753395172324962
1772702141361501400,2.42950146484375,-0.0028618191719055174,0.01333847899539396,-0.019631106016330887
1772702141371551200,2.43955126953125,0.020931144347786902,-0.0035988282095640897,-0.011573553965392057
1772702141381600300,2.449600341796875,0.024371640190482137,-0.007750431463681161,0.015147485195717307
1772702141391650600,2.459650634765625,-0.004356441643834114,-0.005598660257272422,0.02158147289912449
1772702141401699300,2.46969921875,0.005370002600550651,-0.00980073332330212,0.01507339247962227
1772702141411749400,2.479749267578125,-0.007798106530308723,-0.0021758827343583108,0.022111634253070223
1772702141421798100,2.489798095703125,-0.0007663081973791122,-0.009128021693509071,-0.011376058631914201
1772702141431848200,2.49984814453125,0.0071639002799987785,0.009483191806729883,-0.018027904036815742
1772702141441897500,2.5098974609375,-0.007500584888458252,0.003909191066678613,-0.0009007253991207108
1772702141451947500,2.519947509765625,-0.009894786548614502,-0.002087638195324689,0.005162047521851491
1772702141461996300,2.529996337890625,-0.0006190086811780929,0.016389920721575617,-0.008060504343139473
1772702141472046300,2.54004638671875,0.007756605476140975,0.003258472072985023,0.0012365788905182853
1772702141482095400,2.550095458984375,0.008802899658679962,-0.00613554361294955,-0.0006676655619172379
1772702141492145400,2.5601455078125,-0.004666238245368003,-0.007431538240239024,0.030348171016550622
1772702141502194400,2.5701943359375,-0.00017535656690597534,0.009425214541796595,0.019250070809491444
1772702141512244200,2.580244140625,0.011497545570135116,0.011756963691301643,0.014603783940186257
1772702141522294300,2.590294189453125,0.009252396991848945,0.0025069047870114446,0.004543009157921187
1772702141532343300,2.60034326171875,0.007008417457342147,-0.012490045472513884,-0.01220481249007862
1772702141542393300,2.610393310546875,0.004912906482815742,-0.024112989254295825,-0.001537952440290246
1772702141552442000,2.620442138671875,0.00610942279100418,-0.015562383856251834,-0.010977574533352161
1772702141562492200,2.6304921875,0.0017699322819709777,0.0023823102929629385,-0.00662424044534564
1772702141572541000,2.640541015625,-0.004966097974777222,0.009372735435888171,0.006941172323853243
1772702141582591000,2.650591064453125,-0.002121229937672615,0.006873904357478022,0.01210616300475085
1772702141592640300,2.66064013671875,0.0016197101563215255,0.018563410569448022,-0.011234547252394258
1772702141602690000,2.67068994140625,0.003113748106360435,0.019566048273351042,-0.0077755019728559995
1772702141612739000,2.680739013671875,0.011341478225588798,0.01364780067289248,0.016234463015093934
1772702141622789000,2.6907890625,-0.005565817433595657,-0.01902995036896318,0.00010173420826904475
1772702141632838000,2.700837890625,0.011641337954998016,-0.023755554118752478,0.012062972316995728
1772702141642888200,2.71088818359375,0.009996493357419967,-0.008795520069822668,0.0039135407315217885
1772702141652937200,2.720937255859375,0.010446575212478637,0.014657927563507108,0.00783679000630509
1772702141662987000,2.730987060546875,0.012393033105134963,0.02807882414534688,0.008433954465144779
1772702141673036000,2.7410361328125,0.005362403815984726,0.007050612631253898,0.009598913441156036
1772702141683086000,2.751086181640625,-0.0030167174726724623,-0.021665285574924198,0.011532982209697364
1772702141693135000,2.761135009765625,-0.007806289836764335,-0.010406188403163104,-0.002954360860143788
1772702141703185200,2.77118505859375,0.014039046746492385,-0.007633801080379634,-0.011813144008081871
1772702141713234200,2.781234130859375,0.0013180968612432479,-0.016966222772188483,-0.0047804848753381516
1772702141723284000,2.791283935546875,0.018226561564207076,-0.012893329043779522,0.0001766626080032438
1772702141733333000,2.8013330078125,0.009998246923089028,-0.016437102597858754,0.010410161325382068
1772702141743383300,2.81138330078125,0.0019160627543926237,0.00027969372421503063,-0.0017541090917540714
1772702141753432000,2.82143212890625,-0.002273205628991127,-0.0036295521413907406,0.011271678092121146
1772702141763482000,2.831482177734375,0.004909399351477623,0.013585055901296435,0.0026401278287987223
1772702141773531100,2.84153125,0.0014729951620101928,-0.010134038664586842,-0.002987502794631291
1772702141783581000,2.851580810546875,-0.001073182189464569,0.005981741290725767,-0.008945475050702225
1772702141793630200,2.861630126953125,0.0004208557605743408,0.020295878651551903,-0.010884222277649678
1772702141803680300,2.87168017578125,-0.0075111062824726104,0.00460890030125156,-0.011478434444288723
1772702141813729000,2.88172900390625,-0.000029810616374015806,0.007751691839005798,0.0065045093560824165
1772702141823779000,2.891779052734375,-0.00182429281771183,-0.015779570270888506,-0.0031266555369948035
1772702141833829000,2.9018291015625,0.002364975565671921,-0.0009393814756534993,0.013618076821486465
1772702141843878100,2.911878173828125,0.010447159734368324,0.003802552354428917,0.03168370306978468
1772702141853928200,2.92192822265625,0.0032639702320098876,0.011754461206961423,0.019062012307927943
1772702141863977200,2.931977294921875,-0.003471475502848625,0.01826837314562872,-0.005580444180569611
1772702141874027000,2.942027099609375,-0.007961772659420966,-0.016243004797864703,-0.01428618534139823
1772702141884076000,2.952075927734375,0.008346972584724426,-0.01840918812211603,-0.01211923026558943
1772702141894126000,2.9621259765625,0.008499532797932625,-0.004790796206798404,-0.018863450678659136
1772702141904175000,2.972175048828125,0.0028162264645099637,-0.020926358574815094,0.0002926879198173992
1772702141914225200,2.98222509765625,-0.00032908582389354704,-0.0014946955371648073,0.01745574615506921
1772702141924274200,2.992274169921875,-0.011400514936447143,-0.005611574537772685,0.006687014899693895
1772702141934324000,3.002323974609375,0.006105915659666061,0.007609506889339536,-0.003418343376391567
1772702141944373200,3.012373291015625,0.0017664251506328583,0.011656973915547132,-0.002620594294555485
1772702141954423300,3.02242333984375,0.008793547308444977,-0.01786540010161698,-0.010670255299983545
1772702141964472000,3.03247216796875,0.015822423031926155,-0.014710972924996166,-0.0012521029699244536
1772702141974522000,3.042522216796875,0.02016308258473873,-0.020761285939905793,0.02515452049674932
1772702141984571000,3.05257080078125,-0.0058732759475708,-0.00835705558732152,0.02459020571145229
1772702141994621000,3.062620849609375,-0.012606383594870567,0.011528452165052295,0.010137886005931067
1772702142004670200,3.072670166015625,0.005200491252541542,0.029927502485644072,-0.007022238203429151
1772702142014720300,3.08272021484375,0.003551555001735687,0.010767514262534677,-0.018814693333220202
1772702142024769000,3.09276904296875,-0.004080547311902046,0.004498206468392163,-0.016408860600774643
1772702142034819000,3.102819091796875,0.0023521160840988156,0.0008042107886634766,-0.0011822754369932226
1772702142044868000,3.1128681640625,0.009383914417028426,-0.019629998621344565,-0.012443242622143589
1772702142054918100,3.122918212890625,-0.0058820437759161,-0.025484606401063502,0.01121976980837062
1772702142064967200,3.13296728515625,0.004592003965377807,-0.021871840997692196,0.01609150403058156
1772702142075017000,3.143016845703125,0.02015606832206249,-0.012682115712203085,-0.004264968534675426
1772702142085066000,3.15306591796875,-0.001693359914422035,0.018095062405336648,-0.005272556408331729
1772702142095116000,3.163115966796875,-0.0018406594306230545,0.019985753256455064,-0.007350801154226064
1772702142105165000,3.1731650390625,0.009532967498898506,-0.0010129764348268508,-0.017399353492446243
1772702142115215000,3.183215087890625,0.0016015899777412413,-0.0035306766104884445,0.007539318596804514
1772702142125264100,3.19326416015625,0.01581833137869835,-0.0017753939083777366,-0.0027134990256861783
1772702142135314000,3.20331396484375,0.007437456524372101,-0.01802481018071994,0.01632343592320103
1772702142145364000,3.213364013671875,0.004590834921598434,-0.005915891246590763,0.025883503774867856
1772702142155413200,3.223413330078125,0.018058803781867028,-0.004435973153449594,-0.002704799695999827
1772702142165463300,3.23346337890625,0.005040332254767418,0.003048720046132803,-0.003882759717479348
1772702142175512000,3.243511962890625,0.0002513444125652313,0.013398502086941152,-0.004918790517619345
1772702142185562000,3.25356201171875,0.002641454419493675,0.014314594018552451,-0.000046862215874716635
1772702142195611000,3.26361083984375,0.0005476970106363296,0.005742178647499531,0.005770662673178595
1772702142205661200,3.2736611328125,0.009974866047501564,-0.0035134697473607956,-0.007312478437833487
1772702142215710200,3.283710205078125,0.014014496827125548,0.016425503491610288,0.0013281638808199203
1772702142225760000,3.293760009765625,-0.0004991816937923431,-0.0008481960608623921,0.011398546741646714
1772702142235809000,3.30380908203125,0.011771101814508437,-0.008167926223389804,0.011298314937297254
1772702142245859000,3.313859130859375,0.005340191984176635,-0.01099659204436466,0.013662461669195908
1772702142255908000,3.323908203125,-0.00035071313381195067,-0.017662845000531523,-0.000999379451025743
1772702142265958100,3.333958251953125,-0.0034942718565464017,-0.0026453816759400067,-0.012377477059687952
1772702142276007200,3.344007080078125,-0.010380524238944052,-0.006891257351078092,0.00994324706653133
1772702142286057000,3.354056884765625,0.007426350608468055,0.017521007110737265,0.024171930067031642
1772702142296106000,3.36410595703125,0.00997194343805313,0.008816818586178124,0.0120885656992672
1772702142306156000,3.374156005859375,0.0029401451051235196,0.021626981124840676,0.018775884276349096
1772702142316205000,3.384205078125,0.00010053776502609253,0.023131558735202996,-0.01739283698669169
1772702142326255000,3.394255126953125,0.0020458266139030457,0.012513024489302187,-0.013129382272379007
1772702142336304000,3.40430419921875,-0.0037894554108381267,-0.00006069894498214125,-0.00797753420084482
1772702142346354000,3.41435400390625,-0.0009457564175128936,0.0003385477719828486,-0.01592974901405396
1772702142356403200,3.4244033203125,0.004592588487267494,0.0016089878329075872,-0.009996666887355968
1772702142366453200,3.434453369140625,0.008185060021281242,-0.008773034243378788,0.022606610129203182
1772702142376502000,3.444501953125,-0.0028869536131620405,-0.004151858982443809,0.011001893840567208
1772702142386552000,3.454552001953125,0.01851122372448444,0.006770224787294864,0.0067361170217162
1772702142396601000,3.46460107421875,-0.01321136375069618,-0.008511004040017724,-0.0030016112350858748
1772702142406651100,3.474651123046875,-0.0028881226569414135,-0.0066570832690224045,-0.015326195913623086
1772702142416700200,3.4847001953125,0.0011515081226825714,0.02495512090055272,-0.00028615086446516215
1772702142426750200,3.494750244140625,-0.0031856442987918854,0.02367028698809445,0.004561887388327158
1772702142436799000,3.504799072265625,0.014773790761828422,0.005010960029810667,0.019088550971692892
1772702142446849000,3.51484912109375,-0.010816577568650246,0.001944612995442003,0.011503479837288614
1772702142456899000,3.524899169921875,-0.0036368951976299283,0.012395115464366972,0.010794509584025945
1772702142466948000,3.534947998046875,-0.006029927814006805,0.015315350292623042,-0.006286325144313741
1772702142476998100,3.544998046875,0.01102817449271679,0.0023324980681762096,0.006610682277451269
1772702142487047200,3.555047119140625,0.0007043488770723343,-0.00231832341235131,0.016337386816740036
1772702142497097000,3.565096923828125,-0.006176642808318138,-0.0022465916167013346,-0.004274206720478833
1772702142507146200,3.575146240234375,0.011933014377951622,0.00731134592667222,-0.015880977968883235
1772702142517196300,3.5851962890625,0.02136076793670654,0.010739913869556039,-0.018671453504206147
1772702142527245000,3.5952451171875,0.005794950014352798,-0.015454576100222765,0.011850459794187918
1772702142537295000,3.605295166015625,-0.0015390461355447769,-0.017651191095355897,0.016704489396349526
1772702142547344100,3.61534423828125,0.002054594442248344,-0.004303670276980847,0.008090664302674121
1772702142557394200,3.625394287109375,-0.0015372925698757171,-0.011753730554599315,0.020345882672583682
1772702142567443500,3.635443359375,0.00010930559337139129,-0.0013018946451134978,0.0049907300925347954
1772702142577493200,3.6454931640625,0.016715572479367256,0.005306362779811024,0.0041147829416440795
1772702142587542300,3.655542236328125,0.020308044013381002,0.017691924964543432,0.010638181944575626
1772702142597592300,3.66559228515625,0.007289572486281395,0.017397070203814653,-0.010942274891107807
1772702142607641300,3.675641357421875,0.0008522329151630402,0.023643380714859812,-0.011396094489656387
1772702142617691400,3.68569140625,0.003397241222858429,0.0036952925876714286,-0.004593552035070024
1772702142627740200,3.695740234375,0.010878536888957024,-0.020230887123942373,-0.02277761703126598
1772702142637790200,3.705790283203125,0.012673603612184524,-0.018996504757087678,-0.01638227855452569
1772702142647839200,3.715839111328125,0.012523381486535071,0.002116261501610279,0.0028258550926693713
1772702142657889300,3.72588916015625,-0.003187397864460945,0.005689352481719106,0.028502216639590915
1772702142667938300,3.735938232421875,0.008631050223112106,0.012370638610236346,0.02166773097704863
1772702142677988400,3.74598828125,0.016561258700489998,0.015102913118340075,0.022826518223888707
1772702142688037000,3.756037109375,0.00518880081474781,0.006268047418817878,0.003174988190748263
1772702142698087200,3.766087158203125,-0.009925766208767891,0.003924187706410885,-0.017299989337776787
1772702142708136400,3.776136474609375,0.010125672695040703,-0.0068305036071687935,-0.026981840955186635
1772702142718186500,3.7861865234375,0.006083119305968284,-0.0052519839777611195,-0.006012403573759366
1772702142728235300,3.7962353515625,0.010271803167462349,0.0006465908078476787,-0.014624625798815395
1772702142738285300,3.806285400390625,0.006379471904039383,0.004145301377493888,0.0036649431151803582
1772702142748334000,3.816333984375,-0.005890811604261398,0.0022223339582793412,0.020837556913355364
1772702142758384000,3.826384033203125,-0.0039437691897153855,0.0015281228827312588,0.014943827266222797
1772702142768434200,3.83643408203125,-0.0063385553717613214,-0.006063282094337046,0.005612159059662372
1772702142778483200,3.846483154296875,-0.00005085340440273285,-0.0016954970725812017,-0.010184197949245572
1772702142788533200,3.856533203125,-0.002446224108338356,-0.010920896459650248,-0.0037819068586220964
1772702142798582300,3.866582275390625,0.0086269585698843,0.00012382730906829238,-0.015979125130712053
1772702142808632300,3.87663232421875,0.0005447744011878967,0.0006638159372843802,0.002905975690751802
1772702142818681300,3.886681396484375,0.0020417349606752394,-0.0019157704934477805,0.005106214264943264
1772702142828731400,3.8967314453125,0.005631283885240554,0.00023753508292138575,0.01579748952006921
1772702142838780200,3.9067802734375,-0.0076876318931579585,0.010924239194206892,0.008378938625566662
1772702142848830200,3.916830322265625,0.0053261634588241576,-0.0068434544202871615,-0.0027678161789430303
1772702142858879200,3.926879150390625,0.009364040672779083,0.014924688740912824,-0.00014080584333278238
1772702142868929000,3.936928955078125,0.002629179459810257,0.004338558927271515,-0.004862505169562064
1772702142878978300,3.946978271484375,0.01280278294980526,0.0015697335347533226,0.0017096899947151541
1772702142889028400,3.9570283203125,0.005916530567407608,0.009176737939752638,0.019402596773370168
1772702142899077000,3.9670771484375,0.011605682119727134,0.008020261381007731,0.004358110727823805
1772702142909127200,3.977127197265625,0.011009469792246818,0.0109209147259593,0.012203862642007879
1772702142919176400,3.987176513671875,0.01085866314470768,0.022024930933862923,0.024359397196839563
1772702142929226200,3.997226318359375,0.005919453176856041,0.02133104865187779,0.011459156638372223
1772702142939275300,4.007275146484375,0.0039782559812068935,0.0036567506755702194,-0.012947940741269849
1772702142949325300,4.0173251953125,0.0014344167172908782,-0.016100691984035072,-0.018734970027359667
1772702142959374000,4.0273740234375,0.00023380875587463378,-0.017760295759327707,-0.018780364088644273
1772702142969424100,4.037424072265625,0.008015548673272132,-0.012397362220380454,-0.008990010595461354
1772702142979473400,4.047473388671875,0.0023269816428422925,-0.0008020370978862047,-0.01598856424591504
1772702142989523200,4.057523193359375,-0.00410392818748951,0.008166428386047482,0.0223589052787167
1772702142999572200,4.067572265625,0.01459784967303276,0.007678882331121712,0.007977164308086503
1772702143009622300,4.077622314453125,-0.005004676419496536,-0.0032339769525453446,-0.0028266656601335853
1772702143019671300,4.08767138671875,0.010113397735357283,-0.0045855559582822026,0.0058259228246402926
1772702143029721300,4.097721435546875,0.008467968615889549,-0.00041221579639241096,0.0074593144464422945
1772702143039770400,4.107770263671875,0.008020809370279311,-0.0009124934687279164,0.021465746698121072
1772702143049820200,4.117820068359375,-0.004697802427411079,0.010895926415175198,0.01604042001402704
1772702143059869200,4.127869140625,0.016256722795963286,0.020277612342499196,0.009933063599234446
1772702143069919200,4.137919189453125,0.0007002572238445281,-0.002843096205126494,0.015879244952811858
1772702143079968300,4.14796826171875,0.003094458884000778,-0.001939334032125771,0.013357690585940144
1772702143090018300,4.158018310546875,0.006384732601046562,0.01788985868943855,0.002731820133666042
1772702143100067300,4.1680673828125,0.0071329206198453895,0.011893687014561146,0.00004776868146145716
1772702143110117000,4.1781171875,0.008777765217423439,0.007471632788609713,0.007899128352524713
1772702143120167200,4.188167236328125,0.0068324763685464855,-0.0006216390296816826,0.02196618191737216
1772702143130216400,4.198216552734375,0.0020464111357927322,0.0227501582021825,0.013685648465249686
1772702143140266200,4.208266357421875,0.0002513444125652313,0.008191727224085479,0.00007225466874660924
1772702143150315300,4.218315185546875,0.009227847072482108,0.006312525881361216,0.0002995903013506904
1772702143160365300,4.228365234375,-0.006480009669065475,-0.007181015811581164,-0.005695987718482501
1772702143170414300,4.238414306640625,0.008633972832560538,-0.012728749599214642,-0.01977878684173338
1772702143180464400,4.24846435546875,-0.0036368951976299283,0.0022432854147627947,-0.005814412766648456
1772702143190513400,4.258513427734375,0.015815408769249917,-0.00863674931153655,0.013622823778551537
1772702143200563200,4.268563232421875,0.0051876317709684365,-0.005227945515047758,0.024048121024272402
1772702143210612200,4.2786123046875,0.0016010054558515548,0.021227113353367893,0.012522913412365597
1772702143220662300,4.288662353515625,0.0027998598515987395,0.023847013528179375,0.001447792222094722
1772702143230711300,4.298711181640625,0.011926000115275382,0.027806071618571876,0.009723647215811069
1772702143240761300,4.30876123046875,0.009085808253288268,0.02561833404963836,0.024173286340478807
1772702143250810000,4.31881005859375,0.00369651643037796,0.0035458193806931376,0.005727736846904735
1772702143260860200,4.328860107421875,0.002501169165968895,-0.009998356520943342,-0.0012223311694571747
1772702143270909200,4.3389091796875,-0.004679097726941108,-0.014754373675305396,-0.004473181624989956
1772702143280959500,4.34895947265625,0.01566927829682827,-0.01916143126152456,-0.005953757305257022
1772702143291008300,4.35900830078125,0.0030997195810079574,-0.021123104989621787,-0.010254890848568175
1772702143301058300,4.369058349609375,-0.0006406359910964965,-0.02457087082332,-0.007311718102719168
1772702143311107000,4.379107177734375,0.0021954642176628112,0.005200016328506171,0.001256968657998368
1772702143321157000,4.3891572265625,0.0071294134885072705,0.003153915719967335,0.010372375181817915
1772702143331206400,4.399206298828125,0.005630114841461181,0.0016450455269776283,0.010631437109957915
1772702143341256200,4.409256103515625,0.004580313527584075,0.01611517716711387,0.018973528023588003
1772702143351305200,4.41930517578125,0.011463058778643608,0.008982439210359006,0.004091587012435775
1772702143361355300,4.429355224609375,-0.004549918389320374,0.018607103580702094,-0.010000664925749879
1772702143371404300,4.439404296875,-0.0011082535028457642,0.011119871364161371,-0.00821672923460137
1772702143381454300,4.449454345703125,-0.007088496956229209,0.006419310724083334,0.01699092795518227
1772702143391503400,4.45950341796875,0.012813304343819618,-0.0071957019240595395,0.023954560989304444
1772702143401553200,4.46955322265625,0.0026367782443761823,-0.002625124339200556,0.020630017393187153
1772702143411602200,4.479602294921875,0.0017383680999279022,0.01592924440726638,0.014118336227512917
1772702143421652200,4.48965234375,0.0024865561187267303,-0.01399034876655787,-0.0007156488725100644
1772702143431702300,4.499702392578125,-0.002146364378929138,-0.030963056078460064,0.0019771475751535037
1772702143441751300,4.509751220703125,-0.004988894328474998,-0.010338566527049987,-0.011792966586444527
1772702143451801300,4.51980126953125,0.009526537758111953,-0.0012433511245995758,0.01553166905757971
1772702143461850000,4.52985009765625,-0.010823007309436798,0.008757380016520619,0.021362389071634968
1772702143471900200,4.539900146484375,0.0014478607207536697,0.004857504767458886,0.01898230498508783
1772702143481949400,4.549949462890625,0.007581833431124687,0.002506502928212285,-0.0040022053956636225
1772702143491999200,4.559999267578125,-0.0007972878575325012,0.020589071178156882,-0.000001189593377057463
1772702143502048300,4.57004833984375,0.008028408154845238,0.0055964135012589395,-0.00019639250506879762
1772702143512098300,4.580098388671875,-0.0036398178070783612,-0.002329447594564408,0.010978423916723113
1772702143522147000,4.59014697265625,0.0024959084689617156,0.01235297508938238,0.01764094597926596
1772702143532197000,4.600197021484375,0.009380991807579994,-0.007602583958208561,0.007098379029426723
1772702143542246400,4.610246337890625,-0.0013964227944612503,-0.0014856719804927706,0.0015282530301832594
1772702143552296000,4.6202958984375,-0.006484101322293281,0.0024118103820830582,-0.003607413374818861
1772702143562345000,4.630344970703125,0.015659341424703595,0.009551891395077108,0.002197327381186187
1772702143572395000,4.64039501953125,0.0053308396339416505,0.004777114741317928,-0.0209320188473328
1772702143582444000,4.650444091796875,-0.0025976152777671814,0.005703070479817688,0.007000453346595168
1772702143592494000,4.660494140625,0.003236497703194618,-0.0018422668658196926,-0.0007269991002976894
1772702143602542800,4.67054296875,-0.007385434076189994,0.007166987286228686,0.013677547357184811
1772702143612593000,4.680593017578125,0.00009819967746734619,-0.0014171915878541767,0.018299551451893055
1772702143622642000,4.690641845703125,0.008628127613663673,0.013235968468990176,0.006707094139920082
1772702143632692000,4.70069189453125,0.005037994167208671,0.004050645363982767,0.0018405954985413699
1772702143642741000,4.710740966796875,0.005189385336637497,0.0005233480206690729,0.013713883612467906
1772702143652791000,4.720791015625,0.0038438159465789793,-0.005624415753036737,0.008154986826714594
1772702143662839800,4.73083984375,0.0014513678520917891,-0.006756853849068284,0.007033670629607513
1772702143672889900,4.740889892578125,-0.004984802675247192,-0.005764828870724886,-0.0014629372755880466
1772702143682939100,4.750939208984375,0.0048953708261251444,-0.001437777718156576,-0.00938289835358737
1772702143692989000,4.760989013671875,0.007289572486281395,0.017241934441030025,0.012753208187036215
1772702143703038000,4.771037841796875,0.007590601259469985,0.011200900711119174,0.008080830178537871
1772702143713088000,4.781087890625,0.0035486323922872542,0.01037254186188802,0.002846146678738296
1772702143723137000,4.791136962890625,0.007288403442502022,0.024010917119309305,-0.008905131623870693
1772702143733187000,4.80118701171875,0.00474222609102726,0.012726393245346844,0.01076257322593592
1772702143743236000,4.811236083984375,-0.0003442833930253982,0.018361312126088887,0.0015573261443292722
1772702143753286000,4.821285888671875,0.01805821925997734,0.004696468986850231,0.0009914381731650791
1772702143763336000,4.8313359375,0.004291559714078903,0.0018543591624125837,-0.0025236116099287753
1772702143773385000,4.841385009765625,0.012523966008424758,-0.006930201121978462,0.00027949964468134564
1772702143783434800,4.851434814453125,-0.0013946692287921906,0.01874525167606771,-0.0014427370210643856
1772702143793484000,4.861484130859375,0.0009989479094743728,0.010089907261915504,-0.0004594867209321819
1772702143803534000,4.8715341796875,0.0023439327776432037,0.005672255216445774,0.0013653358197421766
1772702143813582800,4.881582763671875,0.009675590839982031,0.014232432160433382,-0.00416737164540682
1772702143823633000,4.8916328125,0.007285480833053588,0.0046396790320053696,0.014374235800898168
1772702143833682200,4.90168212890625,-0.017405308309197426,0.009300126857403666,0.016317113496980163
1772702143843732000,4.91173193359375,-0.014711246919631956,0.005226173683069646,0.01315550766090164
1772702143853781000,4.921781005859375,-0.013809914165735244,-0.0009062646573409438,0.01164529717748519
1772702143863831000,4.9318310546875,-0.0112672439455986,-0.003842409440781921,0.01630775201359065
1772702143873879800,4.9418798828125,0.0011515081226825714,-0.001982405988872051,0.010675317350879777
1772702143883929900,4.951929931640625,0.0035457097828388213,-0.0007734320579096674,0.004049165792949497
1772702143893979100,4.961979248046875,0.00518880081474781,-0.010979293849691749,0.018665642534638753
1772702143904029000,4.97202880859375,-0.0015489830076694487,-0.01800373086007312,0.011067860332422423
1772702143914078000,4.982077880859375,0.01296177290380001,-0.016925306239910422,0.02365680873530218
1772702143924128000,4.9921279296875,0.0014390928924083708,0.0009033420478925108,0.012246251895453315
1772702143934177000,5.002177001953125,-0.008585457515716552,0.009541753593552856,-0.0003062209715368226
1772702143944227000,5.01222705078125,0.0021925416082143783,0.00621878318330273,0.0012029369158204643
1772702143954276000,5.022276123046875,0.002791676545143127,-0.006536543895583599,-0.003872201790846884
1772702143964326000,5.032325927734375,-0.011423895812034606,0.020414591394085437,0.01596474497891031
1772702143974375000,5.042375,0.0018920973569154739,-0.0019810908146202563,0.029358287762943653
1772702143984425000,5.052425048828125,0.022538579544425008,0.011323485911171882,0.036585398605419324
1772702143994474000,5.062473876953125,0.014606617501378058,0.010015161525271833,0.028720884908549484
1772702144004524000,5.07252392578125,0.0125134446144104,-0.014726060896273702,0.024180446733627466
1772702144014572800,5.08257275390625,0.003984685721993446,-0.006967299995664507,-0.0011181332927546464
1772702144024622800,5.092622802734375,0.01161503446996212,0.015249189721234142,0.01661837973218644
1772702144034672000,5.102672119140625,0.006677578067779541,0.009531122601684183,0.010346085396513808
1772702144044722200,5.11272216796875,0.0023404256463050842,0.0004894640173763036,0.01845781303681433
1772702144054771000,5.12277099609375,0.0036877486020326614,-0.007616667282488197,0.013092406696279067
1772702144064821000,5.132821044921875,0.004136076891422272,0.007984349817410112,0.013845796046580653
1772702144074869800,5.142869873046875,0.003540449085831642,0.01593667879505083,0.0022192903345334344
1772702144084919800,5.152919921875,0.006087210959196091,-0.0009417743621394038,-0.0005355384986731223
1772702144094970000,5.16297021484375,0.0002554360657930374,-0.010090162990242242,0.016884337191993837
1772702144105019000,5.173018798828125,0.003397241222858429,0.004148607579432428,-0.002538564867177047
1772702144115069000,5.18306884765625,0.01701250959932804,0.010804156478494404,0.004576281239860691
1772702144125118000,5.193117919921875,0.014021511089801788,0.016406031606160103,-0.013997584508231374
1772702144135168000,5.20316796875,0.0007072714865207671,0.009681837917678057,-0.0009749733788426965
1772702144145217000,5.213217041015625,0.0010065466940402984,0.006838065859116614,0.0022242953032138757
1772702144155267000,5.22326708984375,-0.003032499563694,-0.005196070805750787,0.01737476475717267
1772702144165315800,5.23331591796875,0.013878303226828575,-0.0012053937343880533,0.01373575295098126
1772702144175366000,5.243365966796875,-0.013057634493708609,-0.0010012677307240665,0.017802196389005983
1772702144185415000,5.253414794921875,0.010436053818464278,-0.002365834082197398,0.010779544910334516
1772702144195465000,5.26346484375,0.00011515081226825714,-0.01226758009456098,-0.0067453826069831845
1772702144205514000,5.273513916015625,-0.003325345030426979,-0.009486424943432211,-0.003283990106731653
1772702144215564000,5.28356396484375,0.008644494226574897,-0.0021064890262670814,0.003983094269817229
1772702144225612800,5.29361279296875,0.006401683735847472,0.006653484806139021,0.0005533664163085632
1772702144235662800,5.303662841796875,0.0019102175354957578,0.007629271035734564,0.0036003534463699906
1772702144245712100,5.313712158203125,0.011935352465510368,-0.016610943061113357,0.005996329221792984
1772702144255762000,5.323761962890625,0.013282675421237945,0.006113587509468198,0.01018780326199485
1772702144265811000,5.33381103515625,-0.0027291327029466627,-0.01810615005493164,0.01730746939133387
1772702144275861000,5.343861083984375,-0.00033610008656978605,-0.005038396026007831,0.011879032868123612
1772702144285910000,5.353909912109375,0.010886720195412635,-0.00022683102581650018,0.008637584995175711
1772702144295960000,5.3639599609375,0.01642038892507553,-0.008943531972076743,0.011259670277207624
1772702144306009000,5.374009033203125,0.0010047931283712387,0.00747667428990826,0.0060844047974678685
1772702144316059000,5.384058837890625,-0.0013894085317850112,0.0037346747499890625,0.0031590691024088297
1772702144326108000,5.39410791015625,0.0010024550408124922,0.0039747488498687745,0.0026757585478946566
1772702144336158000,5.404157958984375,-0.00019756839871406555,-0.004549132938031107,0.0038209762103972025
1772702144346207000,5.41420703125,0.00429039067029953,0.0062754270076751705,0.005709173710329923
1772702144356257000,5.424257080078125,0.0038385552495718,0.00385786273824051,0.005696565390506293
1772702144366306000,5.43430615234375,-0.007983984491229057,0.006299447204079479,-0.012744164080766495
1772702144376355800,5.44435595703125,-0.0007967033356428146,-0.000920092253293842,0.020263944576750507
1772702144386404900,5.45440478515625,0.0004015665382146835,-0.00903897343687713,0.009171678172145039
1772702144396455200,5.464455078125,-0.00034720600247383117,0.0005777633553370833,-0.00678406379969092
1772702144406504000,5.47450390625,0.0026461305946111676,0.0008694580445997417,-0.012000252661574631
1772702144416554000,5.484553955078125,-0.013217208969593048,0.0010828815995715558,0.01415554469905328
1772702144426603000,5.49460302734375,0.0054845688909292215,0.014809063004609196,-0.001027297221124172
1772702144436652800,5.50465283203125,0.01206336275935173,0.008132745312154292,-0.004055362638295628
1772702144446702800,5.514702880859375,-0.006640168666839599,-0.001214673019386828,0.02236512952352641
1772702144456752000,5.524752197265625,0.001291208854317665,0.004577628380153328,0.008621996983687858
1772702144466802000,5.534802001953125,0.0002466682374477386,0.01974061938896775,0.019122827700630295
1772702144476851000,5.544850830078125,0.011468319475650787,0.00528000449584797,0.018708568360912614
1772702144486901000,5.55490087890625,-0.0073906947731971736,0.019259174281265584,-0.0019252415746916084
1772702144496950000,5.564949951171875,0.007270867785811424,0.02027439747210592,0.0064139016133151015
1772702144507000000,5.575,-0.0012596446722745894,0.024183661604020742,0.005391492913151159
1772702144517049000,5.585049072265625,-0.004105097231268883,0.0022900654322467744,0.004678061113902367
1772702144527099000,5.595098876953125,-0.00634907676577568,0.019175003129150717,-0.008197245932708028
1772702144537148000,5.60514794921875,-0.0017068039178848265,-0.0029591420665383335,0.02506303368785884
1772702144547198200,5.6151982421875,0.008770166432857513,0.0062095586972311136,0.02334296842960175
1772702144557247200,5.625247314453125,0.0171492877215147,0.005350274986773729,0.028789146105479446
1772702144567297300,5.63529736328125,0.00861994430720806,0.013869462333247064,0.0040081122633535415
1772702144577346300,5.64534619140625,0.016399346137046814,0.0061636006636545055,-0.017865975490352137
1772702144587396000,5.65539599609375,0.012209493231773375,0.010223762774653733,-0.009084641492797528
1772702144597445400,5.6654453125,0.015200491741299628,0.00820672386381775,0.011901114552479702
1772702144607495400,5.675495361328125,0.00218026664853096,-0.013858648678287863,-0.005405418690515216
1772702144617544200,5.685544189453125,0.00397884050309658,0.004129409688618034,0.0012348572908900677
1772702144627594200,5.69559423828125,-0.003502455163002014,0.008879417227301746,0.015205859752872492
1772702144637644300,5.705644287109375,0.007722118684649467,-0.0030255218336358663,0.002002389330975711
1772702144647693000,5.715693115234375,0.016852935123443602,-0.001970861681550741,0.010306659851712174
1772702144657743000,5.7257431640625,-0.006941197440028191,-0.006094992406852543,0.01850388751811115
1772702144667792400,5.73579248046875,-0.004398527219891548,-0.004539031669124961,0.024671805880567988
1772702144677842400,5.745842529296875,0.011756488767266272,0.0015391192007809876,-0.002585041207273025
1772702144687891200,5.75589111328125,-0.001110007068514824,0.01477910625776276,0.0022952096815337425
1772702144697941200,5.765941162109375,-0.004699555993080139,0.019959778564982114,-0.0012971454047597945
1772702144707990300,5.775990234375,-0.016370120042562483,0.008100066885259003,-0.0013522662756149657
1772702144718040300,5.786040283203125,0.0012906243324279784,0.0009116349522024392,-0.000011475808662362397
1772702144728090400,5.79609033203125,0.012660744130611419,-0.000027892653923481702,0.009082013427582568
1772702144738139100,5.80613916015625,0.012504676786065101,-0.007866568656638264,-0.005697079130448401
1772702144748189200,5.816189208984375,0.011755904245376586,0.011455660923477261,-0.007730733532656449
1772702144758238200,5.82623828125,0.009664484924077987,0.003383705887850374,0.007612536813353653
1772702144768288300,5.836288330078125,0.014750994408130646,0.00521188942939043,0.008174326281424145
1772702144778337300,5.846337158203125,0.009212649503350257,0.005892766099330037,0.012781199022370855
1772702144788387300,5.85638720703125,0.007113046875596046,0.011329367662686853,0.013959720732853747
1772702144798436000,5.86643603515625,0.0027747254103422164,0.017572993026301265,-0.010058317963697482
1772702144808486100,5.876486083984375,0.0044195700079202645,-0.008103519217669964,0.011720106846210545
1772702144818535400,5.886535400390625,0.005766892963647842,0.012209328834991902,-0.009749562541779595
1772702144828585200,5.896585205078125,-0.0033598318219184875,0.005559862616844475,-0.0025781456756056283
1772702144838634200,5.90663427734375,0.009358195453882216,0.0036783597191795705,0.01088501457880484
1772702144848684300,5.916684326171875,0.005913607957959175,-0.006810648129228502,0.014311150819296016
1772702144858733000,5.926733154296875,-0.004708323821425438,-0.0018395086531527338,0.018414547000534364
1772702144868783400,5.936783447265625,-0.0036579379856586454,0.01149244926990941,0.018659112329152412
1772702144878832400,5.946832275390625,0.006218728384375572,-0.006188479376584291,-0.009512696462427266
1772702144888882200,5.956882080078125,-0.0009632920742034911,0.0002028108294121921,-0.02203839320363477
1772702144898931200,5.96693115234375,-0.00395487510561943,-0.006694931061379611,0.014742185480589977
1772702144908981200,5.976981201171875,0.008466799572110176,-0.00229611158054322,0.016092271215561775
1772702144919030300,5.9870302734375,-0.0036561844199895855,0.002902827035728842,0.005386638641520403
1772702144929080300,5.997080322265625,0.006370119553804397,0.0004742116493172943,-0.011010800949519034
1772702144939129300,6.00712939453125,0.013256956458091735,-0.00012028364511206746,0.009539189460419583
1772702144949179100,6.01717919921875,-0.005748188263177871,0.008933759496733546,0.005115680779609829
1772702144959228200,6.027228271484375,0.007121814703941345,0.006788070971239357,0.010131581846019252
1772702144969278200,6.0372783203125,-0.005150222370028495,0.008966310059465467,0.005502951647702138
1772702144979327200,6.0473271484375,-0.0050040918976068495,-0.0028807613343931732,-0.00988592738872394
1772702144989377300,6.057377197265625,0.01908873135149479,0.011590685479994863,0.003768346407439094
1772702144999426300,6.06742626953125,-0.001558335357904434,0.006826740747503936,0.00216639338680543
1772702145009476000,6.07747607421875,-0.0033522330373525616,0.002133084772247821,-0.013580480190878734
1772702145019525400,6.087525390625,0.007270867785811424,0.009825210177432745,0.011841637166915461
1772702145029575400,6.097575439453125,0.0009825812965631483,0.0018724245420657097,0.002245169127883855
1772702145039625200,6.107625244140625,-0.0027589433193206787,0.005349544334411621,-0.007730923045612871
1772702145049674200,6.11767431640625,-0.005901917520165443,0.0059651372157968575,0.005565595954598393
1772702145059724300,6.127724365234375,0.007714519900083541,0.01827418183190748,-0.004123836181068327
1772702145069773300,6.137773193359375,0.013102642679214477,-0.00002975581744685769,-0.002028927994740661
1772702145079823400,6.1478232421875,0.013252864804863929,0.00040001390194520354,0.009153315964969806
1772702145089872400,6.157872314453125,0.008314239358901977,0.00922253157654777,0.013989638663793448
1772702145099922200,6.167922119140625,-0.0015624270111322402,0.007452416631486267,0.013205470582738053
1772702145109971200,6.17797119140625,-0.00784486828148365,0.0031842743256129324,0.004170170957269147
1772702145120021200,6.188021240234375,0.0062158057749271385,0.008792049471102655,-0.003960154068935662
1772702145130070300,6.1980703125,0.012501754176616668,0.00528553918749094,-0.0061264036085573025
1772702145140120300,6.208120361328125,0.011456629037857055,-0.006763301856163889,-0.010918231861817184
1772702145150169300,6.21816943359375,0.012505845829844474,0.016215861062612382,0.012772387811541556
1772702145160219100,6.22821923828125,0.014604279413819312,-0.005476897041127086,0.0017640939129400066
1772702145170268400,6.238268310546875,0.010863339319825171,0.006788344965875148,0.015305009278410579
1772702145180318500,6.248318359375,-0.004398527219891548,-0.015882647052872925,0.02043359977194341
1772702145190367200,6.2583671875,0.004285129973292351,-0.007990395965706557,0.011660926288168411
1772702145200417300,6.268417236328125,0.011173135921359061,0.00016008593253791331,0.02057328680384671
1772702145210466000,6.278466064453125,-0.004539396995306015,0.01575892934165895,0.01565639826565748
1772702145220516000,6.28851611328125,0.011020575708150864,0.006164605310652405,0.02074774375503184
1772702145230565400,6.2985654296875,0.017908581656217573,0.02422251404337585,0.008184206071333027
1772702145240615400,6.308615478515625,-0.0063327101528644555,-0.0026922164923511445,-0.009070813896844629
1772702145250664200,6.318664306640625,-0.001246200668811798,-0.007301427320856601,-0.007301283473672811
1772702145260714200,6.32871435546875,0.003539280042052269,0.01317044721841812,0.010241316697653382
1772702145270763300,6.33876318359375,0.0069791913628578185,-0.007692545530293136,0.009890596713975536
1772702145280813300,6.348813232421875,0.007277882048487663,0.013404913561418652,0.013400682627584318
1772702145290862300,6.3588623046875,0.004134907847642899,-0.009457545908819883,0.008360985127056483
1772702145300912000,6.368912109375,0.0008434650868177413,0.00009587985621765256,0.003938965150434523
1772702145310961200,6.378961181640625,0.0038368016839027404,0.0028920499133877455,0.005924117935530375
1772702145321011200,6.38901123046875,0.004133738803863525,-0.00915880042426288,0.0008448259268421679
1772702145331061200,6.399061279296875,0.010268296036124228,0.0025200382632203397,0.0008652590768062509
1772702145341110300,6.4091103515625,0.011018822142481803,0.003044427463505417,0.0007851795779191888
1772702145351160300,6.419160400390625,0.0024888942062854767,-0.0021517529400996863,-0.0007348992789629847
1772702145361209000,6.429208984375,0.015955694022774695,-0.002002645059302449,0.01589882871940499
1772702145371259100,6.439259033203125,0.025084172374010085,-0.0021758827343583108,0.02039218319945503
1772702145381308400,6.449308349609375,0.017754267877340316,0.00012801029384136198,0.002363011937448755
1772702145391358500,6.4593583984375,0.0123696522295475,-0.012229787101130932,-0.016024962149991186
1772702145401407200,6.4694072265625,0.0051852936834096905,-0.005126549233496189,-0.0030824054033146238
1772702145411457300,6.479457275390625,0.008331775015592575,0.011029891525767744,0.011431289100623689
1772702145421506000,6.489506103515625,-0.0015460603982210158,0.0018171689571812749,0.00773773637888953
1772702145431556400,6.499556396484375,-0.0009445873737335205,0.011299538780003785,-0.008633705687790642
1772702145441605400,6.50960546875,0.011622048732638359,0.0034542503734119236,0.003799202770006377
1772702145451655200,6.5196552734375,-0.0004980126500129699,0.007481679258588701,0.01836341731820721
1772702145461704200,6.5297041015625,-0.014114450070261955,0.011488412415608763,0.0009447928697103634
1772702145471754200,6.539754150390625,0.0004021510601043701,-0.005625493465270847,0.007785158000478986
1772702145481803300,6.54980322265625,0.0033966567009687423,0.010016677628923207,0.0032909975195419975
1772702145491853300,6.559853271484375,0.011479425391554832,0.00019075506543740628,-0.010751855469099245
1772702145501902300,6.56990234375,0.007738485297560691,0.0034585794886574147,0.020857631587004287
1772702145511952100,6.5799521484375,-0.004228431349992752,-0.004769899549242109,0.019577062857709823
1772702145522001200,6.590001220703125,-0.000037409400939941404,0.001743208671826869,0.0190270026433398
1772702145532051200,6.60005126953125,0.007739654341340064,-0.0006338226578198373,0.016365487249928992
1772702145542100200,6.610100341796875,0.0065437225550413125,-0.00052265390092507,0.0064805827745120035
1772702145552150500,6.620150634765625,-0.003481412374973297,-0.005771112481039017,0.00550039436443476
1772702145562199600,6.630199462890625,0.017163316246867177,0.009405779188964515,-0.004110921900568064
1772702145572249300,6.640249267578125,0.010582184290885924,0.015416691775247455,0.020125858130177948
1772702145582298600,6.650298583984375,-0.00722527507841587,0.008715148309990763,0.023150902756489813
1772702145592348700,6.6603486328125,0.0010024550408124922,0.0029916195640340448,0.010952654721227008
1772702145602397400,6.6703974609375,0.002945405802130699,-0.011134941069129854,0.011229005710885394
1772702145612447500,6.680447509765625,0.0065343702048063276,-0.010758508972171694,0.0057199873652891255
1772702145622496500,6.69049658203125,-0.005737666869163513,-0.009195241710823029,0.006453288342209998
1772702145632546300,6.70054638671875,-0.004540566039085388,0.0022078305088914928,0.015616771791456267
1772702145642596600,6.7105966796875,-0.0036398178070783612,0.010917498926166445,-0.0003569305287557654
1772702145652645600,6.720645751953125,-0.00528816953599453,0.007730265458486974,-0.00033414787478977813
1772702145662695400,6.7306953125,0.010120411998033523,0.019424374780338257,0.02218923410050338
1772702145672744400,6.740744384765625,0.008474398356676101,0.007891447369568049,0.01852380007826723
1772702145682794500,6.75079443359375,0.0053320086777210235,-0.003769946992769837,0.012853828150453045
1772702145692843500,6.760843505859375,0.007126490879058837,-0.004600315135996788,0.015754972402460408
1772702145702893600,6.7708935546875,-0.001703296786546707,-0.012655994890257715,0.010404124310240149
1772702145712942600,6.780942626953125,0.010565233156085013,0.004338631992507726,0.0013397858199547044
1772702145722992400,6.790992431640625,0.005328501546382904,-0.00242485252674669,-0.003591030778887216
1772702145733041400,6.80104150390625,0.009367547804117202,0.004967650611046702,0.0051935797378537246
1772702145743091500,6.811091552734375,-0.0008083937734365463,0.00021179785346612333,0.013738853656942955
1772702145753140500,6.821140380859375,-0.010538929671049118,0.016238255557511,0.007219354510994162
1772702145763190500,6.8311904296875,-0.005298690930008888,0.012388174266926944,0.0020577408139826727
1772702145773239600,6.841239501953125,-0.007993921363353728,0.00916804317664355,0.0067103409763542
1772702145783289300,6.851289306640625,-0.000962123030424118,-0.004241893619764596,0.009659664901776704
1772702145793338600,6.861338623046875,0.0030786767929792402,-0.005302928713709115,0.0061439826477318995
1772702145803388700,6.871388671875,0.011606266641616821,-0.0043101365503855045,0.00460220113240648
1772702145813437400,6.8814375,0.01504617796242237,-0.006335596229694783,0.006607259627792518
1772702145823487500,6.891487548828125,-0.004556932651996613,0.010134732784330844,0.0008687091259285807
1772702145833536500,6.90153662109375,0.004422492617368698,0.00038516339268535374,0.006578860083792824
1772702145843586600,6.911586669921875,0.010561726024746894,-0.0032325521804392335,-0.007518547520122956
1772702145853635600,6.921635498046875,0.01909516109228134,-0.004140113745722919,0.010131533896957989
1772702145863685600,6.931685546875,0.0036859950363636014,-0.012221019272785632,0.023165127644664607
1772702145873734400,6.941734375,-0.0021498715102672575,-0.005462283993884921,0.01381828926843591
1772702145883784400,6.951784423828125,-0.01067863040268421,0.011845573556516319,-0.005610713737958576
1772702145893833500,6.96183349609375,0.005336684852838516,0.012277206439431755,-0.003973191647022031
1772702145903883500,6.971883544921875,0.01057633907198906,0.008141111281700432,-0.006971859723061789
1772702145913932500,6.9819326171875,-0.011719663888216018,0.001817899609543383,0.004853506729064975
1772702145923982600,6.991982666015625,0.003992284506559371,0.009156718065030873,0.011815411313693038
1772702145934032400,7.002032470703125,0.008926818299293518,0.00944570934055373,0.004097840939997695
1772702145944081700,7.01208154296875,-0.011914894199371338,-0.0031692228869535026,-0.00274991747936001
1772702145954131700,7.022131591796875,-0.10219956075847149,0.0074613123239949345,-0.010360102505423128
1772702145964180500,7.032180419921875,0.07782616700232028,0.007351531806588173,0.023198358627408742
1772702145974230500,7.04223046875,0.13714812454283237,-0.003716810299735516,0.03316562132376712
1772702145984279300,7.052279296875,-0.01561784037053585,0.021435988597385585,0.011337347756454254
1772702145994329300,7.062329345703125,-0.10299801765978336,0.030772830735985187,-0.017624330487893893
1772702146004378600,7.072378662109375,0.06324936011731624,0.01026020406121388,0.014528175120439845
1772702146014428700,7.0824287109375,-0.04687924007475376,0.007093958582635968,-0.0007768273081048392
