time,seconds_elapsed,z,y,x
1772702138991072800,0.05907275390625,-0.00044528054422698915,0.018127338960766792,0.006588660646229982
1772702139001121800,0.069121826171875,-0.0012777847005054355,0.0032735576387494802,-0.0033816818613559008
1772702139011171800,0.079171875,-0.002570483135059476,0.007924501784145832,-0.0010468886466696858
1772702139021220600,0.089220703125,-0.0019371833186596632,0.012490491382777691,0.0004897553008049726
1772702139031270700,0.099270751953125,-0.0018226674292236567,0.0016820525052025914,-0.0017720673931762576
1772702139041319700,0.109319580078125,-0.0037092508282512426,0.01152509544044733,-0.0013187973527237773
1772702139051369700,0.11936962890625,-0.0032653016969561577,0.0041585261933505535,-0.0007560714147984982
1772702139061418800,0.129418701171875,-0.0015606123488396406,0.011123491451144218,0.003870371961966157
1772702139071468800,0.13946875,0.0004463458026293665,0.0057194046676158905,0.0002777676854748279
1772702139081517800,0.149517822265625,-0.0018082864116877317,0.00968405231833458,-0.001383245806209743
1772702139091567900,0.15956787109375,-0.0025603631511330605,0.004772118292748928,-0.0019244002178311348
1772702139101616600,0.16961669921875,-0.0016460998449474573,0.008794556371867657,-0.0006032059900462627
1772702139111666700,0.179666748046875,0.0002892192860599607,0.00689092930406332,-0.0002878876985050738
1772702139121716700,0.189716796875,0.0000679106087773107,0.005846437532454729,-0.0025979136116802692
1772702139131765500,0.199765625,0.00003062635369133204,0.005188902840018272,0.0013438310706987977
1772702139141815600,0.209815673828125,-0.0013973605819046497,0.0078544607385993,-0.002415753435343504
1772702139151864800,0.21986474609375,-0.001461010193452239,0.005284244194626808,0.0008604673203080893
1772702139161915000,0.229914794921875,-0.0010338390711694956,0.008914665319025517,0.001315335277467966
1772702139171963600,0.239963623046875,-0.0010010822443291545,0.007190801203250885,-0.0004748416249640286
1772702139182013700,0.250013671875,-0.0017355820164084435,0.00863476749509573,-0.0023547669406980276
1772702139192062700,0.260062744140625,-0.003638677066192031,0.007766310125589371,0.00023142869758885354
1772702139202112800,0.27011279296875,-0.0016647420125082135,0.00908777117729187,-0.0005813680472783744
1772702139212161800,0.280161865234375,-0.0016442356863990426,0.00794660672545433,0.0004093278548680246
1772702139222211800,0.2902119140625,-0.001371794263832271,0.007166566327214241,-0.0015070828376337886
1772702139232260600,0.300260498046875,-0.0008005462004803121,0.008510930463671684,-0.0028192223981022835
1772702139242310700,0.310310546875,-0.0014202637830749154,0.007994809187948704,0.00015472965606022626
1772702139252359700,0.320359619140625,0.0003787015157286078,0.009999104775488377,0.0011643340112641454
1772702139262409700,0.33040966796875,-0.0017278589075431228,0.005894374568015337,-0.00138058268930763
1772702139272458800,0.340458740234375,-0.0024082965683192015,0.008853944949805737,-0.0020993698853999376
1772702139282508500,0.350508544921875,-0.0021379857789725065,0.007897870615124702,0.00034940673504024744
1772702139292557800,0.360557861328125,-0.0014088122406974435,0.008490690030157566,0.00027297402266412973
1772702139302608000,0.37060791015625,-0.0019297265680506825,0.005507683381438255,0.001193362521007657
1772702139312656600,0.38065673828125,-0.0014703312190249562,0.006198773626238108,-0.002552906284108758
1772702139322706700,0.390706787109375,-0.0016138756182044744,0.006646451074630022,-0.00024101608141791075
1772702139332755700,0.400755615234375,0.00022556974727194756,0.008378837257623672,-0.000003728425554072601
1772702139342805500,0.410805419921875,-0.0033923345617949963,0.009193232282996178,-0.0011848403373733163
1772702139352854800,0.420854736328125,-0.0011289139511063695,0.00842384435236454,0.0002972087822854519
1772702139362904800,0.43090478515625,-0.001651159836910665,0.007573497481644154,0.0005797701887786388
1772702139372954600,0.44095458984375,0.00034647725988179445,0.010584733448922634,0.0015414375811815262
1772702139383003600,0.451003662109375,-0.0007177218794822693,0.007591607049107552,-0.005685316398739815
1772702139393053700,0.4610537109375,-0.00044288369826972485,0.009224923327565193,-0.0002460760879330337
1772702139403102700,0.471102783203125,-0.0010048106778413057,0.0049369679763913155,-0.001166198286227882
1772702139413152800,0.48115283203125,-0.0019044264918193221,0.008792959153652191,0.00046685212873853743
1772702139423201800,0.491201904296875,-0.00012170646368758753,0.00896553136408329,-0.0036677054595202208
1772702139433251600,0.50125146484375,-0.0027214842848479748,0.0068027786910533905,0.0015699334908276796
1772702139443300600,0.511300537109375,0.00041864890954457223,0.0060264673084020615,0.0018362496048212051
1772702139453350700,0.5213505859375,0.0012687299167737365,0.00830746442079544,-0.000008255799002654385
1772702139463399700,0.531399658203125,-0.0013259878614917397,0.006881608162075281,-0.0014106763992458582
1772702139473449700,0.54144970703125,0.0015667376574128866,0.007925833575427532,0.00017443705291952938
1772702139483498800,0.551498779296875,-0.001264468883164227,0.005021123681217432,0.0025872609112411737
1772702139493548500,0.561548583984375,0.0003552656853571534,0.006874417886137962,-0.0017473000334575772
1772702139503597800,0.571597900390625,-0.0003507383225951344,0.00660437298938632,0.00023968449386302382
1772702139513647900,0.58164794921875,-0.002704173792153597,0.007346063386648893,-0.00023196132679004222
1772702139523696600,0.591696533203125,-0.003438939806073904,0.00833569373935461,0.00044341632747091353
1772702139533746700,0.60174658203125,-0.0008290420519188046,0.0071164988912642,-0.0007265103631652892
1772702139543795500,0.61179541015625,0.00006844323797849938,0.008103466592729092,0.0014980280539020896
1772702139553845200,0.62184521484375,-0.000630636524874717,0.005519933998584747,-0.001395230065099895
1772702139563894300,0.631894287109375,-0.00047857005847617984,0.004795287735760212,-0.0035422705113887787
1772702139573944300,0.6419443359375,-0.0009025452891364694,0.007111971732228994,-0.00004820321555598639
1772702139583993000,0.6519931640625,-0.0007227819296531379,0.007847269997000694,-0.001116130850277841
1772702139594043100,0.662043212890625,-0.00034727618913166225,0.00504029868170619,-0.001820536912418902
1772702139604092400,0.672092529296875,-0.0014780544443055987,0.0060144830495119095,-0.00023542344570159912
1772702139614142200,0.68214208984375,-0.0005672533297911286,0.006976150441914797,-0.0012982910266146064
1772702139624191200,0.692191162109375,-0.0012687299167737365,0.0067870658822357655,-0.00023995080846361816
1772702139634241300,0.7022412109375,0.0014207963831722736,0.00612180819734931,-0.002871153876185417
1772702139644291000,0.712291015625,-0.0015701997326686978,0.007181213703006506,0.0008855010382831097
1772702139654340400,0.72234033203125,-0.0009326389990746975,0.00737242866307497,-0.0004958806093782187
1772702139664390400,0.732390380859375,-0.0012868394842371345,0.008931176736950874,-0.0010239854454994202
1772702139674439200,0.742439208984375,0.0014961638953536749,0.007619570009410381,-0.0022058964241296053
1772702139684489200,0.7524892578125,0.000006924218723725062,0.010705108754336834,-0.0008886968716979027
1772702139694538200,0.762538330078125,0.0017907095607370138,0.006457366514950991,0.0029936593491584063
1772702139704588300,0.77258837890625,-0.002374208066612482,0.007482417393475771,-0.003605920122936368
1772702139714637300,0.78263720703125,-0.002359827049076557,0.0060176788829267025,-0.0007440872141160071
1772702139724687400,0.792687255859375,-0.003245328087359667,0.005140699911862612,-0.0013512879377231002
1772702139734736100,0.802736083984375,-0.0018698053900152445,0.006967628374695778,-0.001058872789144516
1772702139744786200,0.8127861328125,-0.002519882982596755,0.006668555550277233,-0.0008511462947353721
1772702139754835500,0.82283544921875,-0.0017180051654577255,0.006072539836168289,-0.00017177389236167073
1772702139764885200,0.83288525390625,0.0011582087026908994,0.01005156897008419,-0.0006511429091915488
1772702139774934300,0.842934326171875,0.001996305538341403,0.0075572519563138485,0.0009771138429641724
1772702139784984300,0.852984375,0.000874582096002996,0.008625712245702744,0.000036751622246811166
1772702139795033300,0.863033447265625,0.000218645524000749,0.006176935974508524,0.0025928535033017397
1772702139805083400,0.87308349609375,0.0027140274178236723,0.006048304960131645,-0.00044794369023293257
1772702139815132400,0.88313232421875,-0.0022069616243243217,0.007360444404184818,-0.0034011229872703552
1772702139825182200,0.89318212890625,-0.0020359866321086884,0.00749120581895113,-0.001198688754811883
1772702139835231200,0.903231201171875,-0.0005962817813269794,0.00959696713835001,-0.0002772350562736392
1772702139845281300,0.91328125,-0.0011531487107276917,0.005869074258953333,-0.0013028184184804559
1772702139855330300,0.923330322265625,-0.000006125270374468528,0.005263471510261297,0.001731320982798934
1772702139865380400,0.93338037109375,-0.003213370218873024,0.0070680296048521996,-0.0009962886106222868
1772702139875429000,0.94342919921875,0.00007776429993100464,0.005651760380715132,-0.0012895026011392474
1772702139885479200,0.953479248046875,-0.000749679864384234,0.008370847441256046,0.0023334617726504803
1772702139895529200,0.963529296875,-0.0027257453184574842,0.006747651379555464,-0.002715891692787409
1772702139905578500,0.97357861328125,-0.0029414615128189325,0.006866960786283016,-0.0009872338268905878
1772702139915628300,0.983628173828125,-0.002359027974307537,0.00854235514998436,-0.0024383901618421078
1772702139925677300,0.99367724609375,-0.004529770463705063,0.00768748065456748,-0.0025007082149386406
1772702139935727400,1.003727294921875,-0.00227860058657825,0.008198807947337627,-0.0007310376968234777
1772702139945776000,1.013776123046875,-0.002186455298215151,0.007993478327989578,-0.0024474449455738068
1772702139955826200,1.023826171875,-0.0032168321777135134,0.007650729268789291,-0.0027230822015553713
1772702139965875200,1.033875244140625,-0.004618453793227673,0.006555637344717979,0.0007166566210798919
1772702139975925200,1.04392529296875,-0.002261556452140212,0.006727677304297686,0.0001597896625753492
1772702139985974300,1.053974365234375,-0.0019052254501730204,0.00818176381289959,0.0007896272582001984
1772702139996024300,1.0640244140625,-0.001621332485228777,0.008319182321429253,-0.0006735134520567954
1772702140006073300,1.0740732421875,-0.0015654060989618301,0.009852098301053047,-0.0025920546613633633
1772702140016123400,1.084123291015625,-0.0024951156228780746,0.008717325516045094,-0.0006905576447024941
1772702140026172200,1.094172119140625,-0.0006628608098253608,0.007455253042280674,-0.003090864745900035
1772702140036222200,1.10422216796875,-0.002013616031035781,0.007902930490672588,0.000009853695701167453
1772702140046271200,1.114271240234375,-0.00004500742215896025,0.00977699737995863,-0.003608583239838481
1772702140056321000,1.124321044921875,-0.0010213222121819854,0.007193730678409338,0.0018546254141256213
1772702140066370300,1.134370361328125,-0.0036613137926906347,0.007217432837933302,-0.0008167914929799736
1772702140076420400,1.14442041015625,-0.0013520868960767984,0.0052376389503479,-0.002124669961631298
1772702140086469000,1.15446923828125,-0.0013193299528211355,0.00845393817871809,-0.0005062668933533132
1772702140096519200,1.164519287109375,-0.0025531724095344543,0.010684335604310036,-0.0009249158320017159
1772702140106568400,1.174568359375,-0.0005779059720225632,0.006680273450911045,-0.0007097324123606086
1772702140116618200,1.1846181640625,-0.0024887239560484886,0.007818507961928844,0.0008548747282475233
1772702140126667300,1.194667236328125,-0.002778209513053298,0.005900233518332243,-0.0017102820565924048
1772702140136717300,1.20471728515625,-0.0013129384024068713,0.007388940546661615,-0.0023584954906255007
1772702140146766000,1.21476611328125,-0.0017334514996036887,0.010481935925781727,-0.0012458267156034708
1772702140156816100,1.224816162109375,0.0003587277897167951,0.005963882897049189,-0.002499110298231244
1772702140166865400,1.234865478515625,-0.0005581985460594296,0.005109008401632309,0.000624777574557811
1772702140176915200,1.244915283203125,0.0003073287953156978,0.010801514610648155,-0.0025241440162062645
1772702140186965200,1.25496533203125,0.0009547432418912649,0.00746004655957222,-0.0016040218761190772
1772702140197014300,1.26501416015625,-0.002977414056658745,0.007980694994330406,-0.0012069445801898837
1772702140207064000,1.27506396484375,0.0010942928493022919,0.007839014753699303,-0.0020636834669858217
1772702140217113300,1.28511328125,-0.0008194546680897474,0.007935686968266964,-0.0010194580536335707
1772702140227163400,1.295163330078125,-0.0014865765115246177,0.008445416577160358,-0.0008953547803685069
1772702140237212200,1.305212158203125,-0.004828577395528555,0.007420898415148258,-0.002966228872537613
1772702140247262200,1.31526220703125,-0.002642654813826084,0.009314672090113163,0.0015659386990591884
1772702140257311200,1.325311279296875,-0.00030866035376675427,0.004929244983941317,-0.00001704423084447626
1772702140267361300,1.335361328125,0.00021784658019896597,0.005908755585551262,-0.00239205127581954
1772702140277410300,1.345410400390625,-0.0011270497925579548,0.007098389323800802,-0.000892691605258733
1772702140287460400,1.35546044921875,-0.0015941682504490018,0.007054180838167667,0.0011057445080950856
1772702140297509000,1.365509033203125,-0.0007305050967261195,0.004471447318792343,-0.000016777914424892515
1772702140307559200,1.37555908203125,-0.0025592977181077003,0.00999218039214611,-0.0000852211524033919
1772702140317608400,1.3856083984375,-0.0017212009988725185,0.008643821813166142,-0.0001323590986430645
1772702140327658200,1.395658203125,0.001392300589941442,0.00774553744122386,-0.00034887410583905876
1772702140337707300,1.405707275390625,-0.0007757788407616317,0.006967362016439438,0.0013707289472222328
1772702140347757300,1.41575732421875,-0.0017217335989698768,0.007729825098067522,-0.0004543352697510272
1772702140357806000,1.42580615234375,0.001891909632831812,0.007436610758304596,-0.0012170645641162992
1772702140367856400,1.4358564453125,0.0012482235906645656,0.006238721311092377,-0.0007805725326761603
1772702140377905400,1.445905517578125,-0.0008948221220634878,0.006804909091442823,-0.0019209380261600018
1772702140387955200,1.455955078125,-0.0008799084462225437,0.006587328854948282,0.0010295780375599861
1772702140398004200,1.466004150390625,-0.0016101471846923232,0.0076179723255336285,-0.0024772724136710167
1772702140408054300,1.47605419921875,0.0007302387384697795,0.005844573490321636,-0.0020394488237798214
1772702140418103300,1.486103271484375,-0.002463423879817128,0.007105846423655748,0.0007022755453363061
1772702140428153300,1.4961533203125,0.0000023968450477696024,0.006918093655258417,-0.0003936151915695518
1772702140438202000,1.5062021484375,-0.0025534387677907944,0.009297627955675125,-0.0057564228773117065
1772702140448252200,1.516252197265625,-0.003951065707951784,0.008439823985099792,-0.0002146507758880034
1772702140458302200,1.52630224609375,-0.0014261227333918214,0.008564991876482964,-0.00045673211570829153
1772702140468351500,1.5363515625,0.0007669904152862728,0.006755907088518143,0.001166198286227882
1772702140478401300,1.5464013671875,-0.0004577973741106689,0.006121009588241577,0.0009190568816848099
1772702140488450300,1.5564501953125,0.0007890945998951793,0.007178284227848053,0.0019052254501730204
1772702140498500400,1.566500244140625,-0.002579271560534835,0.008717857301235199,0.00033342777169309556
1772702140508549000,1.576549072265625,0.000013315805517777335,0.00851332675665617,0.0013435647124424577
1772702140518599200,1.58659912109375,-0.0003211772127542645,0.00869202520698309,-0.000035420041967881843
1772702140528648400,1.5966484375,-0.00358860963024199,0.009914149530231953,-0.00013928332191426307
1772702140538698500,1.606698486328125,-0.00253399764187634,0.006060289219021797,-0.0016769925132393837
1772702140548747300,1.616747314453125,0.002016279147937894,0.006126069463789463,-0.0010290454374626279
1772702140558797300,1.62679736328125,-0.001318264752626419,0.004953479394316673,0.0021654162555933
1772702140568846300,1.636846435546875,-0.003644003299996257,0.0068240840919315815,0.0008402272942475975
1772702140578896400,1.646896484375,-0.001711081014946103,0.007552458439022303,0.0011411645682528615
1772702140588945400,1.6569453125,0.0015494271647185087,0.00872238539159298,-0.0007350324303843081
1772702140598995500,1.666995361328125,-0.002011485630646348,0.006431800313293934,-0.00015339808305725455
1772702140609044200,1.677044189453125,-0.002234924817457795,0.0060171461664140224,-0.00049082055920735
1772702140619094300,1.68709423828125,-0.0022594258189201355,0.008170577697455883,-0.00044607947347685695
1772702140629143300,1.697143310546875,-0.0014269216917455196,0.00583844818174839,-0.002409361768513918
1772702140639193300,1.707193359375,-0.00177925790194422,0.008022773079574108,-0.0010793792316690087
1772702140649242400,1.717242431640625,-0.0031041805632412434,0.008762066252529621,0.0006319681415334344
1772702140659292400,1.72729248046875,-0.0003304982965346426,0.008562329225242138,0.0006018743733875453
1772702140669341400,1.737341552734375,-0.003690076060593128,0.008386560715734959,0.0007688545738346875
1772702140679391500,1.7473916015625,-0.003625893732532859,0.004790494218468666,-0.0005283711361698806
1772702140689440300,1.757440185546875,-0.00010492854926269501,0.005877064075320959,-0.00003435477628954686
1772702140699490300,1.767490234375,-0.0014804512029513717,0.007642473094165325,-0.0022359900176525116
1772702140709539300,1.777539306640625,-0.002419215627014637,0.005952697712928057,-0.0028999161440879107
1772702140719589000,1.787589111328125,-0.001826662220992148,0.007078682072460651,-0.0006303702248260379
1772702140729638400,1.797638427734375,-0.0011092065833508968,0.004846420604735613,-0.0012607404496520758
1772702140739688400,1.8076884765625,-0.0006133259739726782,0.007837150245904922,0.00016458335448987782
1772702140749737200,1.8177373046875,-0.0020330571569502354,0.008077899925410748,-0.00042104575550183654
1772702140759787300,1.827787353515625,-0.00013022858183830976,0.005370530765503645,0.001014398061670363
1772702140769837300,1.83783740234375,-0.0008146609761752188,0.005824333056807518,0.0014016216155141592
1772702140779886300,1.84788623046875,-0.0008410262526012957,0.00618039770051837,-0.00007350324449362233
1772702140789936400,1.857936279296875,-0.0026075011119246483,0.008198807947337627,-0.0002593918761704117
1772702140799985400,1.8679853515625,-0.0011379687348380685,0.0068448567762970924,0.0008801747462712228
1772702140810035200,1.87803515625,-0.0007635282818228006,0.0091732582077384,-0.0008588694618083537
1772702140820084200,1.888084228515625,-0.0012868394842371345,0.005706355441361666,-0.00041971419705078006
1772702140830134300,1.89813427734375,-0.00011132013605674729,0.009768474847078323,-0.0014484933344647288
1772702140840183300,1.908183349609375,-0.0016000272007659078,0.008933573961257935,-0.0005494101205840707
1772702140850233300,1.9182333984375,-0.000026365294615970924,0.006865363102406263,-0.0008841694798320532
1772702140860282400,1.928282470703125,-0.002572879893705249,0.009979397058486938,-0.0014588796766474843
1772702140870332200,1.938332275390625,-0.0017504957504570484,0.00740358792245388,0.0013422331539914012
1772702140880381400,1.94838134765625,0.0006026733317412436,0.006377205718308687,0.0025361282750964165
1772702140890431500,1.958431396484375,-0.001826395862735808,0.008027033880352974,-0.0017925737192854285
1772702140900480300,1.968480224609375,0.000990429543890059,0.007795338984578848,0.00005885586142539978
1772702140910530300,1.9785302734375,-0.002013616031035781,0.008474444970488548,-0.001418665866367519
1772702140920579300,1.988579345703125,0.000037550569686573,0.009097890928387642,-0.003555053612217307
1772702140930629400,1.99862939453125,-0.0007472829893231392,0.008228102698922157,-0.0002913498319685459
1772702140940678400,2.008678466796875,-0.0021228056866675615,0.0059745353646576405,-0.00005512743518920615
1772702140950728400,2.018728515625,-0.002469016704708338,0.008510397747159004,-0.0006716492353007197
1772702140960777200,2.028777099609375,-0.0014849785948172212,0.007518103811889887,-0.0029707562644034624
1772702140970827300,2.0388271484375,-0.0015584818320348859,0.008380701765418053,0.0015017564874142408
1772702140980876500,2.04887646484375,-0.0025989788118749857,0.007382548879832029,0.0018485001055523753
1772702140990926300,2.05892626953125,-0.00027084347675554454,0.007691209204494953,-0.0007174555794335902
1772702141000975400,2.068975341796875,-0.0002695118892006576,0.00956687331199646,0.0005826996639370918
1772702141011025400,2.079025390625,-0.0004370247188489884,0.005883188918232918,0.0004753742541652173
1772702141021074200,2.08907421875,0.0008349010022357106,0.0084262415766716,0.0009414274245500565
1772702141031124500,2.09912451171875,0.0005331648280844092,0.006448844447731972,0.0002511360798962414
1772702141041173500,2.109173583984375,-0.0011030812747776508,0.00817803479731083,-0.0020040287636220455
1772702141051223300,2.119223388671875,-0.001996571896597743,0.007148989476263523,-0.002630670554935932
1772702141061273300,2.1292734375,-0.0014229270163923502,0.006295979022979736,-0.004538292996585369
1772702141071322400,2.139322265625,0.001210939371958375,0.0065652248449623585,-0.0032871398143470287
1772702141081372200,2.1493720703125,0.0007089334540069103,0.0070427292957901955,0.0017907095607370138
1772702141091421400,2.15942138671875,-0.0009888317435979843,0.007423827890306711,-0.0015667376574128866
1772702141101471500,2.169471435546875,0.0004087952256668359,0.008990298956632614,-0.0015646071406081319
1772702141111520300,2.179520263671875,-0.000821318884845823,0.005733785685151815,0.0002817624481394887
1772702141121570300,2.1895703125,-0.0015550197567790747,0.007284544408321381,0.0014194648247212172
1772702141131619300,2.199619384765625,-0.00044022052315995097,0.0076302229426801205,-0.000809068325906992
1772702141141669400,2.20966943359375,-0.0004844290087930858,0.009285377338528633,-0.0007291734800674021
1772702141151718400,2.219718505859375,0.00043542683124542236,0.006444317288696766,0.0007006776868365705
1772702141161768400,2.2297685546875,0.0035001926589757204,0.008569253608584404,-0.0023422501981258392
1772702141171817200,2.239817138671875,-0.00039228363311849535,0.006402771919965744,-0.0026104305870831013
1772702141181867300,2.2498671875,-0.0002247707889182493,0.007694937754422426,0.0008873652550391853
1772702141191916300,2.259916259765625,0.00032384038786403835,0.006253368686884642,-0.00010759170982055366
1772702141201966300,2.26996630859375,-0.0026812704745680094,0.009351956658065319,-0.002496180823072791
1772702141212015400,2.280015380859375,0.001002680161036551,0.00629091914743185,-0.00021917815320193768
1772702141222065400,2.2900654296875,-0.00020532972121145576,0.00635030772536993,-0.0009486179915256798
1772702141232114400,2.300114501953125,-0.0004396878939587623,0.004920190200209618,-0.002103897277265787
1772702141242164500,2.31016455078125,-0.0036458675749599934,0.007855792529881,0.00012090751260984689
1772702141252213200,2.320213134765625,0.00011211907985853031,0.005567338317632675,-0.0004396878939587623
1772702141262263300,2.33026318359375,-0.002142246812582016,0.007641674485057592,-0.0002948119363281876
1772702141272312300,2.340312255859375,-0.0016048208344727755,0.00860067829489708,0.0006061354652047157
1772702141282362400,2.3503623046875,0.0022248048335313797,0.008685367181897163,-0.0003371562052052468
1772702141292411400,2.360411376953125,-0.0017062872648239136,0.006303968373686075,-0.0012306467397138476
1772702141302461400,2.37046142578125,0.0025952504947781563,0.00762889115139842,0.000036751622246811166
1772702141312510200,2.38051025390625,0.002229332225397229,0.007800398860126734,0.0010269149206578732
1772702141322560300,2.390560302734375,-0.0024868599139153957,0.008141549304127693,-0.00038775624125264585
1772702141332609500,2.400609619140625,-0.0022860574536025524,0.007745271548628807,0.00054142065346241
1772702141342659300,2.410659423828125,-0.002267149044200778,0.0070520504377782345,-0.0017057546647265553
1772702141352708400,2.420708251953125,-0.002663427498191595,0.006854976527392864,0.001416269107721746
1772702141362758400,2.43075830078125,-0.0013907026732340455,0.0092334458604455,-0.0002790992730297148
1772702141372808400,2.440808349609375,0.001490304945036769,0.00908377580344677,-0.002954244613647461
1772702141382857200,2.450857177734375,-0.0016556872287765145,0.007093862164765596,0.0010801780736073852
1772702141392907300,2.4609072265625,0.001160072977654636,0.005976133514195681,-0.0011265170760452747
1772702141402956300,2.470956298828125,-0.004625644534826279,0.009967146441340446,-0.0018010957865044475
1772702141413006300,2.48100634765625,-0.0012594088912010193,0.0060030315071344376,0.00033928672201000154
1772702141423055400,2.491055419921875,-0.0011203918838873506,0.005803294479846954,-0.0007251787465065718
1772702141433105200,2.501105224609375,-0.0003099919413216412,0.007398527581244707,-0.0012812467757612467
1772702141443154400,2.511154541015625,-0.0010333064710721374,0.005531918257474899,0.0000852211524033919
1772702141453204500,2.52120458984375,-0.0016013587592169642,0.00893810112029314,0.001582716591656208
1772702141463253200,2.531253173828125,0.0004492752777878195,0.006335127633064985,-0.0015811186749488115
1772702141473303300,2.54130322265625,0.000743554555810988,0.007903463207185268,0.0006253102328628302
1772702141483352300,2.551352294921875,-0.0013116068439558148,0.005685849115252495,-0.00018349179299548268
1772702141493402400,2.56140234375,-0.0036485306918621063,0.0082483422011137,0.0008111988427117467
1772702141503451400,2.571451416015625,-0.0003483414766378701,0.007410778198391199,-0.0010341054294258356
1772702141513501400,2.58150146484375,-0.0015875103417783976,0.008578307926654816,0.0012013519881293178
1772702141523550200,2.59155029296875,0.00020719393796753138,0.007387342397123575,0.0014567491598427296
1772702141533600300,2.601600341796875,-0.002540655666962266,0.006424609571695328,-0.0009307747823186219
1772702141543649300,2.611649169921875,-0.0021169467363506556,0.007369232829660177,0.00028069718973711133
1772702141553699000,2.621698974609375,-0.000883636821527034,0.008945291861891747,-0.0029057750944048166
1772702141563748000,2.631748046875,-0.002348109148442745,0.007230216171592474,-0.0020546286832541227
1772702141573798100,2.641798095703125,-0.0021582257468253374,0.008341286331415176,-0.0035683694295585155
1772702141583847200,2.65184716796875,-0.0023180153220891953,0.006413424387574196,-0.0004146541759837419
1772702141593897200,2.661897216796875,-0.0017989652696996927,0.007273625582456589,0.002558765234425664
1772702141603946200,2.6719462890625,-0.0011848403373733163,0.004202734678983688,0.000910268456209451
1772702141613996000,2.68199609375,-0.0018719359068199992,0.007290669716894627,-0.0006032059900462627
1772702141624045000,2.692045166015625,-0.0007352987886406481,0.006423810962587595,-0.003096190979704261
1772702141634095000,2.70209521484375,-0.0014263890916481614,0.00637933611869812,-0.0014215953415259719
1772702141644144000,2.71214404296875,-0.002679672557860613,0.007452856283634901,0.0003680488734971732
1772702141654194200,2.722194091796875,-0.00012623383372556418,0.007405984681099653,0.0011653993278741837
1772702141664243000,2.732242919921875,-0.0024285365361720324,0.007803061977028847,-0.00048176583368331194
1772702141674293000,2.74229296875,-0.00006897587445564568,0.005723133217543364,-0.0010106696281582117
1772702141684342300,2.75234228515625,-0.001748897833749652,0.007193997036665678,-0.000046339002437889576
1772702141694392300,2.762392333984375,-0.0015393070643767715,0.006262955721467733,0.0008977515972219408
1772702141704442000,2.772442138671875,0.0013291836949065328,0.005621400196105242,0.0019153454340994358
1772702141714491100,2.7824912109375,-0.0019108180422335863,0.006631537340581417,-0.0004945489927195013
1772702141724541200,2.792541259765625,-0.0005134574603289366,0.007309844717383385,-0.0023228090722113848
1772702141734590000,2.80258984375,-0.0012471582740545273,0.007889348082244396,0.00040320257539860904
1772702141744640000,2.812639892578125,-0.0001246359315700829,0.007406517397612333,-0.0005659217131324112
1772702141754689000,2.82268896484375,-0.0012253203894942999,0.0067599015310406685,-0.00018695391190703958
1772702141764739000,2.832739013671875,-0.002281263703480363,0.006859504152089357,-0.0010253170039504766
1772702141774788000,2.8427880859375,-0.0031521173659712076,0.006275472696870565,-0.002109223511070013
1772702141784838100,2.852838134765625,-0.00042104575550183654,0.008094944059848785,0.0014165353495627642
1772702141794887200,2.86288720703125,-0.0021920478902757168,0.006627010181546211,-0.0015765913994982839
1772702141804937200,2.872937255859375,-0.0020240023732185364,0.008846488781273365,0.001603755634278059
1772702141814986000,2.882986083984375,-0.0009086705395020545,0.010232930071651936,-0.0008783105295151472
1772702141825036000,2.8930361328125,-0.0003808320325333625,0.007902664132416248,-0.00376011710613966
1772702141835085000,2.9030849609375,0.001332645770162344,0.006327404174953699,-0.0011408982099965215
1772702141845135000,2.913135009765625,0.00008655273268232122,0.006627276539802551,-0.0008380967774428427
1772702141855184100,2.92318408203125,0.00019760655413847417,0.008622250519692898,-0.000782436749432236
1772702141865234200,2.933234130859375,-0.003096190979704261,0.00857244897633791,-0.0013877731980755925
1772702141875283000,2.943282958984375,-0.002719353651627898,0.008898686617612839,-0.0009544769418425858
1772702141885333000,2.9533330078125,-0.0024796691723167896,0.008220645599067211,-0.0010905644157901406
1772702141895382300,2.96338232421875,-0.004601942375302315,0.007858987897634506,0.0008093346259556711
1772702141905432000,2.97343212890625,-0.0010583401890471578,0.007309045642614365,-0.000811997801065445
1772702141915481000,2.983481201171875,0.0009179916232824326,0.004534298088401556,-0.0009089368977583945
1772702141925531100,2.99353125,-0.003145193215459585,0.006166283041238785,-0.0013568805297836661
1772702141935580000,3.003579833984375,-0.000023435817638528533,0.008757805451750755,-0.001326786819845438
1772702141945630000,3.0136298828125,-0.0005049353349022567,0.009890181012451649,-0.002832271857187152
1772702141955679200,3.02367919921875,-0.0010639328975230455,0.0056831855326890945,0.0017307883827015758
1772702141965729000,3.03372900390625,-0.002389654517173767,0.007207578979432583,-0.002752110594883561
1772702141975778000,3.043778076171875,-0.00014753911818843335,0.005832589231431484,0.000931041082367301
1772702141985828000,3.053828125,-0.0028751487843692303,0.004923386033624411,-0.0014823154779151082
1772702141995878000,3.0638779296875,-0.0034197650384157896,0.010031328536570072,-0.0013872405979782343
1772702142005927200,3.07392724609375,0.0013640711549669504,0.005875732284039259,0.0029079054947942495
1772702142015977200,3.083977294921875,0.0002724413643591106,0.009644637815654278,0.0007358313887380064
1772702142026026000,3.09402587890625,-0.0025893915444612503,0.008361260406672955,0.0015046859625726938
1772702142036076000,3.104075927734375,-0.0010018812026828527,0.006898918654769659,-0.0019451729021966457
1772702142046125000,3.114125,-0.0005661880713887513,0.006433664355427027,0.0008018778171390295
1772702142056175000,3.124175048828125,-0.0008460862445645034,0.006623015273362398,0.002609631512314081
1772702142066224000,3.13422412109375,-0.0011821772204712033,0.004984372295439243,-0.00207699928432703
1772702142076274200,3.144274169921875,-0.001469532260671258,0.008281632326543331,-0.00077631144085899
1772702142086323000,3.154322998046875,-0.00046631949953734875,0.006888266187161207,0.00024714134633541107
1772702142096373000,3.164373046875,-0.0022090920247137547,0.007828895002603531,-0.0011638014111667871
1772702142106422300,3.17442236328125,0.0005435511702671647,0.005059206858277321,-0.0014735270524397492
1772702142116472000,3.18447216796875,-0.000059921123465755954,0.008388690650463104,0.001284975209273398
1772702142126521000,3.19452099609375,0.0002892192860599607,0.008987103588879108,-0.0022564963437616825
1772702142136571100,3.204571044921875,0.00048416267964057624,0.006069876719266176,0.000734766130335629
1772702142146620200,3.2146201171875,-0.0009723200928419828,0.008072307333350182,-0.0016655409708619118
1772702142156670200,3.224670166015625,-0.0033771544694900513,0.009924535639584064,-0.00004394215648062527
1772702142166719200,3.23471923828125,-0.002326537622138858,0.004196875728666782,-0.00021305288828443736
1772702142176769000,3.24476904296875,-0.0024487765040248632,0.008200671523809433,-0.001859419047832489
1772702142186818000,3.254818115234375,-0.003719637170433998,0.006336192600429058,0.0015073491958901286
1772702142196868000,3.2648681640625,-0.003457848448306322,0.007363107521086931,-0.0004546015989035368
1772702142206917000,3.274917236328125,-0.00012383698776829988,0.00771757448092103,0.003192597534507513
1772702142216967200,3.28496728515625,-0.0021438447292894125,0.008169246837496758,-0.0015249260468408465
1772702142227016200,3.29501611328125,-0.0007107976707629859,0.006425142288208008,0.0020213392563164234
1772702142237066000,3.30506591796875,-0.0025744778104126453,0.006067213602364063,-0.004749215207993984
1772702142247115000,3.315114990234375,-0.0037412086967378855,0.006263222079724073,-0.0006668555433861911
1772702142257165300,3.325165283203125,-0.001115864492021501,0.006248041987419128,0.0025510420091450214
1772702142267214000,3.335214111328125,0.00010679275874281302,0.0076027922332286835,-0.0010572749888524413
1772702142277264100,3.34526416015625,-0.0035201662685722113,0.007736483123153448,0.0004569984448608011
1772702142287314200,3.355314208984375,0.00040959418402053416,0.007398261222988367,-0.0007307713967747986
1772702142297363000,3.365363037109375,-0.0019768644124269485,0.006555104628205299,-0.0017496967921033502
1772702142307413000,3.3754130859375,-0.00007004113285802305,0.005036037415266037,0.00007936220208648592
1772702142317462300,3.385462158203125,-0.0005632585380226374,0.0073045180179178715,-0.0005166532355360687
1772702142327512000,3.395511962890625,-0.0017715347930788994,0.006193447392433882,-0.0004572647449094802
1772702142337561000,3.40556103515625,-0.0026823359075933695,0.007851265370845795,-0.0010982876410707831
1772702142347611100,3.415611083984375,-0.001689775730483234,0.008159658871591091,-0.0023555660154670477
1772702142357660200,3.42566015625,-0.0006580671179108322,0.005908489227294922,0.00029401297797448933
1772702142367710200,3.435710205078125,-0.0007590008899569511,0.0073505910113453865,-0.0004293015517760068
1772702142377759000,3.445759033203125,-0.0010657970560714602,0.006404103245586157,-0.00023968449386302382
1772702142387809000,3.45580908203125,-0.0004956142511218786,0.010027334094047546,-0.0022498385515064
1772702142397858000,3.465858154296875,-0.0021017666440457106,0.008237956091761589,-0.0020005665719509125
1772702142407908000,3.475908203125,-0.0026913906913250685,0.008599081076681614,-0.002727875951677561
1772702142417957000,3.48595703125,-0.002406698651611805,0.008477107621729374,-0.0001512675517005846
1772702142428007200,3.496007080078125,-0.0011725898366421461,0.005891711451113224,0.001050617080181837
1772702142438056000,3.506055908203125,0.0003222425002604723,0.009829727932810783,-0.0024596955627202988
1772702142448106000,3.51610595703125,-0.002183792181313038,0.007964449934661388,-0.0021992383990436792
1772702142458155300,3.5261552734375,-0.00038695731200277805,0.007982558570802212,-0.0014881744282320142
1772702142468205000,3.536205078125,-0.0004596615908667445,0.007290403358638287,-0.0008463526028208435
1772702142478254000,3.546254150390625,-0.003537210635840893,0.008815063163638115,-0.0015851134667173028
1772702142488304000,3.55630419921875,-0.00045566685730591416,0.006739129312336445,-0.0002860235108528286
1772702142498353000,3.566352783203125,-0.0012503541074693203,0.007144995033740997,0.000300404557492584
1772702142508403000,3.57640283203125,-0.0005539375124499202,0.005591040477156639,0.0005946838646195829
1772702142518452200,3.5864521484375,-0.00027297402266412973,0.005218996666371822,0.001353152096271515
1772702142528502000,3.596501953125,0.0011297129094600677,0.010037720203399658,0.00006684534309897572
1772702142538551000,3.606551025390625,-0.0014809839194640517,0.00558118661865592,0.002692722249776125
1772702142548601000,3.61660107421875,0.0003323625132907182,0.006615558639168739,0.00005379585491027683
1772702142558650400,3.626650390625,-0.001118527608923614,0.0076126460917294025,-0.00041492050513625145
1772702142568700400,3.636700439453125,-0.000922252656891942,0.006653109099715948,-0.00017204020696226507
1772702142578749200,3.646749267578125,0.0008785768295638263,0.008744489401578903,-0.0007861651247367263
1772702142588799200,3.65679931640625,0.0010487528052181005,0.0063196811825037,-0.0015100123127922416
1772702142598849300,3.666849365234375,-0.0011531487107276917,0.006031260825693607,-0.001356614287942648
1772702142608898000,3.67689794921875,-0.0015310513554140925,0.0065202172845602036,-0.0024442493449896574
1772702142618948000,3.686947998046875,0.0002700445184018463,0.005486377980560064,-0.00044022052315995097
1772702142628997400,3.696997314453125,-0.0024381240364164114,0.009622800163924694,-0.003084739437326789
1772702142639047200,3.707047119140625,-0.0008146609761752188,0.007596134208142757,-0.0010636665392667055
1772702142649096200,3.71709619140625,-0.0023286680225282907,0.004593686666339636,-0.0001597896625753492
1772702142659146200,3.727146240234375,-0.002639458980411291,0.007507983595132828,-0.00043302998528815806
1772702142669195300,3.7371953125,-0.003025350859388709,0.006399576086550951,-0.0002790992730297148
1772702142679245300,3.747245361328125,-0.004540157038718462,0.008280566893517971,-0.00063383235828951
1772702142689294300,3.75729443359375,-0.00098217383492738,0.005856291390955448,0.000910268456209451
1772702142699344100,3.76734423828125,-0.003169428091496229,0.0060019660741090775,-0.001627191435545683
1772702142709393200,3.77739306640625,-0.0030027141328901052,0.006786533165723085,-0.0011877698125317693
1772702142719443200,3.787443115234375,0.0007667240570299327,0.006416087504476309,0.00008415588672505692
1772702142729492200,3.7974921875,-0.000290018244413659,0.006566289812326431,-0.00004900216299574822
1772702142739542300,3.807542236328125,-0.0019587550777941942,0.007538610137999058,-0.0016713999211788177
1772702142749591300,3.81759130859375,-0.0035305526107549667,0.007673365995287895,-0.000565389113035053
1772702142759641000,3.82764111328125,-0.002924683503806591,0.006548180244863033,-0.0017979000695049763
1772702142769690400,3.8376904296875,-0.003102849004790187,0.006120743229985237,-0.0005502090789377689
1772702142779740400,3.847740478515625,-0.0015688681742176414,0.0068062408827245235,-0.0007363640470430255
1772702142789789200,3.8577890625,0.0008130630594678223,0.009194563142955303,-0.0008356999605894089
1772702142799839200,3.867839111328125,0.001443166984245181,0.007238205522298813,0.0006625944515690207
1772702142809888300,3.87788818359375,0.0016740630380809307,0.007993211969733238,0.001270327833481133
1772702142819938300,3.887938232421875,-0.0007432882557623088,0.006718356627970934,0.00044794369023293257
1772702142829987300,3.8979873046875,-0.0031276163645088673,0.005809952039271593,-0.0013345100451260805
1772702142840037400,3.908037353515625,-0.0002633866388350725,0.008547415025532246,0.0007046724203974009
1772702142850086100,3.918086181640625,0.0021065603941679,0.007754325866699219,0.0017707358347252011
1772702142860136200,3.92813623046875,-0.0034850125666707754,0.009502691216766834,-0.0008173241512849927
1772702142870185500,3.938185546875,-0.0021462414879351854,0.008884305134415627,0.0011526161106303334
1772702142880235300,3.9482353515625,-0.0036639769095927477,0.0073569826781749725,0.0012506204657256603
1772702142890284300,3.9582841796875,-0.0029116340447217226,0.009465406648814678,0.0014642059104517102
1772702142900334300,3.968334228515625,-0.0015425028977915645,0.004589958116412163,-0.0012144014472141862
1772702142910383000,3.978383056640625,-0.00022530343267135322,0.008113852702081203,-0.0024644893128424883
1772702142920433400,3.988433349609375,-0.0015515576815232635,0.008134359493851662,0.0006982808117754757
1772702142930483500,3.9984833984375,-0.0024799355305731297,0.010964234359562397,-0.0007155913626775146
1772702142940532200,4.0085322265625,0.0003483414766378701,0.008898952975869179,-0.0001400822657160461
1772702142950582300,4.018582275390625,-0.0017121462151408195,0.007516505662351847,-0.001490571303293109
1772702142960631300,4.02863134765625,-0.0005299690528772771,0.008161523379385471,0.0012721919920295477
1772702142970681000,4.03868115234375,0.0015009575290605426,0.006779609248042107,0.001333178486675024
1772702142980730400,4.04873046875,-0.0001930791768245399,0.008904279209673405,-0.002496713539585471
1772702142990780400,4.058780517578125,-0.004337490536272526,0.008715461008250713,0.0023068301379680634
1772702143000829200,4.0688291015625,-0.0010487528052181005,0.006187588442116976,0.0001496696495451033
1772702143010879200,4.078879150390625,-0.0046360306441783905,0.008766327053308487,-0.002657035831362009
1772702143020928300,4.08892822265625,0.0012247877893969417,0.006884004920721054,-0.0006388923502527177
1772702143030978300,4.098978271484375,-0.0007350324303843081,0.008067513816058636,-0.0009414274245500565
1772702143041027300,4.10902734375,-0.00005725796290789731,0.007282147649675608,0.0009070726810023189
1772702143051077400,4.119077392578125,-0.0023252058308571577,0.0072959959506988525,-0.0004647216119337827
1772702143061126100,4.129126220703125,-0.002223206916823983,0.008863799273967743,-0.0006641923682764173
1772702143071176200,4.13917626953125,-0.0015571502735838294,0.008946890011429787,-0.0025920546613633633
1772702143081225200,4.14922509765625,-0.0015190670965239406,0.008656338788568974,0.0001512675517005846
1772702143091275300,4.159275146484375,0.00018242653459310532,0.00797403696924448,-0.0010868359822779894
1772702143101324300,4.16932421875,0.0008487494196742773,0.00589490681886673,0.0006410228670574725
1772702143111374300,4.179374267578125,-0.0012024171883240342,0.006146043073385954,0.0008623315370641649
1772702143121423400,4.18942333984375,-0.0011313108261674643,0.005967345088720322,-0.0015957661671563983
1772702143131473400,4.199473388671875,0.00009933590627042577,0.007785751484334469,-0.002549177734181285
1772702143141522200,4.209522216796875,-0.0004040015337523073,0.007882158271968365,0.0010894992155954242
1772702143151572200,4.219572265625,-0.0013134710025042295,0.007462976034730673,-0.002965696156024933
1772702143161621200,4.229621337890625,-0.0009123989730142057,0.008963401429355145,-0.0020421119406819344
1772702143171671000,4.239671142578125,-0.0020865867845714092,0.00714632635936141,-0.0002692455891519785
1772702143181720300,4.24972021484375,-0.0014176006661728024,0.009591907262802124,-0.0024410535115748644
1772702143191770400,4.259770263671875,-0.0009547432418912649,0.00812344066798687,-0.0006183860241435468
1772702143201819100,4.269819091796875,-0.00040666470886208117,0.006412359420210123,-0.0001728391507640481
1772702143211869200,4.279869140625,0.00017976337403524667,0.0051718587055802345,0.00043569316039793193
1772702143221918500,4.28991845703125,-0.000025832661776803434,0.0068331388756632805,-0.000737695605494082
1772702143231968300,4.29996826171875,0.0035872780717909336,0.008186024613678455,0.0003075950953643769
1772702143242017300,4.310017333984375,-0.0006175870657898486,0.0078046596609056,0.0005917543894611299
1772702143252067300,4.3200673828125,-0.0016016251174733043,0.006841128226369619,-0.0013345100451260805
1772702143262117000,4.3301171875,-0.000020240024241502397,0.007192931603640318,0.0019510318525135517
1772702143272166100,4.340166259765625,-0.00025300029665231705,0.007406517397612333,0.0007709851488471031
1772702143282216200,4.35021630859375,-0.0004442152567207813,0.00634950865060091,0.001071123406291008
1772702143292265200,4.36026513671875,-0.002719087526202202,0.008701878599822521,-0.00022983079543337226
1772702143302315300,4.370315185546875,-0.0024703482631593943,0.007796936668455601,0.00170788518153131
1772702143312364300,4.3803642578125,-0.002150768879801035,0.00740332156419754,-0.00014620754518546164
1772702143322414000,4.3904140625,-0.0013006879016757011,0.007933024317026138,0.0005896238726563752
1772702143332463400,4.40046337890625,-0.0006950850365683436,0.006197708658874035,-0.0009142631897702813
1772702143342513400,4.410513427734375,-0.0015654060989618301,0.005831523798406124,-0.0037377465050667524
1772702143352562200,4.420562255859375,0.000014647385796706658,0.008678176440298557,0.00018615495355334133
1772702143362612200,4.4306123046875,0.0018820558907464147,0.006084790453314781,0.001113201375119388
1772702143372661200,4.4406611328125,0.002394714392721653,0.006815827917307615,-0.0020751350093632936
1772702143382711300,4.450711181640625,0.0004820321628358215,0.005404086317867041,-0.0018751317402347922
1772702143392760300,4.46076025390625,-0.00012516857532318681,0.006392918061465025,-0.00005219795639277436
1772702143402810400,4.470810302734375,-0.0015986956423148513,0.007458448875695467,-0.0025102957151830196
1772702143412859100,4.480859130859375,-0.0013741911388933659,0.008590824902057648,0.0014570154016837478
1772702143422909200,4.4909091796875,-0.0021198762115091085,0.007996407337486744,0.0013195963110774755
1772702143432958500,4.50095849609375,-0.0023278691805899143,0.007481618318706751,0.0017323862994089723
1772702143443008300,4.51100830078125,-0.0043534692376852036,0.007558850105851889,-0.0021518340799957514
1772702143453057300,4.521057373046875,0.0012199940392747521,0.008388957008719444,0.0025300029665231705
1772702143463107300,4.531107421875,-0.00307568465359509,0.006578540429472923,-0.0013978932984173298
1772702143473156000,4.541156005859375,-0.00016671388584654778,0.008535697124898434,0.0001901497016660869
1772702143483206400,4.551206298828125,-0.002028263406828046,0.007238738238811493,0.0025752766523510218
1772702143493255400,4.56125537109375,0.0014165353495627642,0.007397462613880634,0.00029294771957211196
1772702143503305200,4.57130517578125,0.0015286544803529978,0.006888532545417547,-0.003757720347493887
1772702143513354200,4.581354248046875,-0.0010290454374626279,0.006566023454070091,-0.00025726135936565697
1772702143523404300,4.591404296875,-0.00023941817926242948,0.007393201347440481,0.0013409015955403447
1772702143533453300,4.601453369140625,0.000358461489668116,0.004799282643944025,0.0004929511342197657
1772702143543503000,4.611503173828125,-0.0009110674145631492,0.0036991306114941835,0.0025486452504992485
1772702143553552000,4.6215517578125,-0.0012402341235429049,0.008216917514801025,0.0004980111261829734
1772702143563602000,4.631601806640625,0.0003813646617345512,0.005512476898729801,0.0012202603975310922
1772702143573651200,4.641651123046875,-0.003970240708440542,0.010783671401441097,-0.00023276027059182525
1772702143583701000,4.651700927734375,-0.0018988338997587562,0.008011853322386742,-0.002841326640918851
1772702143593751000,4.6617509765625,-0.0035111114848405123,0.006868292577564716,0.0013022858183830976
1772702143603800000,4.671800048828125,-0.001597896683961153,0.008677377365529537,-0.0007773766992613673
1772702143613849900,4.681849853515625,-0.001284975209273398,0.006917294580489397,-0.00036751621519215405
1772702143623899000,4.69189892578125,-0.00021544973424170166,0.006078931502997875,-0.001166198286227882
1772702143633949000,4.701948974609375,0.0014378406340256333,0.007691209204494953,0.00028575718170031905
1772702143643998000,4.711998046875,-0.0011914982460439205,0.007187339011579752,-0.0006953513366170228
1772702143654048000,4.722048095703125,-0.0025334651581943035,0.008283762261271477,-0.00014993596414569765
1772702143664097000,4.732096923828125,-0.002246642718091607,0.009080846793949604,0.0004468784318305552
1772702143674146800,4.742146728515625,0.00011771172285079956,0.006321545224636793,0.0011291803093627095
1772702143684196000,4.752196044921875,-0.0009576727170497179,0.005565740168094635,-0.0009161274065263569
1772702143694246100,4.76224609375,-0.00018455706594977528,0.006551109720021486,-0.0007147924043238163
1772702143704295000,4.772294921875,-0.0007568703731521964,0.007349525578320026,0.0016226640436798334
1772702143714345000,4.782344970703125,-0.00015286543930415064,0.006937268190085888,-0.001582716591656208
1772702143724394000,4.79239404296875,-0.0014455638593062758,0.00657587731257081,-0.0005187837523408234
1772702143734443800,4.80244384765625,-0.00009906959166983142,0.00872238539159298,-0.0013763216556981206
1772702143744493000,4.8124931640625,-0.001740375766530633,0.00686136819422245,-0.00009853696246864274
1772702143754543000,4.822543212890625,-0.0023515713401138783,0.00851332675665617,0.00008548746700398624
1772702143764591900,4.832591796875,-0.001300155185163021,0.006944725289940834,-0.002715891692787409
1772702143774642000,4.842641845703125,-0.0008372978190891445,0.008838232606649399,-0.002175003755837679
1772702143784691000,4.85269091796875,-0.002654106356203556,0.007010505069047213,0.00003781688792514615
1772702143794741000,4.862740966796875,-0.001160339335910976,0.007390538230538368,-0.0009374326909892261
1772702143804790000,4.8727900390625,0.00039601203752681613,0.008437426760792732,-0.00026525085559114814
1772702143814840000,4.882840087890625,0.00036378781078383327,0.008055263198912144,-0.0021643510553985834
1772702143824888800,4.892888916015625,0.0005629922379739583,0.006340187508612871,-0.0010985539993271232
1772702143834939000,4.90293896484375,-0.0021044297609478235,0.008994027972221375,-0.0013731258222833276
1772702143844988000,4.91298779296875,-0.0004420847399160266,0.008962868712842464,-0.00022210762836039066
1772702143855038000,4.923037841796875,0.00035180358099751174,0.004573712591081858,0.0017222663154825568
1772702143865087000,4.9330869140625,-0.00025539714260958135,0.0054299188777804375,-0.002888730727136135
1772702143875136800,4.94313671875,0.0014748586108908057,0.00433189794421196,0.00047590688336640596
1772702143885186000,4.95318603515625,-0.0015552861150354147,0.00689199473708868,-0.00021012341312598437
1772702143895236000,4.963236083984375,-0.00035979304811917245,0.006554838269948959,0.0014506238512694836
1772702143905284900,4.973284912109375,-0.004705006722360849,0.00827737059444189,0.000800279900431633
1772702143915335000,4.9833349609375,-0.0017126789316534996,0.010784470476210117,-0.0020042951218783855
1772702143925384000,4.993384033203125,-0.0026735474821180105,0.009520001709461212,-0.003620833856984973
1772702143935434000,5.00343408203125,-0.0036882117856293917,0.006104764062911272,0.0003438140847720206
1772702143945484000,5.013484130859375,0.0006950850365683436,0.007122091483324766,-0.0009882990270853043
1772702143955533000,5.023532958984375,-0.002424009144306183,0.007090133614838123,-0.0017153420485556126
1772702143965583000,5.0335830078125,0.00033449303009547293,0.005875199567526579,-0.0010849718237295747
1772702143975632000,5.0436318359375,-0.001076982356607914,0.006253635045140982,-0.001555552356876433
1772702143985682000,5.053681884765625,-0.0024889903143048286,0.005274390336126089,0.0011829761788249016
1772702143995731000,5.06373095703125,-0.0043295007199049,0.009808422066271305,-0.0022983080707490444
1772702144005781000,5.073781005859375,-0.0012753878254443407,0.004822452086955309,-0.0031047132797539234
1772702144015830000,5.083830078125,-0.000011717908819264267,0.007661115378141403,0.00019094864546786994
1772702144025879800,5.0938798828125,-0.001645300886593759,0.007396397180855274,0.003436809405684471
1772702144035929000,5.10392919921875,-0.0020511667244136333,0.0059660132974386215,-0.0002748382103163749
1772702144045979100,5.113979248046875,-0.0006615291931666434,0.005811283830553293,-0.002377670258283615
1772702144056028000,5.12402783203125,0.00008122641156660393,0.008977515622973442,0.0003246393462177366
1772702144066078000,5.134077880859375,-0.0013363742036744952,0.00666296249255538,0.0009725864510983229
1772702144076127000,5.144126953125,-0.0022943131625652313,0.009694439359009266,-0.001107076066546142
1772702144086176800,5.1541767578125,0.0002639192680362612,0.00774820102378726,-0.004543352872133255
1772702144096226000,5.16422607421875,0.0009656621841713786,0.005136971361935139,0.0002311623829882592
1772702144106276000,5.174276123046875,0.00043356261448934674,0.007669903803616762,0.00043516053119674325
1772702144116324900,5.184324951171875,-0.0013555489713326097,0.006918626371771097,0.0001978728687390685
1772702144126375000,5.194375,-0.002448244020342827,0.005201419815421104,0.00004420847471919842
1772702144136424200,5.204424072265625,-0.0007483482477255166,0.007375091779977083,-0.0010580739472061396
1772702144146474000,5.214473876953125,-0.00046339002437889576,0.005864547099918127,-0.00034168356796726584
1772702144156523000,5.22452294921875,-0.002621349412947893,0.006735400762408972,0.0013382384786382318
1772702144166573000,5.234572998046875,-0.0013579458463937044,0.004907673224806786,0.0007419566973112524
1772702144176621800,5.244621826171875,0.0027305390685796738,0.005018726922571659,0.0015081481542438269
1772702144186671900,5.254671875,-0.0029411951545625925,0.006342850625514984,-0.0020149475894868374
1772702144196721200,5.26472119140625,-0.0036248285323381424,0.005802229046821594,-0.0000500674286740832
1772702144206771000,5.27477099609375,-0.0006934871198609471,0.006653109099715948,0.0007267766632139683
1772702144216820000,5.284820068359375,-0.0005691175465472043,0.0075945365242660046,-0.0006210491410456598
1772702144226870000,5.2948701171875,0.0003038666909560561,0.009236374869942665,0.0024650217965245247
1772702144236919000,5.3049189453125,0.0012580773327499628,0.007250189781188965,0.00030413299100473523
1772702144246968000,5.314968017578125,-0.0010556770721450448,0.007014233618974686,-0.003269562730565667
1772702144257017900,5.325017822265625,-0.001520665013231337,0.009734919294714928,0.0004082625964656472
1772702144267067000,5.33506689453125,0.0006980145117267966,0.0051833102479577065,-0.0011787151452153921
1772702144277117000,5.345116943359375,-0.0021204089280217886,0.007934356108307838,-0.000005060006060375599
1772702144287166000,5.355166015625,0.001341700553894043,0.006682403851300478,0.002569950418546796
1772702144297216000,5.365216064453125,-0.003177950158715248,0.007873103022575378,-0.0014650048688054085
1772702144307265000,5.37526513671875,0.0008495483780279756,0.007272826507687569,0.001627191435545683
1772702144317314800,5.385314697265625,-0.001651159836910665,0.008035821840167046,-0.0005805690889246762
1772702144327364900,5.39536474609375,0.0006884271278977394,0.006025135517120361,0.002472745021805167
1772702144337414100,5.4054140625,-0.0005882922559976578,0.008314122445881367,-0.0010295780375599861
1772702144347464200,5.415464111328125,0.0012767193838953972,0.006364422384649515,-0.0010050770360976458
1772702144357513000,5.425512939453125,-0.0027896612882614136,0.005908222869038582,0.0008815063047222793
1772702144367563000,5.43556298828125,-0.002317482838407159,0.007934888824820518,0.0004748416249640286
1772702144377611800,5.44561181640625,-0.0011022823164239526,0.005883987993001938,-0.00021891183860134333
1772702144387661800,5.455661865234375,-0.005113535560667515,0.010604441165924072,-0.0018785938154906034
1772702144397711000,5.465711181640625,-0.000886566296685487,0.008384696207940578,-0.0020879183430224657
1772702144407761000,5.475760986328125,-0.0013800500892102718,0.006962302140891552,-0.0003656520275399089
1772702144417810000,5.485809814453125,-0.0005616606795229018,0.009036371484398842,0.0025534387677907944
1772702144427860000,5.49585986328125,-0.0011789813870564103,0.008619853295385838,0.0019560917280614376
1772702144437909000,5.505908935546875,-0.0021228056866675615,0.00888057705014944,-0.00036218989407643676
1772702144447959000,5.515958984375,-0.0017150756902992725,0.006871488410979509,0.0004444815858732909
1772702144458008000,5.526008056640625,-0.003215766977518797,0.0078571243211627,-0.0014327806420624256
1772702144468057900,5.536057861328125,-0.0018599516479298472,0.0078531289473176,-0.0014165353495627642
1772702144478107000,5.54610693359375,-0.0035449336282908916,0.008744223043322563,0.00005752427750849165
1772702144488157000,5.556156982421875,0.0001968075957847759,0.007216367404907942,0.0008423578692600131
1772702144498206000,5.5662060546875,-0.00123783724848181,0.006314621306955814,-0.0006495449924841523
1772702144508256000,5.576256103515625,0.00028815402765758336,0.0070736221969127655,-0.0008817726047709584
1772702144518305000,5.586304931640625,-0.0021611552219837904,0.008671518415212631,-0.00007776429993100464
1772702144528354800,5.596354736328125,-0.0025963156949728727,0.007997206412255764,-0.002083390951156616
1772702144538404000,5.606404052734375,-0.0019081549253314734,0.0070645674131810665,0.00011371697473805398
1772702144548454400,5.616454345703125,-0.00020000340009573847,0.008043012581765652,0.0017385114915668964
1772702144558503200,5.626503173828125,-0.0035020567011088133,0.006717557553201914,-0.000990429543890059
1772702144568553200,5.63655322265625,-0.0013480921043083072,0.007029147353023291,-0.000483363721286878
1772702144578602200,5.646602294921875,0.001725462032482028,0.0049215215258300304,-0.0004338289436418563
1772702144588652300,5.65665234375,-0.0010527475969865918,0.006777478381991386,-0.0003091930120717734
1772702144598701300,5.666701416015625,0.00006498113361885771,0.008019576780498028,-0.0003510046226438135
1772702144608751400,5.67675146484375,0.00003488740912871435,0.005440571811050177,0.0009350358741357923
1772702144618800000,5.686800048828125,-0.0000018642127770363004,0.009245430119335651,-0.0030216225422918797
1772702144628850200,5.69685009765625,0.0023188143968582153,0.008328503929078579,-0.0009685916593298316
1772702144638900200,5.706900146484375,0.00031425300403498113,0.00806165486574173,0.000003462109361862531
1772702144648949200,5.71694921875,-0.0019358517602086067,0.005835785064846277,0.0024168186355382204
1772702144658999300,5.726999267578125,-0.0008349010022357106,0.005960687063634396,0.0009693906176835299
1772702144669048300,5.73704833984375,-0.0009598032338544726,0.00689039658755064,0.00038642468280158937
1772702144679098400,5.747098388671875,-0.0011981561547145247,0.008798019029200077,0.0001174454009742476
1772702144689147100,5.757147216796875,0.0014008227735757828,0.005032575689256191,-0.0007486145477741957
1772702144699197200,5.767197265625,-0.0005528722540475428,0.0060176788829267025,-0.0006894923863001168
1772702144709246200,5.77724609375,-0.0008111988427117467,0.006165750324726105,-0.00016538229829166085
1772702144719296300,5.787296142578125,-0.0017044231062754989,0.005834186915308237,-0.0011789813870564103
1772702144729346300,5.79734619140625,-0.0025449167005717754,0.008645419962704182,-0.0013904364313930273
1772702144739395000,5.80739501953125,-0.000758734589908272,0.0073687005788087845,0.00011531487689353526
1772702144749445000,5.817445068359375,-0.0020362529903650284,0.008541289716959,-0.0020061591640114784
1772702144759494400,5.827494384765625,-0.0019004317000508308,0.008283762261271477,-0.0001512675517005846
1772702144769544400,5.83754443359375,0.000031691615731688216,0.007774033583700657,0.0019773971289396286
1772702144779593200,5.84759326171875,-0.0011584750609472394,0.006325806491076946,0.0014599448768422008
1772702144789643300,5.857643310546875,-0.0004013383586425334,0.007300789933651686,-0.000949150591623038
1772702144799692000,5.867692138671875,0.00023755396250635386,0.00592553336173296,-0.0008463526028208435
1772702144809742300,5.877742431640625,0.00010652644414221868,0.006924751214683056,-0.000434361572843045
1772702144819791400,5.887791259765625,0.0009800433181226254,0.008154332637786865,-0.003695935010910034
1772702144829841400,5.89784130859375,-0.0012271846644580364,0.009185242466628551,-0.00047883635852485895
1772702144839890200,5.90789013671875,0.0005118595436215401,0.008247011341154575,0.0007443535141646862
1772702144849940200,5.917940185546875,-0.0017113472567871213,0.007788414601236582,-0.000015978966985130683
1772702144859989200,5.9279892578125,-0.0007874967413954437,0.008706405758857727,-0.001278849900700152
1772702144870039300,5.938039306640625,-0.00115394766908139,0.007673099637031555,0.00032863407977856696
1772702144880088300,5.94808837890625,0.0014524880098178983,0.006559898145496845,-0.001094559207558632
1772702144890138000,5.95813818359375,-0.0015531554818153381,0.008963135071098804,-0.00008868326403899118
1772702144900187100,5.968187255859375,0.000046072687837295234,0.005041896365582943,-0.0023065637797117233
1772702144910237400,5.978237548828125,-0.003665308468043804,0.008292817510664463,-0.002532399957999587
1772702144920286200,5.9882861328125,-0.004062385763972998,0.006470416206866503,-0.002273007994517684
1772702144930336300,5.998336181640625,0.001044491771608591,0.007364705670624971,-0.0008186557097360492
1772702144940385300,6.00838525390625,-0.004745220299810171,0.007684551179409027,-0.0012125372886657715
1772702144950435000,6.01843505859375,-0.0001448759576305747,0.008784436620771885,-0.0009392969077453017
1772702144960484400,6.028484375,-0.0010865697404369712,0.00621155695989728,-0.00003781688792514615
1772702144970534400,6.038534423828125,0.0001954760227818042,0.006963100749999285,0.0018101505702361465
1772702144980583200,6.048583251953125,-0.0037382792215794325,0.006940730381757021,0.0010343717876821756
1772702144990633200,6.05863330078125,-0.0010910971323028207,0.0065710837952792645,-0.0028154938481748104
1772702145000682200,6.06868212890625,-0.002243979601189494,0.00788375549018383,-0.0026996464002877474
1772702145010732300,6.078732177734375,-0.0008261125767603517,0.006623547989875078,-0.00011930961773032323
1772702145020781300,6.08878125,-0.0029523803386837244,0.0065047708339989185,-0.0018471685471013188
1772702145030831400,6.098831298828125,-0.0005744438385590911,0.007273891940712929,0.00044767739018425345
1772702145040881200,6.108881103515625,-0.0014263890916481614,0.007778028026223183,-0.0002479403046891093
1772702145050930200,6.11893017578125,-0.0009970874525606632,0.005803560372442007,-0.0006641923682764173
1772702145060980200,6.128980224609375,-0.0022032330743968487,0.009765278548002243,-0.0009643306257203221
1772702145071029200,6.139029296875,-0.0016815199051052332,0.00911413598805666,0.0002825613773893565
1772702145081079300,6.149079345703125,-0.0006159891490824521,0.007245129905641079,0.0002868224401026964
1772702145091128300,6.15912841796875,-0.0021582257468253374,0.006444583646953106,-0.0012580773327499628
1772702145101178000,6.16917822265625,-0.001255414099432528,0.00640916358679533,-0.0014554174849763513
1772702145111227400,6.179227294921875,0.000016245283404714428,0.006433930713683367,-0.0008791094878688455
1772702145121277400,6.18927734375,-0.00327275856398046,0.008233428932726383,0.0007611314067617059
1772702145131326200,6.199326171875,-0.000011717908819264267,0.0065473816357553005,-0.0010972223244607449
1772702145141376300,6.209376220703125,-0.0019739349372684956,0.0076185050420463085,-0.0015014902455732226
1772702145151425300,6.21942529296875,-0.0046360306441783905,0.007870174013078213,-0.0012479572324082255
1772702145161475000,6.22947509765625,-0.0005342300864867866,0.004062918480485678,0.0007017429452389479
1772702145171524400,6.2395244140625,-0.0006625944515690207,0.008643022738397121,-0.00039654469583183527
1772702145181574400,6.249574462890625,0.00041758365114219487,0.006431267596781254,-0.002171008847653866
1772702145191623200,6.259623046875,0.00026764770154841244,0.008823319338262081,0.00012250541476532817
1772702145201673200,6.269673095703125,-0.00019387812062632293,0.007692274637520313,-0.0006346312584355474
1772702145211722500,6.279722412109375,-0.0011936287628486753,0.007601194549351931,-0.00043995422311127186
1772702145221772300,6.289772216796875,-0.004760933108627796,0.008701345883309841,0.0010761833982542157
1772702145231821300,6.2998212890625,-0.0029459886718541384,0.008643289096653461,-0.003388606244698167
1772702145241871400,6.309871337890625,-0.0004985437262803316,0.009485913440585136,-0.0026530411560088396
1772702145251920100,6.319920166015625,-0.0022418489679694176,0.006343383342027664,-0.00008335694292327389
1772702145261970200,6.32997021484375,-0.0014990933705121279,0.005887716542929411,0.0004442152567207813
1772702145272019200,6.340019287109375,-0.0017544905422255397,0.005624063778668642,0.0019294602097943425
1772702145282069200,6.3500693359375,-0.0008886968716979027,0.0054458980448544025,-0.002645584288984537
1772702145292118300,6.3601181640625,-0.0010961571242660284,0.008742891252040863,-0.0024897893890738487
1772702145302168300,6.370168212890625,-0.0015510249650105834,0.006776413414627314,-0.00035446672700345516
1772702145312217300,6.38021728515625,-0.0018309232546016574,0.007289072033017874,0.0012809804175049067
1772702145322267400,6.390267333984375,-0.0021869877818971872,0.0049553439021110535,-0.001680720946751535
1772702145332317400,6.4003173828125,-0.0029846045654267073,0.007835285738110542,-0.0026993800420314074
1772702145342366200,6.4103662109375,-0.0017241304740309715,0.006188387516885996,-0.0026905916165560484
1772702145352416300,6.420416259765625,0.00018375810759607702,0.006721019744873047,-0.0015997608425095677
1772702145362465000,6.430465087890625,-0.0017925737192854285,0.006006227340549231,-0.0006998787284828722
1772702145372515300,6.440515380859375,-0.000669252360239625,0.0068054418079555035,-0.0012857741676270962
1772702145382564400,6.450564453125,-0.003428287338465452,0.00646562222391367,-0.0008993495139293373
1772702145392614400,6.460614501953125,-0.0022836606949567795,0.008704808540642262,-0.0017707358347252011
1772702145402663200,6.4706630859375,-0.0006988134700804949,0.005900765769183636,-0.0029257487040013075
1772702145412713200,6.480713134765625,-0.002526274649426341,0.008411860093474388,-0.0000804274677648209
1772702145422762200,6.49076220703125,-0.0008841694798320532,0.008473645895719528,0.00025220136740244925
1772702145432812300,6.500812255859375,-0.001413339632563293,0.007773234508931637,-0.0000804274677648209
1772702145442861300,6.510861328125,-0.0009134642314165831,0.006170544307678938,0.0019654128700494766
1772702145452911400,6.520911376953125,0.0014282532501965761,0.007552458439022303,-0.00037230990710668266
1772702145462960000,6.530960205078125,-0.0006330333999358118,0.008219313807785511,-0.00461632339283824
1772702145473010200,6.54101025390625,-0.00040852889651432633,0.006229400169104338,0.0026615632232278585
1772702145483059200,6.55105908203125,-0.0011563445441424847,0.0086603332310915,0.00014434332842938602
1772702145493109200,6.561109130859375,0.00010865696822293103,0.005592904519289732,-0.00038535939529538155
1772702145503158300,6.571158203125,-0.0020423782989382744,0.008761267177760601,0.0012090750969946384
1772702145513208000,6.5812080078125,-0.0008239820599555969,0.006459763273596764,-0.0018804579740390182
1772702145523257300,6.59125732421875,-0.0011438276851549745,0.006649646908044815,-0.0016626114957034588
1772702145533307400,6.601307373046875,-0.0001549959706608206,0.007063768338412046,-0.00013848437811248004
1772702145543356200,6.611356201171875,-0.0002764361270237714,0.007417169865220785,-0.001422128058038652
1772702145553406500,6.621406494140625,-0.0014452975010499358,0.007154582068324089,0.00022370553051587194
1772702145563455500,6.63145556640625,-0.0014394385507330298,0.007250988855957985,-0.001967277145013213
1772702145573505300,6.64150537109375,-0.0014583469601348042,0.007173490710556507,-0.0031763522420078516
1772702145583554600,6.651554443359375,-0.0009376989910379052,0.007652859669178724,0.0018018947448581457
1772702145593604600,6.6616044921875,-0.0008727178792469203,0.0070576430298388,-0.00039308256236836314
1772702145603653400,6.6716533203125,-0.0006050702068023384,0.006434463430196047,0.0006229133578017354
1772702145613703400,6.681703369140625,-0.0030538467690348625,0.006713296286761761,-0.001041295938193798
1772702145623752700,6.691752685546875,-0.0017243968322873116,0.00780572509393096,-0.0024264061357825994
1772702145633802500,6.701802490234375,0.0005097290268167853,0.007699731271713972,0.000059921123465755954
1772702145643852500,6.7118525390625,-0.0032730249222368,0.004957740660756826,-0.001270327833481133
1772702145653901600,6.721901611328125,-0.0034413367975503206,0.0072717610746622086,-0.0006857639527879655
1772702145663951400,6.731951416015625,-0.002020007697865367,0.006207828409969807,-0.0019323896849527955
1772702145674000400,6.74200048828125,0.001169394003227353,0.0067226174287498,-0.0006788397440686822
1772702145684050400,6.752050537109375,-0.0012000204296782613,0.0036035231314599514,0.0012610068079084158
1772702145694099500,6.762099365234375,-0.0026903252582997084,0.008131163194775581,-0.00023462448734790087
1772702145704149500,6.7721494140625,-0.0024580976460129023,0.006837399676442146,0.0009552759001962841
1772702145714198500,6.782198486328125,-0.001121457084082067,0.007558850105851889,-0.00021917815320193768
1772702145724248300,6.792248291015625,-0.0014631407102569938,0.007400658447295427,-0.002129996195435524
1772702145734297600,6.802297607421875,-0.0010924286907538772,0.006666957400739193,-0.00041438787593506277
1772702145744347600,6.81234765625,0.00023675501870457083,0.007155647501349449,-0.0007017429452389479
1772702145754396400,6.822396484375,-0.002326271263882518,0.006178267300128937,-0.0019747340120375156
1772702145764446500,6.832446533203125,-0.002930542454123497,0.00512711750343442,-0.0008825715631246567
1772702145774495500,6.84249560546875,-0.0024839304387569427,0.008437959477305412,0.0008804410463199019
1772702145784545500,6.852545654296875,-0.0014596786350011826,0.006883206311613321,0.0003528688393998891
1772702145794594600,6.862594482421875,-0.00026844663079828024,0.0064834654331207275,0.0035459990613162518
1772702145804644600,6.87264453125,0.001017061178572476,0.008220112882554531,0.0002777676854748279
1772702145814693400,6.882693359375,-0.0009925601771101356,0.00806165486574173,0.0018935075495392084
1772702145824743400,6.892743408203125,-0.0005550027708522975,0.0073599121533334255,-0.0013142699608579278
1772702145834792700,6.902792724609375,-0.0025182850658893585,0.008862733840942383,-0.0009097357979044318
1772702145844842500,6.912842529296875,-0.002573412610217929,0.0073713636957108974,-0.0020090886391699314
1772702145854891500,6.9228916015625,-0.0004492752777878195,0.007229949813336134,-0.0009827064350247383
1772702145864941600,6.932941650390625,-0.002377670258283615,0.006066680885851383,-0.002965163439512253
1772702145874990300,6.942990234375,-0.002748914761468768,0.007407582364976406,-0.001445830101147294
1772702145885040600,6.95304052734375,-0.0029670277144759893,0.008243015967309475,0.00006391586794052273
1772702145895089700,6.963089599609375,-0.0010993528412654996,0.008887501433491707,-0.0012985573848709464
1772702145905139500,6.973139404296875,-0.001954760169610381,0.011002050712704659,-0.00048416267964057624
1772702145915188500,6.9831884765625,-0.0022277343086898327,0.009971141815185547,-0.001228782464750111
1772702145925238500,6.993238525390625,-0.0021371867042034864,0.007462976034730673,-0.000987500068731606
1772702145935288300,7.003288330078125,-0.002088717184960842,0.01492542028427124,0.0019350528018549085
1772702145945337600,7.013337646484375,-0.0014405038673430681,0.053465355187654495,0.021310880780220032
1772702145955387600,7.0233876953125,-0.000009321063771494664,0.019583821296691895,0.004026433452963829
1772702145965436400,7.0334365234375,-0.0024549018125981092,-0.027525633573532104,-0.019482089206576347
1772702145975486500,7.043486572265625,-0.002731071785092354,-0.020846160128712654,-0.018508702516555786
1772702145985535700,7.05353564453125,-0.0026487798895686865,0.014238590374588966,0.0032205607276409864
1772702145995585500,7.06358544921875,0.0005584649043157697,-0.0014223942998796701,-0.006453904323279858
1772702146005634600,7.073634521484375,-0.0013978932984173298,0.016864733770489693,0.0015430354978889227
1772702146015684600,7.0836845703125,-0.0015004249289631844,0.0015451660146936774,-0.0065106297843158245
