time,seconds_elapsed,z,y,x
1772702138999865900,0.067865966796875,-0.0028789127245545387,0.002256059553474188,0.0007672506617382169
1772702139009914600,0.07791455078125,0.00031954352743923664,-0.005350194871425629,-0.004048543516546488
1772702139019964700,0.087964599609375,0.002298181178048253,0.00626828707754612,0.0019680047407746315
1772702139030013700,0.098013671875,-0.0005484716966748238,-0.0059417737647891045,-0.00485581299290061
1772702139040063700,0.108063720703125,-0.002196704735979438,0.005227790214121342,0.0032718884758651257
1772702139050112800,0.11811279296875,0.00024168542586266994,-0.0030258786864578724,-0.0041490099392831326
1772702139060162800,0.128162841796875,-0.002017651917412877,0.004489111714065075,0.004699548706412315
1772702139070211600,0.138211669921875,-0.0017292315606027842,-0.004343795124441385,0.0005649913800880313
1772702139080261600,0.14826171875,0.001005824888125062,0.0015609869733452797,-0.000649763154797256
1772702139090311000,0.158310791015625,-0.0018040764844045043,-0.002232152968645096,-0.0011781343491747975
1772702139100360700,0.168360595703125,-0.0010785397607833147,0.003343513235449791,0.0009657918708398938
1772702139110409700,0.17840966796875,0.0007393339183181524,0.00009738653898239136,-0.0003934855340048671
1772702139120459800,0.188459716796875,0.0013953573070466518,-0.000738760456442833,-0.001333711901679635
1772702139130508500,0.198508544921875,-0.0008930969052016735,0.00019201450049877167,0.0007278411649167538
1772702139140558600,0.20855859375,-0.0006353985518217087,-0.00022111833095550537,0.0007046609534882009
1772702139150608000,0.21860791015625,-0.002391220536082983,-0.0007803821936249733,0.00029027307755313814
1772702139160657700,0.22865771484375,-0.0007307310588657856,-0.0001764139160513878,-0.0003211586154066026
1772702139170706700,0.238706787109375,0.0002082994906231761,0.00004915613681077957,0.0005366455297917128
1772702139180756700,0.2487568359375,-0.002499259077012539,0.0011949650943279266,-0.004060060251504183
1772702139190805800,0.2588056640625,-0.0012638187035918236,0.0010458286851644516,-0.0009532166877761483
1772702139200855800,0.268855712890625,0.0013361325254663825,0.0003956700675189495,-0.000039958860725164413
1772702139210904800,0.27890478515625,-0.0019858945161104202,0.0024899793788790703,-0.0028991287108510733
1772702139220954600,0.28895458984375,-0.0006110826507210732,-0.002202157862484455,0.0002227647346444428
1772702139231004700,0.299004638671875,0.0002962562721222639,-0.0008719093166291714,-0.00181215675547719
1772702139241053700,0.3090537109375,0.0010762918973341584,0.0014884602278470993,0.0002806800475809723
1772702139251103700,0.319103759765625,-0.0017514524515718222,0.00038830796256661415,0.003087385557591915
1772702139261152800,0.32915283203125,0.0024708122946321964,0.0002938462421298027,-0.0007574796327389777
1772702139271202800,0.339202880859375,0.00041085726115852594,0.00007147248834371567,-0.0011140769347548485
1772702139281251600,0.34925146484375,0.002768900478258729,0.0008902368135750294,-0.00021920684957876801
1772702139291301600,0.359301513671875,0.0005307799438014627,0.0006849071942269802,0.001351259183138609
1772702139301351000,0.369350830078125,0.00089022156316787,-0.0023386836983263493,0.0011527349706739187
1772702139311400700,0.379400634765625,-0.00035027891863137484,-0.000001227017492055893,-0.0002566098119132221
1772702139321449700,0.38944970703125,-0.0011446945136412978,-0.002882789820432663,0.0024985168129205704
1772702139331499800,0.399499755859375,0.002383461222052574,0.0009154104627668858,0.00043749628821387887
1772702139341548800,0.409548828125,-0.00042892969213426113,0.0009566079825162888,0.002114549046382308
1772702139351598800,0.419598876953125,-0.001624422613531351,-0.0009712544269859791,0.0027949868235737085
1772702139361647600,0.429647705078125,0.000006135320290923119,-0.0011763893999159336,0.002569335512816906
1772702139371697700,0.43969775390625,0.0006322445115074515,0.001315264031291008,0.0029669455252587795
1772702139381746700,0.44974658203125,-0.0011810134164988995,0.0017158887349069118,0.0005089838523417711
1772702139391796700,0.459796630859375,0.0018411418423056602,-0.0012689819559454918,0.0008762337965890765
1772702139401845800,0.469845703125,0.002294235397130251,0.001493596937507391,-0.0005403614486567676
1772702139411895800,0.479895751953125,0.001378907123580575,0.0019524595700204372,-0.00045087921898812056
1772702139421944600,0.489944580078125,0.0026958363596349955,-0.0010723504237830639,-0.0002715234877541661
1772702139431994600,0.49999462890625,0.0016343003371730447,-0.001314698252826929,-0.0016893905121833086
1772702139442044000,0.5100439453125,0.0003735605860128999,-0.00014131423085927963,0.0029291340615600348
1772702139452093700,0.52009375,-0.00020168221089988947,0.001008638646453619,-0.0007034175214357674
1772702139462142700,0.530142822265625,-0.000216148910112679,0.00014274148270487785,-0.0012295118067413568
1772702139472192800,0.54019287109375,-0.0005927198799327016,0.0005139862187206745,-0.0006646552938036621
1772702139482241500,0.550241455078125,-0.0024125552736222744,-0.0007681269198656082,-0.0004823807394132018
1772702139492291600,0.56029150390625,-0.00005778821650892496,0.0032029123976826668,-0.0016453831922262907
1772702139502341600,0.570341552734375,-0.0014429865404963493,0.00019743992015719414,-0.0007039501215331256
1772702139512390700,0.580390625,0.00019831955432891846,-0.0012973924167454243,0.0021288543939590454
1772702139522440700,0.590440673828125,-0.00040248618461191654,-0.0007703611627221107,-0.0021730749867856503
1772702139532489700,0.60048974609375,0.0024814510252326727,-0.0009900722652673721,-0.000360261183232069
1772702139542539300,0.610539306640625,-0.0006345335859805346,0.0010471651330590248,0.0013831040123477578
1772702139552588300,0.62058837890625,-0.0011815469479188323,-0.0015954901464283466,0.0008275685831904411
1772702139562638300,0.630638427734375,-0.0011381396325305104,-0.0001264810562133789,-0.0019150963053107262
1772702139572687000,0.64068701171875,0.0009583007195033133,-0.0002942602150142193,0.002375788753852248
1772702139582737200,0.650737060546875,-0.0008680840255692601,-0.0008908221498131752,-0.0010256546083837748
1772702139592786400,0.660786376953125,-0.00039270962588489056,-0.0006873565725982189,0.0012438911944627762
1772702139602836500,0.67083642578125,0.00031622202368453145,0.0001257830299437046,0.003071362618356943
1772702139612885200,0.68088525390625,-0.003222586354240775,0.0016858628951013088,-0.00039767101407051086
1772702139622935300,0.690935302734375,0.00026641198201105,-0.00038446439430117607,0.00027030479395762086
1772702139632984000,0.700984130859375,-0.001206316170282662,0.000578001607209444,-0.00006418820703402162
1772702139643034000,0.7110341796875,0.0025975042954087257,-0.002276455983519554,0.0017885823035612702
1772702139653083400,0.72108349609375,0.0005950735067017376,0.0005560819990932941,0.0009736549691297114
1772702139663133200,0.73113330078125,0.0035842331126332283,-0.00007538450881838799,0.00005740366759710014
1772702139673182200,0.74118212890625,0.0026111139450222254,0.0002513853833079338,0.00270884670317173
1772702139683232300,0.751232177734375,-0.002000140957534313,0.001417024526745081,-0.000022334745153784752
1772702139693281300,0.76128125,-0.00002833642065525055,0.0005395128391683102,0.0001614233769942075
1772702139703331300,0.771331298828125,-0.0009526340290904045,-0.0023432597517967224,-0.0001877923496067524
1772702139713380400,0.78138037109375,-0.00036487437319010496,0.002211811486631632,-0.0016661130357533693
1772702139723430100,0.79143017578125,-0.000696878763847053,-0.0005545979365706444,-0.0010501013603061438
1772702139733479200,0.801479248046875,-0.001560009317472577,-0.0013535460457205772,-0.0009571571135893464
1772702139743529200,0.811529296875,-0.0015819156542420387,0.00011790310963988304,-0.0018656097818166018
1772702139753578200,0.821578125,0.0009928285144269466,-0.0011819861829280853,0.00010433042189106345
1772702139763628300,0.831628173828125,0.0018962306203320622,-0.0012162337079644203,0.0013122311793267727
1772702139773677300,0.84167724609375,0.0010520085925236344,0.0018740985542535782,-0.0005269477842375636
1772702139783727000,0.85172705078125,0.0003448527422733605,0.0009573441930115223,0.00018731714226305485
1772702139793777200,0.861777099609375,-0.001328677637502551,-0.0009398921392858028,0.002650741022080183
1772702139803826400,0.871826416015625,0.00009149033576250076,-0.0007143905386328697,0.00101753871422261
1772702139813876200,0.881876220703125,-0.0033160243183374405,-0.0008978825062513351,-0.0007992697646841407
1772702139823925200,0.89192529296875,0.0010467858519405127,0.0002672756090760231,0.00098109757527709
1772702139833975300,0.901975341796875,0.0005266704829409719,0.0004973728209733963,0.0008261015173047781
1772702139844024000,0.912024169921875,0.00022028654348105192,-0.0004111090674996376,0.0008523957221768796
1772702139854074000,0.92207421875,-0.00027559406589716673,-0.0006694355979561806,0.0010031305719166994
1772702139864123400,0.932123291015625,-0.0016710800118744373,-0.0006683231331408024,-0.0016258696559816599
1772702139874173200,0.942173095703125,-0.00008676561992615461,-0.0005226484499871731,0.00026231148513033986
1772702139884222200,0.95222216796875,0.0001264015445485711,-0.0004665045998990536,-0.0014883708208799362
1772702139894272300,0.962272216796875,-0.004373542033135891,0.0004925001412630081,-0.002361887600272894
1772702139904321300,0.9723212890625,-0.001832048874348402,-0.00032040709629654884,-0.0004599973326548934
1772702139914371300,0.982371337890625,0.0006010150536894798,-0.0010162913240492344,-0.003139936365187168
1772702139924420400,0.99242041015625,-0.0006177349714562297,0.00102237518876791,-0.0008624112815596163
1772702139934470100,1.00247021484375,-0.00048457691445946693,-0.00040561147034168243,0.0008848886936903
1772702139944519200,1.012519287109375,0.00010937091428786516,0.0032122419215738773,-0.0006567215314134955
1772702139954569200,1.0225693359375,0.00029286270728334785,0.00047531118616461754,-0.0017147953622043133
1772702139964618200,1.0326181640625,-0.001726471004076302,0.0024814861826598644,0.002689656335860491
1772702139974668300,1.042668212890625,-0.0021680230274796486,0.00029769353568553925,0.0015104085905477405
1772702139984717300,1.05271728515625,-0.00018991227261722088,0.00004406087100505829,-0.0004834237042814493
1772702139994767000,1.06276708984375,-0.0013345387997105718,-0.00042678555473685265,0.00036692366120405495
1772702140004816400,1.07281640625,-0.001375641324557364,0.004370281007140875,0.0018818601965904236
1772702140014866400,1.082866455078125,0.00012425112072378397,0.00037154415622353554,0.00010473272413946688
1772702140024916200,1.092916259765625,0.0016753657255321741,-0.0009919083677232265,-0.0003760982654057443
1772702140034965200,1.10296533203125,0.00022660614922642708,-0.0008204011246562004,-0.0005939449183642864
1772702140045015300,1.113015380859375,0.0013119340874254704,0.00043350178748369217,-0.0003762287669815123
1772702140055064300,1.123064208984375,0.0016730587230995297,-0.0010900930501520634,0.0006453598034568131
1772702140065114400,1.1331142578125,-0.0014171820366755128,-0.0015896209515631199,-0.0026018924545496702
1772702140075163400,1.143163330078125,-0.0001260816352441907,-0.00295821949839592,0.0005454313941299915
1772702140085213200,1.153213134765625,0.0013167320284992456,-0.0007119379006326199,-0.0028386423364281654
1772702140095262200,1.16326220703125,-0.0016641441034153104,0.0003954046405851841,0.00032625830499455333
1772702140105312300,1.173312255859375,0.00007684959564357996,-0.00039678672328591347,-0.0008682450861670077
1772702140115361300,1.183361328125,-0.00250002508983016,0.0023689065128564835,-0.0010072621516883373
1772702140125411300,1.193411376953125,-0.0014668438816443086,-0.0006526317447423935,0.0005941709387116134
1772702140135460400,1.20346044921875,-0.000361632090061903,-0.0008566295728087425,-0.0030477019026875496
1772702140145510100,1.21351025390625,-0.0022904728539288044,-0.00042803259566426277,-0.0018751174211502075
1772702140155559400,1.223559326171875,0.0004408651730045676,-0.0011401618830859661,-0.000001849868567660451
1772702140165609500,1.233609375,0.00012102106120437384,-0.0009244494140148163,0.0011348578846082091
1772702140175658200,1.243658203125,0.0034699460957199335,0.0014180666767060757,-0.0016020727343857288
1772702140185708300,1.253708251953125,0.00009279313962906599,-0.0009761196561157703,0.0009024344617500901
1772702140195757000,1.263757080078125,-0.0002803157549351454,0.0023376517929136753,0.0005732678109779954
1772702140205807000,1.27380712890625,0.001335338456556201,0.00023445440456271172,0.0011978545226156712
1772702140215856400,1.2838564453125,-0.000723285018466413,0.0005114232189953327,-0.0002993746311403811
1772702140225906400,1.293906494140625,0.001908706733956933,0.0006813649088144302,0.0004780404269695282
1772702140235955200,1.303955078125,0.001635466469451785,-0.0006131981499493122,0.0008716556476429105
1772702140246005200,1.314005126953125,-0.0014679944142699242,-0.000153388362377882,0.0008336647879332304
1772702140256054300,1.32405419921875,-0.0007188472663983703,-0.00040825270116329193,0.0009420554270036519
1772702140266104300,1.334104248046875,-0.0005635879933834076,0.0031247055158019066,0.0016383309848606586
1772702140276153300,1.3441533203125,0.0007011471898294985,-0.0017182528972625732,-0.0008967320318333805
1772702140286203100,1.354203125,0.0011885042767971754,0.0004655439406633377,0.0019993851892650127
1772702140296252200,1.364252197265625,-0.0013790492666885257,-0.0013363505713641644,-0.0006928044022060931
1772702140306302200,1.37430224609375,-0.0010086081456393003,-0.0016399375163018703,-0.00025972025468945503
1772702140316351200,1.384351318359375,0.0011139311827719212,-0.0005943803116679192,0.000677446136251092
1772702140326401300,1.3944013671875,-0.0011010909220203757,0.00021933717653155327,0.0005578496493399143
1772702140336451300,1.404451416015625,0.001329043647274375,-0.000519690103828907,-0.0009449720964767039
1772702140346500000,1.4145,0.000210065976716578,-0.0003515365533530712,0.0010527170961722732
1772702140356550100,1.424550048828125,0.0019738776609301567,0.0015819184482097626,-0.0015657029580324888
1772702140366599400,1.434599365234375,0.00014667876530438662,0.0006389073096215725,-0.002559006679803133
1772702140376649200,1.444649169921875,-0.0002956722164526582,0.0003022830933332443,-0.001499068341217935
1772702140386698200,1.4546982421875,0.002782672643661499,-0.0002686893567442894,0.0025245605502277613
1772702140396748300,1.464748291015625,0.000018843915313482285,0.0005259979516267776,-0.001141280634328723
1772702140406797000,1.474797119140625,0.0026677167043089867,-0.0012350738979876041,-0.00017134688096120954
1772702140416847000,1.48484716796875,-0.0007299443241208792,0.000012350734323263168,0.001383406575769186
1772702140426896400,1.494896484375,-0.00033899524714797735,-0.0012007104232907295,0.0011646200437098742
1772702140436946200,1.5049462890625,0.0006610217969864607,0.0010027894750237465,-0.00032728275982663035
1772702140446995200,1.5149951171875,0.00003792892675846815,0.0003610621206462383,0.0004868402029387653
1772702140457045200,1.525045166015625,-0.00010961014777421951,0.00022417539730668068,0.0016469131223857403
1772702140467094300,1.53509423828125,-0.000724439974874258,0.0009227949194610119,0.00027519988361746073
1772702140477144300,1.545144287109375,-0.0017585454043000937,0.0011496967636048794,0.0013876023003831506
1772702140487193300,1.555193359375,0.0033164143096655607,-0.0024915733374655247,0.0008552884683012962
1772702140497243100,1.5652431640625,-0.00032705627381801605,-0.0014689196832478046,-0.001398012158460915
1772702140507292200,1.575292236328125,0.0025724293664097786,0.002575529273599386,0.0011874951887875795
1772702140517342200,1.58534228515625,-0.00107050861697644,-0.0001637977547943592,-0.0002660580794326961
1772702140527391200,1.59539111328125,-0.0015817858511582017,0.0010931198485195637,0.0015040277503430843
1772702140537441300,1.605441162109375,0.00005232973489910364,-0.00010077515617012978,-0.0012563387863337994
1772702140547490300,1.615490234375,0.0020665819756686687,0.00022997986525297165,-0.0013784714974462986
1772702140557540400,1.625540283203125,-0.0009734162595123053,0.0013248054310679436,0.0002367356646573171
1772702140567589400,1.63558935546875,-0.0024396940134465694,-0.00011643720790743828,-0.002063857391476631
1772702140577639400,1.645639404296875,-0.0007560437079519033,-0.0013641281984746456,-0.0018558643059805036
1772702140587688400,1.6556884765625,0.0025895037688314915,0.00005617272108793259,0.0001773719268385321
1772702140597738200,1.66573828125,-0.001421483000740409,0.000652986578643322,-0.0008644567569717765
1772702140607787300,1.675787353515625,0.0001298942370340228,-0.000006058253347873688,0.0015263253590092063
1772702140617837300,1.68583740234375,-0.00166907103266567,0.000578771810978651,-0.001956290565431118
1772702140627887400,1.695887451171875,-0.00014329724945127964,-0.00014308607205748558,0.0020896107889711857
1772702140637936400,1.705936279296875,-0.0021925996989011765,0.0021237963810563087,0.0022049255203455687
1772702140647986400,1.715986328125,-0.00038425205275416374,-0.00293068028986454,-0.0010052877478301525
1772702140658035200,1.72603515625,-0.0008633547695353627,0.000015042256563901901,-0.0011038247030228376
1772702140668085200,1.736085205078125,-0.0006673649186268449,-0.00023889634758234024,-0.001041493145748973
1772702140678134500,1.746134521484375,0.00047326693311333656,-0.00043357349932193756,0.000305800000205636
1772702140688184300,1.756184326171875,0.001830395543947816,-0.000623214989900589,0.00012293612235225737
1772702140698233300,1.7662333984375,-0.0011837701313197613,0.0009504463523626328,-0.004296579398214817
1772702140708283400,1.776283447265625,-0.0028476431034505367,0.00006774766370654106,-0.00031628168653696775
1772702140718332400,1.78633251953125,-0.000740283983759582,-0.0008478472009301186,-0.002063581719994545
1772702140728382500,1.796382568359375,0.00004287273623049259,-0.0032545323483645916,0.0001581392134539783
1772702140738431500,1.806431396484375,0.00009826652240008116,0.0005809525027871132,-0.0004101793747395277
1772702140748481300,1.816481201171875,-0.001098992070183158,0.0006294087506830692,-0.0013455816078931093
1772702140758530300,1.8265302734375,-0.0012742280960083008,-0.0002835225313901901,0.001068041194230318
1772702140768580400,1.836580322265625,0.0037762648425996304,-0.00038229674100875854,0.00026552315102890134
1772702140778629400,1.84662939453125,-0.0012331408215686679,0.0005556680262088776,-0.0021672744769603014
1772702140788679400,1.856679443359375,-0.00164596748072654,-0.0001706560142338276,0.0022467956878244877
1772702140798728200,1.866728271484375,0.0021397159434854984,0.00037129689007997513,0.002572500379756093
1772702140808778200,1.8767783203125,-0.000010100309737026691,0.000899741891771555,0.000574503734242171
1772702140818827300,1.8868271484375,-0.0020319721661508083,0.0010909573175013065,-0.0004702543665189296
1772702140828877600,1.896877685546875,0.0026073982007801533,-0.0010824762284755707,-0.002129262313246727
1772702140838926300,1.90692626953125,0.00017486675642430782,0.0009023780003190041,-0.001145757152698934
1772702140848976400,1.916976318359375,-0.0012797914678230882,0.00007710559293627739,-0.00002025178400799632
1772702140859025200,1.927025146484375,0.0008555310196243227,0.0007567442953586578,0.0002966643951367587
1772702140869075200,1.9370751953125,0.0010334468679502606,-0.0008356310427188873,0.0011270560789853334
1772702140879124500,1.94712451171875,-0.00035565788857638836,0.002495716791599989,0.00109829381108284
1772702140889174500,1.957174560546875,0.0015976508148014545,-0.00291459821164608,-0.00046088930685073137
1772702140899223300,1.967223388671875,0.0008591563091613352,0.00009024608880281448,-0.0009405246819369495
1772702140909273300,1.9772734375,0.00037309376057237387,-0.001701465342193842,-0.0005503041320480406
1772702140919323400,1.987323486328125,0.002396297175437212,-0.00047694379463791847,-0.0032419608905911446
1772702140929372400,1.997372314453125,0.0008954489603638649,-0.0015795226208865643,-0.0020583029836416245
1772702140939422500,2.00742236328125,0.0006435138639062643,0.00008202390745282173,0.0003979304456152022
1772702140949471200,2.01747119140625,0.001527754939161241,0.0007492052391171455,-0.001332056475803256
1772702140959521300,2.027521240234375,-0.0007220833795145154,0.00022323057055473328,-0.002017288003116846
1772702140969570300,2.0375703125,0.0009907427011057734,-0.0011454736813902855,0.002270093420520425
1772702140979620400,2.047620361328125,0.0011910123284906149,0.0008633485995233059,0.0031587902922183275
1772702140989669400,2.05766943359375,0.0006234058528207242,0.0012107943184673786,0.0005055959918536246
1772702140999719400,2.067719482421875,0.0008345945389010012,-0.0011362493969500065,0.00241668033413589
1772702141009768200,2.077768310546875,0.0014436265919357538,0.0000769253820180893,-0.00045899319229647517
1772702141019818200,2.087818359375,0.0009368270402774215,-0.0015787617303431034,-0.001074716099537909
1772702141029867500,2.097867431640625,-0.00011275627184659243,0.0017031282186508179,0.0009591268608346581
1772702141039917300,2.107917236328125,-0.0002853291807696223,0.0010546483099460602,0.0006336885853670537
1772702141049966300,2.11796630859375,-0.000735418638214469,0.0006682821549475193,-0.00072661810554564
1772702141060016400,2.128016357421875,-0.0008651143871247768,0.0013668290339410305,-0.0020464807748794556
1772702141070065200,2.138065185546875,0.0033304004464298487,0.0000405898317694664,-0.0002086975728161633
1772702141080115200,2.148115234375,0.00005844072438776493,-0.0008148173801600933,-0.0015304244589060545
1772702141090164500,2.15816455078125,0.00023874500766396523,-0.00043407268822193146,0.0005523572908714414
1772702141100214300,2.16821435546875,0.00003421423025429249,0.0007758010178804398,0.0001177293888758868
1772702141110263300,2.17826318359375,0.0010961333755403757,-0.002196124754846096,0.0013282307190820575
1772702141120313300,2.188313232421875,0.0013933421578258276,0.001006592996418476,-0.002059576567262411
1772702141130362400,2.1983623046875,0.00030809128656983376,-0.002070475835353136,-0.001993309473618865
1772702141140412400,2.208412353515625,0.0035864426754415035,0.0003729742020368576,0.0004429503169376403
1772702141150461400,2.21846142578125,0.0009936979040503502,0.00028098374605178833,-0.0006068882066756487
1772702141160511200,2.22851123046875,0.0014584194868803024,-0.0008886763826012611,-0.001628476893529296
1772702141170560300,2.238560302734375,0.0016993101453408599,-0.0013348506763577461,0.0004649921611417085
1772702141180610300,2.2486103515625,0.0033597908914089203,-0.0010807854123413563,0.0021595614962279797
1772702141190659300,2.258659423828125,0.0008292400743812323,-0.0023171245120465755,-0.0015462886076420546
1772702141200709400,2.26870947265625,-0.0003180496860295534,-0.0000856621190905571,-0.0013145935954526067
1772702141210758400,2.27875830078125,0.0030246200039982796,0.0009654723107814789,0.001665102201513946
1772702141220808200,2.28880810546875,0.000006459420546889305,-0.0018015517853200436,-0.004017018247395754
1772702141230858200,2.298858154296875,0.0025234653148800135,-0.000977946911007166,0.00024141190806403756
1772702141240907500,2.308907470703125,0.00003340968396514654,0.00014058081433176994,-0.00028189923614263535
1772702141250957300,2.318957275390625,0.0007730589713901281,-0.0014281445182859898,0.0006229396094568074
1772702141261006300,2.32900634765625,-0.0033361983951181173,0.0010874774307012558,-0.004101241938769817
1772702141271056400,2.339056396484375,0.0038304459303617477,-0.00017446419224143028,0.002036875346675515
1772702141281105200,2.349105224609375,0.002318835351616144,-0.0014341394416987896,0.002615846460685134
1772702141291155500,2.359155517578125,0.0017006660345941782,-0.0017843004316091537,0.002228846773505211
1772702141301204500,2.36920458984375,0.0008010502206161618,0.0010727383196353912,0.00020697482977993786
1772702141311254300,2.379254150390625,0.00272215623408556,-0.0022222432307899,0.0015353980707004666
1772702141321303300,2.38930322265625,-0.0008366259280592203,-0.002403870690613985,0.0007742666057310998
1772702141331353300,2.399353271484375,-0.002455126028507948,-0.0009915819391608238,-0.0001683087320998311
1772702141341402400,2.40940234375,0.0010535885812714696,-0.0012294021435081959,-0.001458610175177455
1772702141351452400,2.419452392578125,0.000403042184188962,0.0002488563768565655,0.0038985558785498142
1772702141361501400,2.42950146484375,0.0000903870677575469,0.0012877555564045906,0.0020228917710483074
1772702141371551200,2.43955126953125,0.0015736944042146206,-0.0003793146461248398,-0.000626418914180249
1772702141381600300,2.449600341796875,-0.0005166208138689399,0.0011280346661806107,0.0020181001164019108
1772702141391650600,2.459650634765625,0.0007213828503154218,-0.0002278052270412445,-0.0031815478578209877
1772702141401699300,2.46969921875,-0.0024565672501921654,0.00031228410080075264,-0.0012731264578178525
1772702141411749400,2.479749267578125,0.0004230070626363158,-0.0020104926079511642,0.0011562197469174862
1772702141421798100,2.489798095703125,0.0012746859574690461,-0.00255617406219244,0.0009407700272276998
1772702141431848200,2.49984814453125,-0.0017226755153387785,0.0008803415112197399,-0.0010339961154386401
1772702141441897500,2.5098974609375,-0.000700554228387773,-0.0013780188746750355,0.00010024412767961621
1772702141451947500,2.519947509765625,0.0005820693331770599,0.0026627080515027046,-0.00166453723795712
1772702141461996300,2.529996337890625,-0.002022502012550831,-0.0008420119993388653,0.0028148998972028494
1772702141472046300,2.54004638671875,0.0031662876717746258,-0.0004044724628329277,0.00019502229406498373
1772702141482095400,2.550095458984375,-0.0010923735098913312,-0.0005770456045866013,-0.0016489505069330335
1772702141492145400,2.5601455078125,-0.0010840335162356496,-0.0007074368186295033,0.002460693707689643
1772702141502194400,2.5701943359375,0.00113943952601403,-0.00046615442261099815,-0.000805673364084214
1772702141512244200,2.580244140625,-0.0013626812724396586,0.001678375992923975,-0.0011356191243976355
1772702141522294300,2.590294189453125,0.001328442944213748,0.0011452105827629566,0.000419134390540421
1772702141532343300,2.60034326171875,-0.0005344412056729198,-0.000011922791600227356,-0.002923006657510996
1772702141542393300,2.610393310546875,-0.001522740232758224,-0.0006313738413155079,0.0027636410668492317
1772702141552442000,2.620442138671875,0.0009445875184610486,-0.00013956986367702484,-0.00011384417302906513
1772702141562492200,2.6304921875,0.0012468562927097082,-0.000627460889518261,-0.0018877757247537374
1772702141572541000,2.640541015625,-0.0004845560761168599,0.0019594524055719376,-0.001906091347336769
1772702141582591000,2.650591064453125,-0.0024885847233235836,0.0004800669848918915,0.00018102783360518515
1772702141592640300,2.66064013671875,0.001058124820701778,-0.0013477513566613197,0.0018909783102571964
1772702141602690000,2.67068994140625,0.0015244443202391267,0.00032711029052734375,0.001980194356292486
1772702141612739000,2.680739013671875,-0.0008160333381965756,0.0018243161030113697,-0.004076843615621328
1772702141622789000,2.6907890625,-0.0005406624404713511,-0.0007789237424731255,-0.0013297931291162968
1772702141632838000,2.700837890625,0.0012681600637733936,-0.0015544374473392963,0.0020365756936371326
1772702141642888200,2.71088818359375,-0.0017569244373589754,-0.002131278160959482,-0.0016108895651996136
1772702141652937200,2.720937255859375,0.00011127837933599949,-0.0005629286170005798,0.0005780170322395861
1772702141662987000,2.730987060546875,-0.0006682288367301226,-0.0017877165228128433,0.00025098086916841567
1772702141673036000,2.7410361328125,0.0013596417848020792,-0.0018291068263351917,0.0006267279386520386
1772702141683086000,2.751086181640625,-0.00001561467070132494,0.0003895731642842293,-0.0020044753327965736
1772702141693135000,2.761135009765625,-0.0014791955472901464,0.0005342592485249043,0.00040516367880627513
1772702141703185200,2.77118505859375,0.0023528269957751036,-0.0008362033404409885,0.0009689548751339316
1772702141713234200,2.781234130859375,-0.0007254821248352528,-0.0010239975526928902,0.0003563555656000972
1772702141723284000,2.791283935546875,-0.002547084353864193,0.0006892140954732895,-0.002529712161049247
1772702141733333000,2.8013330078125,-0.0021071862429380417,0.00018777884542942047,0.0031291688792407513
1772702141743383300,2.81138330078125,0.002131767338141799,-0.0000929185189306736,-0.0016293675871565938
1772702141753432000,2.82143212890625,0.0007882823119871318,-0.0008845590054988861,-0.0015900438884273171
1772702141763482000,2.831482177734375,0.001169380615465343,0.00007231486961245537,0.00011784120579250157
1772702141773531100,2.84153125,0.0010891298297792673,-0.0006217900663614273,-0.0021611617412418127
1772702141783581000,2.851580810546875,0.0010601013200357556,0.002484520897269249,0.0008034690981730819
1772702141793630200,2.861630126953125,0.0005733665893785655,-0.0006704456172883511,-0.00009593990398570895
1772702141803680300,2.87168017578125,0.0008002679096534848,0.002585269045084715,0.0007789084920659661
1772702141813729000,2.88172900390625,0.000028801732696592808,0.0019242092967033386,-0.0005172631936147809
1772702141823779000,2.891779052734375,0.001422167639248073,-0.0006899493746459484,0.0008553300285711884
1772702141833829000,2.9018291015625,0.0016487112734466791,-0.002251794096082449,-0.0009079810115508735
1772702141843878100,2.911878173828125,0.001184522290714085,0.000005767215043306351,-0.002137828851118684
1772702141853928200,2.92192822265625,0.0020099421963095665,0.00017457222566008568,0.0007496747421100736
1772702141863977200,2.931977294921875,-0.0020982499700039625,-0.0012515503913164139,-0.0007747187046334147
1772702141874027000,2.942027099609375,0.0003139415639452636,-0.0005533844232559204,0.0034585315734148026
1772702141884076000,2.952075927734375,-0.001850942033343017,0.0022530551068484783,-0.0015644567320123315
1772702141894126000,2.9621259765625,-0.0010011859703809023,-0.00107484869658947,-0.000925061758607626
1772702141904175000,2.972175048828125,0.0009320026729255915,-0.0004985406994819641,0.0027133491821587086
1772702141914225200,2.98222509765625,0.0007275837706401944,-0.0010167304426431656,0.0001645863230805844
1772702141924274200,2.992274169921875,-0.0016644673887640238,-0.001410079188644886,-0.0007981463568285108
1772702141934324000,3.002323974609375,-0.0005547786131501198,0.0023080268874764442,0.00024528856738470495
1772702141944373200,3.012373291015625,0.0009352599736303091,0.0005964133888483047,0.0010383778717368841
1772702141954423300,3.02242333984375,0.0014359485357999802,-0.0013547050766646862,0.001987489638850093
1772702141964472000,3.03247216796875,-0.0005941791459918022,0.0005864729173481464,-0.0007896547904238105
1772702141974522000,3.042522216796875,0.00002427713479846716,-0.000012473203241825104,-0.0009201712091453373
1772702141984571000,3.05257080078125,-0.0011062347330152988,-0.0009528356604278088,-0.00023520615650340915
1772702141994621000,3.062620849609375,0.00132978823967278,0.00029525812715291977,0.0009595104493200779
1772702142004670200,3.072670166015625,-0.003397855209186673,0.00016156770288944244,0.0009294167393818498
1772702142014720300,3.08272021484375,0.0006110527319833636,-0.00012651970610022545,0.0014374135062098503
1772702142024769000,3.09276904296875,0.000032880459912121296,0.0003840080462396145,0.001582023105584085
1772702142034819000,3.102819091796875,0.0006761414697393775,-0.00023730285465717316,-0.00006787420716136694
1772702142044868000,3.1128681640625,-0.00013772060628980398,-0.0009068213403224945,0.00021255662431940436
1772702142054918100,3.122918212890625,-0.0008532627252861857,-0.0010288483463227749,0.0014809459680691361
1772702142064967200,3.13296728515625,-0.0006633793236687779,-0.0005920897237956524,-0.0018221726641058922
1772702142075017000,3.143016845703125,-0.001361514558084309,0.0009494922123849392,0.0007971783634275198
1772702142085066000,3.15306591796875,0.0024729047436267138,-0.0006832913495600224,0.00027626403607428074
1772702142095116000,3.163115966796875,0.0015731325838714838,-0.0003363960422575474,0.00104164716321975
1772702142105165000,3.1731650390625,-0.0009858988923951983,-0.00024371780455112457,-0.0010425426298752427
1772702142115215000,3.183215087890625,-0.0008981769206002355,0.00026893196627497673,0.0006772285560145974
1772702142125264100,3.19326416015625,-0.0013104340760037303,-0.00042428914457559586,-0.0004444948863238096
1772702142135314000,3.20331396484375,-0.0011883450206369162,0.0005198800936341286,0.0009942293399944901
1772702142145364000,3.213364013671875,-0.0008357425685971975,0.000630667433142662,0.00020566731109283864
1772702142155413200,3.223413330078125,0.00018053047824651003,0.0002729673869907856,-0.0030355677008628845
1772702142165463300,3.23346337890625,-0.0016671707853674889,-0.00039042625576257706,0.00022920154151506722
1772702142175512000,3.243511962890625,-0.002578906249254942,0.00009910156950354576,-0.0005788106936961412
1772702142185562000,3.25356201171875,-0.00031548587139695883,-0.0007648281753063202,0.0014262832701206207
1772702142195611000,3.26361083984375,0.000009058276191353798,-0.0009968383237719536,-0.0001297714188694954
1772702142205661200,3.2736611328125,-0.00023755047004669905,-0.0009544938802719116,0.0010478784097358584
1772702142215710200,3.283710205078125,-0.0008372901938855648,0.00040410319343209267,-0.0020859495270997286
1772702142225760000,3.293760009765625,0.00010387098882347345,-0.0008201519958674908,0.0006448558997362852
1772702142235809000,3.30380908203125,-0.001396986423060298,-0.00195442046970129,-0.0020148237235844135
1772702142245859000,3.313859130859375,0.00048267265083268285,-0.001197549980133772,0.0030931192450225353
1772702142255908000,3.323908203125,-0.00015116238500922918,-0.002261570654809475,0.002202032133936882
1772702142265958100,3.333958251953125,0.0011540527921169996,0.002527325414121151,-0.0010624707210808992
1772702142276007200,3.344007080078125,0.0007047384278848767,-0.000041338615119457245,0.0022023983765393496
1772702142286057000,3.354056884765625,-0.002524610608816147,-0.0020176703110337257,-0.002042147796601057
1772702142296106000,3.36410595703125,-0.00015217636246234179,0.0004079076461493969,0.0008047207375057042
1772702142306156000,3.374156005859375,0.000028119655326008797,-0.0019053136929869652,-0.00039769650902599096
1772702142316205000,3.384205078125,0.002096261130645871,0.0003457912243902683,-0.0006432722439058125
1772702142326255000,3.394255126953125,-0.0009607813553884625,-0.0010696789249777794,-0.0010259684640914202
1772702142336304000,3.40430419921875,-0.0008134248200803995,-0.0003611641004681587,0.00047915015602484345
1772702142346354000,3.41435400390625,0.00036209437530487776,0.0003693411126732826,0.0009468012722209096
1772702142356403200,3.4244033203125,-0.0028912615962326527,-0.00005182530730962753,-0.00033972127130255103
1772702142366453200,3.434453369140625,-0.0011772509897127748,-0.0013700895942747593,-0.0028907631058245897
1772702142376502000,3.444501953125,0.0024315682239830494,-0.0008630701340734959,0.0012930268421769142
1772702142386552000,3.454552001953125,-0.001011632732115686,0.000022164545953273773,-0.0001613254426047206
1772702142396601000,3.46460107421875,-0.00019690836779773235,0.0009893137030303478,-0.0007837305893190205
1772702142406651100,3.474651123046875,0.0006947179790586233,0.0006569507531821728,-0.00034404266625642776
1772702142416700200,3.4847001953125,0.0014602609444409609,-0.0016015325672924519,0.000819808745291084
1772702142426750200,3.494750244140625,0.0007814212003722787,-0.003524335101246834,0.0003995619190391153
1772702142436799000,3.504799072265625,0.00035493046743795276,-0.0005360948853194714,-0.0030376333743333817
1772702142446849000,3.51484912109375,0.0009911597007885575,0.0024911207146942616,0.0017075869254767895
1772702142456899000,3.524899169921875,-0.001094004837796092,0.0005108672194182873,-0.0006781987613067031
1772702142466948000,3.534947998046875,-0.00052888214122504,0.0009321798570454121,-0.0020627761259675026
1772702142476998100,3.544998046875,0.000554867263417691,-0.001162055879831314,0.0021051394287496805
1772702142487047200,3.555047119140625,-0.0004395571304485202,-0.0026744650676846504,0.00039192792610265315
1772702142497097000,3.565096923828125,-0.0013772170059382915,-0.00004874682053923607,-0.0029786366503685713
1772702142507146200,3.575146240234375,-0.0003036967245861888,0.0013797730207443237,-0.0006017652340233326
1772702142517196300,3.5851962890625,0.0021156626753509045,-0.000257349107414484,0.0028605228289961815
1772702142527245000,3.5952451171875,0.00019871926633641124,0.0017733112908899784,0.0007707402692176402
1772702142537295000,3.605295166015625,-0.0014800986973568797,0.0017950194887816906,0.0002608052745927125
1772702142547344100,3.61534423828125,-0.00036556588020175695,0.0011337571777403355,0.001706635463051498
1772702142557394200,3.625394287109375,0.003588505322113633,-0.0024000960402190685,0.0001326811034232378
1772702142567443500,3.635443359375,0.0018009915947914124,-0.00023521250113844872,-0.0001943550887517631
1772702142577493200,3.6454931640625,-0.000698641175404191,-0.0016518933698534966,-0.00045669422252103686
1772702142587542300,3.655542236328125,-0.00040143239311873913,-0.000737363938242197,-0.00042819842929020524
1772702142597592300,3.66559228515625,-0.0012161476770415902,0.0014377101324498653,0.0020988613832741976
1772702142607641300,3.675641357421875,-0.002356779295951128,0.000640625599771738,-0.0017310306429862976
1772702142617691400,3.68569140625,0.000054518342949450016,-0.0004394194111227989,0.0013187358854338527
1772702142627740200,3.695740234375,-0.001563884667120874,0.00008016312494874,-0.0008123255684040487
1772702142637790200,3.705790283203125,0.0016185129061341286,-0.0014689397066831589,0.0014797257026657462
1772702142647839200,3.715839111328125,0.000840337248519063,-0.002775220200419426,0.0006605373346246779
1772702142657889300,3.72588916015625,-0.001471310039050877,0.0002766512334346771,0.0016186991706490517
1772702142667938300,3.735938232421875,-0.00027448544278740883,0.00021699629724025726,0.002083953469991684
1772702142677988400,3.74598828125,-0.0014003930846229196,0.0012105475179851055,-0.0016947565600275993
1772702142688037000,3.756037109375,-0.0018533967668190598,-0.0002568545751273632,0.0009508276707492769
1772702142698087200,3.766087158203125,-0.0010331841185688972,-0.0010405145585536957,-0.0008394927135668695
1772702142708136400,3.776136474609375,-0.00043477187864482403,0.0004854765720665455,0.0010785158956423402
1772702142718186500,3.7861865234375,0.0013525593094527721,-0.0013400577008724213,-0.001504535204730928
1772702142728235300,3.7962353515625,0.0013451024424284697,0.0003374675288796425,0.0030217734165489674
1772702142738285300,3.806285400390625,0.0004140390083193779,0.00044894730672240257,-0.0017421940574422479
1772702142748334000,3.816333984375,0.00010298180859535933,-0.0021367156878113747,-0.0006766632432118058
1772702142758384000,3.826384033203125,-0.0010768688516691327,0.0006087557412683964,-0.0023585238959640265
1772702142768434200,3.83643408203125,0.0006725616403855383,-0.00039845146238803864,0.0016953398007899523
1772702142778483200,3.846483154296875,0.0015129523817449808,-0.00002655014395713806,-0.0003552755224518478
1772702142788533200,3.856533203125,-0.0008245041826739907,-0.0005842158570885658,0.0004157095681875944
1772702142798582300,3.866582275390625,0.0023273341357707977,-0.0004597483202815056,0.00116038101259619
1772702142808632300,3.87663232421875,-0.0014775240560993552,-0.00250372476875782,0.0006972573464736342
1772702142818681300,3.886681396484375,-0.0013976373011246324,0.00047934241592884064,-0.0003127800882793963
1772702142828731400,3.8967314453125,-0.0023049763403832912,-0.0012663602828979492,-0.0000025218469090759754
1772702142838780200,3.9067802734375,0.0004893032019026577,-0.0004799468442797661,-0.0009881631704047322
1772702142848830200,3.916830322265625,0.002438204362988472,0.0025195712223649025,0.0029676961712539196
1772702142858879200,3.926879150390625,0.0006913394317962229,-0.0008354047313332558,-0.0006968975067138672
1772702142868929000,3.936928955078125,-0.0034650559537112713,0.0016293511725962162,0.0007558568613603711
1772702142878978300,3.946978271484375,-0.0021116912830621004,-0.001389012672007084,0.0010641927365213633
1772702142889028400,3.9570283203125,-0.002928482834249735,0.0004975707270205021,-0.0007022819481790066
1772702142899077000,3.9670771484375,-0.0008248612284660339,-0.0037578665651381016,-0.00252331281080842
1772702142909127200,3.977127197265625,0.0014859635848551989,0.0013791043311357498,0.0003265356062911451
1772702142919176400,3.987176513671875,-0.0010538825299590826,0.0009955870918929577,0.0005271909176371992
1772702142929226200,3.997226318359375,0.00037836545379832387,0.0013585765846073627,-0.00024406053125858307
1772702142939275300,4.007275146484375,0.00048778572818264365,-0.0000868840143084526,-0.001190390670672059
1772702142949325300,4.0173251953125,0.00020975165534764528,-0.0024435152299702168,0.0031486977823078632
1772702142959374000,4.0273740234375,0.0010227785678580403,0.0012931060045957565,0.0005209494847804308
1772702142969424100,4.037424072265625,-0.00020733557175844908,0.001318405382335186,0.0007385297794826329
1772702142979473400,4.047473388671875,0.0003070489619858563,0.0004314929246902466,-0.0014646105701103806
1772702142989523200,4.057523193359375,-0.0015161510091274977,0.0017790524289011955,0.00006457645213231444
1772702142999572200,4.067572265625,-0.00022691208869218826,-0.0014037005603313446,-0.0006964142085053027
1772702143009622300,4.077622314453125,-0.0014682114124298096,0.0003760899417102337,0.001033841515891254
1772702143019671300,4.08767138671875,0.00008547399193048477,-0.0026646978221833706,-0.000930380541831255
1772702143029721300,4.097721435546875,0.001957143656909466,-0.0012332489714026451,-0.0009676647605374455
1772702143039770400,4.107770263671875,0.003716518636792898,-0.0008757715113461018,-0.0008460184908472002
1772702143049820200,4.117820068359375,-0.0011725121876224875,-0.00048481952399015427,-0.0018084850162267685
1772702143059869200,4.127869140625,0.0012022225419059396,-0.003691002493724227,-0.0023088636808097363
1772702143069919200,4.137919189453125,0.0005476175574585795,-0.0004272987134754658,-0.0015983323100954294
1772702143079968300,4.14796826171875,-0.0021827523596584797,-0.00015492038801312447,0.0008789837593212724
1772702143090018300,4.158018310546875,0.0011938695097342134,0.0017468431033194065,-0.0007319623837247491
1772702143100067300,4.1680673828125,0.002363903447985649,0.0005474397912621498,0.00034440617309883237
1772702143110117000,4.1781171875,0.00006186694372445345,-0.0006030462682247162,0.0011950198095291853
1772702143120167200,4.188167236328125,0.0005820764927193522,0.00043086521327495575,-0.0014283789787441492
1772702143130216400,4.198216552734375,0.0003722194232977927,0.0003661508671939373,-0.0021016260143369436
1772702143140266200,4.208266357421875,0.0005605556652881205,0.0018925443291664124,0.0021188766695559025
1772702143150315300,4.218315185546875,0.002534756902605295,0.0005457838997244835,-0.002932341070845723
1772702143160365300,4.228365234375,0.00036437175003811717,-0.0016230130568146706,-0.001710542943328619
1772702143170414300,4.238414306640625,0.00011989357881247997,-0.0008610826916992664,0.0013214659411460161
1772702143180464400,4.24846435546875,0.0008421919774264097,0.0006889807991683483,-0.001617412781342864
1772702143190513400,4.258513427734375,-0.00037540518678724766,0.00006127357482910156,0.0002859483938664198
1772702143200563200,4.268563232421875,0.0003770608454942703,-0.0012225126847624779,0.0007734164246357977
1772702143210612200,4.2786123046875,0.0002939702244475484,-0.0023719328455626965,-0.0015797526575624943
1772702143220662300,4.288662353515625,0.0016012227861210704,-0.0001602410338819027,0.0005552647635340691
1772702143230711300,4.298711181640625,0.0026001743972301483,0.0005023535341024399,0.0007957482011988759
1772702143240761300,4.30876123046875,-0.0000804708106443286,-0.00048240693286061287,-0.0007784355548210442
1772702143250810000,4.31881005859375,0.002703065052628517,0.0015879343263804913,0.0016956410836428404
1772702143260860200,4.328860107421875,-0.0004326319321990013,0.0013684090226888657,-0.001758951460942626
1772702143270909200,4.3389091796875,0.00002649705857038498,0.00042138807475566864,0.0006722482503391802
1772702143280959500,4.34895947265625,0.0007549585425294936,-0.0002315230667591095,-0.00022337841801345348
1772702143291008300,4.35900830078125,-0.0012362870620563626,0.001693942118436098,-0.00008089927723631263
1772702143301058300,4.369058349609375,0.002176090143620968,-0.0013538380153477192,0.004308756440877914
1772702143311107000,4.379107177734375,-0.00248311017639935,-0.0003226618282496929,0.002832033671438694
1772702143321157000,4.3891572265625,0.0013175803469493985,-0.0007045003585517406,0.0016480728518217802
1772702143331206400,4.399206298828125,-0.0003969627432525158,0.0011125742457807064,0.0015444760210812092
1772702143341256200,4.409256103515625,-0.00002723606303334236,-0.004216417670249939,0.00005175673868507147
1772702143351305200,4.41930517578125,0.00120554119348526,0.0016926047392189503,0.0005705404910258949
1772702143361355300,4.429355224609375,0.001603611744940281,0.0021849614568054676,0.0010618543019518256
1772702143371404300,4.439404296875,0.0017058772500604391,-0.00012719538062810898,-0.0011227367212995887
1772702143381454300,4.449454345703125,0.0015147289959713817,-0.0026295874267816544,-0.0029232357628643513
1772702143391503400,4.45950341796875,-0.00045680918265134096,-0.00009745359420776367,0.0019713877700269222
1772702143401553200,4.46955322265625,-0.0009077421855181456,-0.0006114519201219082,-0.0016723682638257742
1772702143411602200,4.479602294921875,0.0018355799838900566,0.0016554305329918861,0.0004632206982932985
1772702143421652200,4.48965234375,-0.000010941410437226295,-0.0010157492943108082,-0.0005691147525794804
1772702143431702300,4.499702392578125,-0.001663965405896306,-0.00022292602807283401,-0.0001033279113471508
1772702143441751300,4.509751220703125,-0.000002414220944046974,-0.0003655175678431988,-0.0016732774674892426
1772702143451801300,4.51980126953125,0.001133690238930285,0.0010701925493776798,0.0005046555888839066
1772702143461850000,4.52985009765625,0.001445091562345624,-0.0025522750802338123,-0.0013805072521790862
1772702143471900200,4.539900146484375,-0.0010638723615556955,-0.0014686346985399723,-0.00016903533833101392
1772702143481949400,4.549949462890625,-0.002417404670268297,-0.00020607654005289078,-0.0007130244630388916
1772702143491999200,4.559999267578125,-0.0006224339595064521,0.00003493949770927429,0.0037493682466447353
1772702143502048300,4.57004833984375,-0.0013073952868580818,-0.0006367149762809277,-0.0021063487511128187
1772702143512098300,4.580098388671875,-0.003243246814236045,-0.0015315371565520763,-0.0010181812103837729
1772702143522147000,4.59014697265625,-0.0021971187088638544,-0.0034142322838306427,-0.0026177919935435057
1772702143532197000,4.600197021484375,0.001168584218248725,-0.0017012874595820904,-0.00034425128251314163
1772702143542246400,4.610246337890625,0.000650593196041882,-0.000035336241126060486,0.0015844919253140688
1772702143552296000,4.6202958984375,0.0006228963029570878,0.0014525717124342918,-0.0014363315422087908
1772702143562345000,4.630344970703125,-0.0025468894746154547,-0.0004928861744701862,0.0019304638262838125
1772702143572395000,4.64039501953125,-0.0035823264624923468,0.00021258508786559105,0.0018588248640298843
1772702143582444000,4.650444091796875,-0.0031691635958850384,-0.0011177943088114262,-0.0032576690427958965
1772702143592494000,4.660494140625,-0.001076717977412045,-0.001471994910389185,0.0028670686297118664
1772702143602542800,4.67054296875,-0.002167533617466688,0.00016407156363129616,-0.0008542872383259237
1772702143612593000,4.680593017578125,0.0015382550191134214,0.001453041099011898,0.003102637594565749
1772702143622642000,4.690641845703125,-0.0023862658999860287,-0.0015721390955150127,-0.0015856052050366998
1772702143632692000,4.70069189453125,0.0023027616553008556,-0.0004946240223944187,-0.0007166157010942698
1772702143642741000,4.710740966796875,0.0004890004638582468,0.0004606102593243122,-0.0010989357251673937
1772702143652791000,4.720791015625,0.00023573386715725064,-0.0005702991038560867,0.000551425211597234
1772702143662839800,4.73083984375,0.0008451908361166716,-0.00037185661494731903,0.0001872460707090795
1772702143672889900,4.740889892578125,-0.001337536028586328,-0.0007473626174032688,0.000661555037368089
1772702143682939100,4.750939208984375,-0.0014574809465557337,-0.0010408652015030384,-0.0018063229508697987
1772702143692989000,4.760989013671875,-0.0010244508739560843,-0.001421164721250534,0.0032361061312258244
1772702143703038000,4.771037841796875,-0.0010859629837796092,0.0013115731999278069,-0.0005192040698602796
1772702143713088000,4.781087890625,-0.00005771638825535774,0.00026388559490442276,0.0006296836654655635
1772702143723137000,4.791136962890625,-0.00013641652185469866,0.0001169317401945591,0.0022107053082436323
1772702143733187000,4.80118701171875,0.00019834277918562293,-0.00000903615728020668,-0.0016338340938091278
1772702143743236000,4.811236083984375,-0.0036026802845299244,0.0008920305408537388,-0.0002760426141321659
1772702143753286000,4.821285888671875,-0.0006042271852493286,0.0018166801892220974,0.000562586763408035
1772702143763336000,4.8313359375,-0.0011616249103099108,-0.00020112376660108566,0.0019086165120825171
1772702143773385000,4.841385009765625,-0.0007349863881245255,-0.003303972538560629,-0.0010746564948931336
1772702143783434800,4.851434814453125,-0.0007005727384239435,-0.00005406327545642853,0.0031675647478550673
1772702143793484000,4.861484130859375,-0.0023850221186876297,0.0014202622696757317,-0.0007744462927803397
1772702143803534000,4.8715341796875,0.0009239055798389018,-0.0009345188736915588,-0.0007822513580322266
1772702143813582800,4.881582763671875,0.0018948940560221672,-0.0015779384411871433,0.001447879709303379
1772702143823633000,4.8916328125,0.0014085230650380254,-0.00023331167176365852,-0.0006757761002518237
1772702143833682200,4.90168212890625,0.00031529541593044996,0.0006183674558997154,-0.0019564901012927294
1772702143843732000,4.91173193359375,0.0011743815848603845,-0.0003378228284418583,0.0005667466321028769
1772702143853781000,4.921781005859375,0.002265212358906865,-0.00010293163359165192,-0.0006543127237819135
1772702143863831000,4.9318310546875,0.000021759653463959694,0.00037853652611374855,0.0005029273452237248
1772702143873879800,4.9418798828125,0.0019410998793318868,-0.0020808931440114975,-0.0009301196550950408
1772702143883929900,4.951929931640625,0.0002875462523661554,0.0008107973262667656,0.0009343959973193705
1772702143893979100,4.961979248046875,0.0005786297260783613,-0.0014305193908512592,-0.0003798739635385573
1772702143904029000,4.97202880859375,-0.0016184155829250813,0.00015192944556474686,0.0007545766420662403
1772702143914078000,4.982077880859375,-0.0021273456513881683,0.0004640519618988037,-0.000046235916670411825
1772702143924128000,4.9921279296875,-0.0012123298365622759,0.0001685032621026039,-0.0017443944234400988
1772702143934177000,5.002177001953125,-0.001058399211615324,-0.0026275496929883957,-0.0017262848559767008
1772702143944227000,5.01222705078125,0.00033595506101846695,0.0008772406727075577,0.00006128492532297969
1772702143954276000,5.022276123046875,-0.0005109302001073956,-0.0012492933310568333,0.0012013842351734638
1772702143964326000,5.032325927734375,0.000965641753282398,0.0006289724260568619,-0.0002880706451833248
1772702143974375000,5.042375,-0.002166501944884658,-0.00021924404427409172,-0.00033068121410906315
1772702143984425000,5.052425048828125,0.000016795704141259193,-0.0012096138671040535,0.00001531385350972414
1772702143994474000,5.062473876953125,-0.0030623511411249638,-0.0007528821006417274,-0.0004755067639052868
1772702144004524000,5.07252392578125,0.0005411662277765572,-0.0010024025104939938,-0.0001253174850717187
1772702144014572800,5.08257275390625,0.0011763301445171237,-0.0013901591300964355,0.00006669643335044384
1772702144024622800,5.092622802734375,-0.001083980081602931,0.0005439962260425091,0.0008326979004777968
1772702144034672000,5.102672119140625,0.0012180564226582646,-0.0013114283792674541,0.00021963822655379772
1772702144044722200,5.11272216796875,-0.0005032297922298312,-0.002835388295352459,-0.0000910768867470324
1772702144054771000,5.12277099609375,0.0006352715427055955,-0.0005394769832491875,-0.001911081257276237
1772702144064821000,5.132821044921875,-0.000017288606613874435,-0.0005070860497653484,0.00040035159327089787
1772702144074869800,5.142869873046875,-0.0010956025216728449,0.0007912050932645798,-0.000860388798173517
1772702144084919800,5.152919921875,0.0025042761117219925,-0.001037484034895897,-0.0028757487889379263
1772702144094970000,5.16297021484375,-0.0005783326923847198,-0.0025562848895788193,0.00041139102540910244
1772702144105019000,5.173018798828125,-0.0005413130857050419,-0.00020391866564750671,0.0010120044462382793
1772702144115069000,5.18306884765625,-0.0006928469520062208,-0.0003645075485110283,-0.0016000239411368966
1772702144125118000,5.193117919921875,-0.0019410679815337062,-0.0012622680515050888,-0.0007929453859105706
1772702144135168000,5.20316796875,0.0004113023169338703,-0.00047051021829247475,-0.0027999035082757473
1772702144145217000,5.213217041015625,0.0009642601362429559,0.00006781332194805145,-0.0005695815780200064
1772702144155267000,5.22326708984375,-0.001067731762304902,-0.0007487116381525993,-0.0004854256403632462
1772702144165315800,5.23331591796875,-0.00008600391447544098,-0.0022602262906730175,0.0013502859510481358
1772702144175366000,5.243365966796875,0.002115897834300995,0.0005552675575017929,0.0011063404381275177
1772702144185415000,5.253414794921875,0.00013220164692029357,-0.001553347334265709,-0.0017189967911690474
1772702144195465000,5.26346484375,-0.0011418545618653297,0.00032205088064074516,-0.0029155551455914974
1772702144205514000,5.273513916015625,-0.002119234763085842,0.0031468654051423073,0.000917798955924809
1772702144215564000,5.28356396484375,0.00037641351809725165,0.000381705816835165,0.0006522818002849817
1772702144225612800,5.29361279296875,0.000014136661775410175,-0.00015102140605449677,-0.0021189989056438208
1772702144235662800,5.303662841796875,-0.0005605735350400209,0.001749410293996334,-0.00011630164226517081
1772702144245712100,5.313712158203125,0.0006542258197441697,0.0006235172040760517,-0.0003981445333920419
1772702144255762000,5.323761962890625,0.0020218014251440763,-0.0007449989207088947,0.0006847027689218521
1772702144265811000,5.33381103515625,0.0006308323936536908,0.00037672417238354683,-0.00022130459547042847
1772702144275861000,5.343861083984375,-0.00126356678083539,-0.0026399148628115654,0.001676453510299325
1772702144285910000,5.353909912109375,-0.0012609036639332771,-0.000003918074071407318,-0.00141467759385705
1772702144295960000,5.3639599609375,-0.002069976646453142,-0.0016462760977447033,0.0021044774912297726
1772702144306009000,5.374009033203125,0.0016664384165778756,0.001467225607484579,-0.0009070250089280307
1772702144316059000,5.384058837890625,0.0018255249597132206,0.0004507647827267647,0.0019240675028413534
1772702144326108000,5.39410791015625,0.0009594649891369045,-0.0013948059640824795,0.0008207199280150235
1772702144336158000,5.404157958984375,-0.0013073828304186463,-0.0004458143375813961,0.0024824568536132574
1772702144346207000,5.41420703125,-0.0005600997246801853,-0.0011747214011847973,0.0009796350495889783
1772702144356257000,5.424257080078125,0.0003650591243058443,0.0003666384145617485,0.002924509346485138
1772702144366306000,5.43430615234375,-0.0024616201408207417,0.0006800927221775055,-0.0013021936174482107
1772702144376355800,5.44435595703125,-0.00179578538518399,-0.0021070116199553013,-0.0004439351614564657
1772702144386404900,5.45440478515625,-0.0032706442289054394,0.00023843394592404366,0.001111084595322609
1772702144396455200,5.464455078125,0.0014841272495687008,-0.0006786887533962727,0.0002487981109879911
1772702144406504000,5.47450390625,-0.003455237951129675,-0.0018419576808810234,0.002866152673959732
1772702144416554000,5.484553955078125,-0.001415042206645012,-0.0012741591781377792,0.0011837264755740762
1772702144426603000,5.49460302734375,0.002127228304743767,0.0010441229678690434,0.0015150236431509256
1772702144436652800,5.50465283203125,0.0008966659079305828,0.0025004125200212,-0.0005443172412924469
1772702144446702800,5.514702880859375,0.0014814960304647684,0.0011291508562862873,-0.0004388561355881393
1772702144456752000,5.524752197265625,-0.0031612294260412455,-0.0001922999508678913,-0.0009707359131425619
1772702144466802000,5.534802001953125,-0.001832311972975731,-0.0022778213024139404,-0.0005278522148728371
1772702144476851000,5.544850830078125,-0.0012281998060643673,0.0007645329460501671,-0.0002508463803678751
1772702144486901000,5.55490087890625,-0.0015206150710582733,-0.0006871563382446766,0.0028064625803381205
1772702144496950000,5.564949951171875,-0.00038939714431762695,0.0014541284181177616,-0.001435877289623022
1772702144507000000,5.575,-0.0010075168684124947,0.000425881240516901,0.0009689569706097245
1772702144517049000,5.585049072265625,0.000515540421474725,-0.0002231169492006302,-0.0010113149182870984
1772702144527099000,5.595098876953125,0.0020013179164379835,-0.0006614732556045055,-0.0017428852152079344
1772702144537148000,5.60514794921875,-0.0032684579491615295,0.00091547891497612,-0.0017950889887288213
1772702144547198200,5.6151982421875,0.002128437627106905,-0.0009487336501479149,-0.0003149039694108069
1772702144557247200,5.625247314453125,-0.0010205679573118687,0.002600090578198433,-0.0008495199726894498
1772702144567297300,5.63529736328125,-0.0004434610018506646,-0.0008004996925592422,0.0017654378898441792
1772702144577346300,5.64534619140625,0.0023192125372588634,-0.002233099192380905,-0.0007820113096386194
1772702144587396000,5.65539599609375,-0.000008390168659389019,0.00012406473979353905,0.001646525226533413
1772702144597445400,5.6654453125,-0.001058206777088344,-0.0008280202746391296,0.0010369982337579131
1772702144607495400,5.675495361328125,0.001313870889134705,-0.002013126853853464,-0.001934556756168604
1772702144617544200,5.685544189453125,0.0016435051802545786,0.0020070853643119335,0.001105805509723723
1772702144627594200,5.69559423828125,0.0036725676618516445,0.0005961419083178043,-0.000946692714933306
1772702144637644300,5.705644287109375,0.0014525296865031123,0.0005935635417699814,-0.0007655600784346461
1772702144647693000,5.715693115234375,0.00043014221591874957,-0.0010053985752165318,0.0007681543356738985
1772702144657743000,5.7257431640625,0.0004596342332661152,0.0004284419119358063,0.0011309604160487652
1772702144667792400,5.73579248046875,0.00011368963168933988,-0.0025412491522729397,0.0008854169864207506
1772702144677842400,5.745842529296875,-0.0008743908256292343,0.002024363726377487,0.0017189852660521865
1772702144687891200,5.75589111328125,0.00003641017246991396,-0.001663315575569868,-0.0012552329571917653
1772702144697941200,5.765941162109375,0.0016165589913725853,-0.0004499307833611965,0.00013298014528118074
1772702144707990300,5.775990234375,0.0002370415022596717,-0.001123177818953991,-0.001504597719758749
1772702144718040300,5.786040283203125,0.000013253651559352875,-0.00010925531387329102,-0.0014030797174200416
1772702144728090400,5.79609033203125,-0.0013686605961993337,0.0006220489740371704,0.0030808844603598118
1772702144738139100,5.80613916015625,0.0005886441795155406,-0.0001914207823574543,0.0010239864932373166
1772702144748189200,5.816189208984375,-0.000987414619885385,0.0014983545988798141,-0.0008828368736431003
1772702144758238200,5.82623828125,0.0018361047841608524,-0.0009276857599616051,0.0018798911478370428
1772702144768288300,5.836288330078125,-0.0020720839966088533,0.0021384116262197495,-0.0002176145208068192
1772702144778337300,5.846337158203125,-0.0012359172105789185,-0.0016570398584008217,0.0018202068749815226
1772702144788387300,5.85638720703125,0.0018605401273816824,0.0014996053650975227,0.00014161638682708144
1772702144798436000,5.86643603515625,0.0015377881936728954,-0.001980728469789028,-0.0020661025773733854
1772702144808486100,5.876486083984375,0.0024983903858810663,-0.000473113264888525,0.002567264949902892
1772702144818535400,5.886535400390625,0.00145919609349221,0.00004658615216612816,-0.0052980417385697365
1772702144828585200,5.896585205078125,-0.00015015213284641504,0.001252998597919941,0.0015177861787378788
1772702144838634200,5.90663427734375,0.00235942704603076,-0.0024131680838763714,0.0017497669905424118
1772702144848684300,5.916684326171875,0.0014331797137856483,-0.0026941318064928055,0.0010280503192916512
1772702144858733000,5.926733154296875,-0.0007832815172150731,0.0003440072759985924,-0.003039982635527849
1772702144868783400,5.936783447265625,0.0006399117410182953,0.0005546631291508675,0.0008900441462174058
1772702144878832400,5.946832275390625,0.0015751776518300176,-0.0007560141384601593,0.0003619864583015442
1772702144888882200,5.956882080078125,-0.0004562815884128213,-0.00020127790048718452,0.001188365276902914
1772702144898931200,5.96693115234375,-0.0013348163338378072,-0.0013799420557916164,-0.0012105151545256376
1772702144908981200,5.976981201171875,-0.0018807643791660666,-0.0015940601006150246,0.00081721565220505
1772702144919030300,5.9870302734375,0.0004043155931867659,0.0006514927372336388,-0.0012411964125931263
1772702144929080300,5.997080322265625,-0.0002811820013448596,-0.00019778963178396225,-0.0005700798355974257
1772702144939129300,6.00712939453125,-0.0017717170994728804,-0.0022709094919264317,-0.0038807292003184557
1772702144949179100,6.01717919921875,0.004165267571806908,-0.0008583688177168369,-0.00010063819354400039
1772702144959228200,6.027228271484375,0.0003416202962398529,-0.0010557714849710464,0.001371471444144845
1772702144969278200,6.0372783203125,0.0020335265435278416,0.0008763521909713745,0.0028961312491446733
1772702144979327200,6.0473271484375,0.0031400981824845076,0.0010430836118757725,0.000640200509224087
1772702144989377300,6.057377197265625,-0.0012818144168704748,-0.00022591231390833855,-0.00041148177115246654
1772702144999426300,6.06742626953125,0.0009375715744681656,-0.0017951233312487602,-0.0015523908659815788
1772702145009476000,6.07747607421875,-0.002464350312948227,0.00023873290047049522,0.0007922562654130161
1772702145019525400,6.087525390625,-0.003936984576284885,-0.0006299181841313839,-0.00037439330480992794
1772702145029575400,6.097575439453125,-0.000378734664991498,-0.0014176811091601849,0.001949214725755155
1772702145039625200,6.107625244140625,-0.0010153244948014617,0.0014771027490496635,0.0003278009535279125
1772702145049674200,6.11767431640625,0.0025642304681241512,0.0009862817823886871,0.0008718847529962659
1772702145059724300,6.127724365234375,0.0010717109544202685,-0.0007789651863276958,0.0003188928822055459
1772702145069773300,6.137773193359375,-0.0006526857614517212,-0.00019120564684271812,0.0018912232480943203
1772702145079823400,6.1478232421875,0.000040446873754262924,0.0024811867624521255,-0.0023773566354066133
1772702145089872400,6.157872314453125,-0.0007853994611650705,-0.0015489747747778893,-0.001418618718162179
1772702145099922200,6.167922119140625,-0.00022019282914698124,0.00012093083932995796,-0.002525574993342161
1772702145109971200,6.17797119140625,0.0008815568871796131,-0.0020056036300957203,0.0000773986685089767
1772702145120021200,6.188021240234375,0.00044000474736094475,-0.0001057041808962822,0.0006105635548010468
1772702145130070300,6.1980703125,0.0001635686494410038,-0.0006188955157995224,-0.0023330282419919968
1772702145140120300,6.208120361328125,-0.00034127116668969393,0.0014192890375852585,0.0007822226034477353
1772702145150169300,6.21816943359375,-0.0010605909628793597,-0.0009642397053539753,-0.0030340871307998896
1772702145160219100,6.22821923828125,0.0005424496484920382,-0.00106533570215106,-0.0020637772977352142
1772702145170268400,6.238268310546875,-0.002386761363595724,0.0007988768629729748,0.0022337655536830425
1772702145180318500,6.248318359375,0.0012972679687663913,-0.003507944755256176,-0.001662893919274211
1772702145190367200,6.2583671875,0.000531875470187515,0.002418387681245804,-0.0020061752293258905
1772702145200417300,6.268417236328125,0.0003985270159319043,0.0016051698476076126,-0.0005218615988269448
1772702145210466000,6.278466064453125,0.0015503441682085395,0.0009540272876620293,0.0003236920456402004
1772702145220516000,6.28851611328125,0.0005817948840558529,-0.0013662688434123993,0.0001880337076727301
1772702145230565400,6.2985654296875,0.00035515986382961273,0.00004121148958802223,0.0009395777597092092
1772702145240615400,6.308615478515625,0.0010363991605117917,-0.0007365653291344643,-0.000517914304509759
1772702145250664200,6.318664306640625,0.00026168557815253735,0.00006504636257886887,0.0016661441186442971
1772702145260714200,6.32871435546875,-0.0008988468907773495,-0.0017300406470894814,-0.00022548931883648038
1772702145270763300,6.33876318359375,-0.0006564992945641279,-0.000491670798510313,0.0017585656605660915
1772702145280813300,6.348813232421875,-0.00040651706513017416,0.0014854436740279198,-0.0006583849317394197
1772702145290862300,6.3588623046875,0.00018124253256246448,-0.0015553534030914307,-0.00007648422615602612
1772702145300912000,6.368912109375,0.0015724899712949991,-0.0004126476123929024,-0.0018870814237743616
1772702145310961200,6.378961181640625,0.0007011036504991353,0.0025466568768024445,-0.00029770692344754934
1772702145321011200,6.38901123046875,0.00008418702054768801,-0.0005792835727334023,-0.00047290563816204667
1772702145331061200,6.399061279296875,0.0003286652499809861,-0.0007867435924708843,0.002123143756762147
1772702145341110300,6.4091103515625,0.0014867170248180628,0.0004037455655634403,-0.0007076796609908342
1772702145351160300,6.419160400390625,-0.0005205074558034539,-0.0006636492908000946,0.0009903518948704004
1772702145361209000,6.429208984375,-0.0002483702264726162,0.0018069702200591564,-0.0010908523108810186
1772702145371259100,6.439259033203125,-0.0029003459494560957,-0.0008218362927436829,-0.0026213708333671093
1772702145381308400,6.449308349609375,-0.001634188462048769,-0.000960733275860548,-0.0018948409706354141
1772702145391358500,6.4593583984375,0.0013964887475594878,0.0002675163559615612,-0.0005099972477182746
1772702145401407200,6.4694072265625,0.0012327088043093681,-0.0003554103896021843,-0.0006432099035009742
1772702145411457300,6.479457275390625,0.00003135681618005037,-0.00025927042588591576,0.0005879694363102317
1772702145421506000,6.489506103515625,0.0024403692223131657,-0.002735643181949854,0.0022466774098575115
1772702145431556400,6.499556396484375,-0.0001293150708079338,0.0016681603156030178,-0.000370677444152534
1772702145441605400,6.50960546875,-0.0004673539660871029,-0.0006514992564916611,0.0017244149930775166
1772702145451655200,6.5196552734375,0.002161985030397773,-0.0014533773064613342,0.0008309244876727462
1772702145461704200,6.5297041015625,-0.00027401407714933157,0.0011137556284666061,-0.0016880764160305262
1772702145471754200,6.539754150390625,-0.00042927637696266174,-0.0008838819339871407,0.0009316750802099705
1772702145481803300,6.54980322265625,-0.000052922870963811874,0.0003164466470479965,-0.0011874636402353644
1772702145491853300,6.559853271484375,0.0006474885158240795,0.0003529321402311325,0.0009116399451158941
1772702145501902300,6.56990234375,-0.00031529110856354237,0.002711473498493433,-0.0009828063193708658
1772702145511952100,6.5799521484375,0.0008120249840430915,-0.0008638203144073486,-0.000935402000322938
1772702145522001200,6.590001220703125,0.001516075455583632,0.0024950122460722923,-0.00143726565875113
1772702145532051200,6.60005126953125,-0.00009487068746238947,-0.002354071009904146,0.0002679562312550843
1772702145542100200,6.610100341796875,-0.0002778798807412386,0.000043584033846855164,-0.0020160702988505363
1772702145552150500,6.620150634765625,-0.0010211680782958865,-0.00022859126329421997,0.0007589436136186123
1772702145562199600,6.630199462890625,-0.0005516601959243417,0.001505738589912653,0.00003019074210897088
1772702145572249300,6.640249267578125,0.002231875667348504,0.001450877171009779,-0.001561580691486597
1772702145582298600,6.650298583984375,0.0023409994319081306,-0.0015334477648139,0.0007893427391536534
1772702145592348700,6.6603486328125,-0.002112072426825762,-0.0026999125257134438,0.0010655125370249152
1772702145602397400,6.6703974609375,-0.0015043087769299746,0.0019371858797967434,0.0015084058977663517
1772702145612447500,6.680447509765625,-0.001104035647585988,0.001754226628690958,0.00033794654882512987
1772702145622496500,6.69049658203125,-0.0018832251662388444,-0.000607149675488472,-0.0002505943994037807
1772702145632546300,6.70054638671875,0.0016654371283948421,-0.0019030440598726273,-0.00022369646467268467
1772702145642596600,6.7105966796875,0.0010300586000084877,-0.0010751541703939438,-0.0007750503136776388
1772702145652645600,6.720645751953125,-0.0004458652110770345,0.0003328593447804451,0.0010492149740457535
1772702145662695400,6.7306953125,-0.0023673824034631252,-0.0024130037054419518,-0.000021425657905638218
1772702145672744400,6.740744384765625,0.0006398590048775077,0.000825932715088129,0.0012062916066497564
1772702145682794500,6.75079443359375,0.0006303127156570554,-0.00265905587002635,0.002416675677523017
1772702145692843500,6.760843505859375,0.0005296452436596155,0.0017647207714617252,-0.00039349199505522847
1772702145702893600,6.7708935546875,-0.0016270286869257689,0.001341694500297308,0.0010650982148945332
1772702145712942600,6.780942626953125,0.0015655687311664224,-0.00029774708673357964,0.0032206608448177576
1772702145722992400,6.790992431640625,-0.0012417627731338143,-0.0013043764047324657,-0.0010885619558393955
1772702145733041400,6.80104150390625,-0.0005291007691994309,-0.001450583804398775,-0.0002989346394315362
1772702145743091500,6.811091552734375,0.000988186802715063,-0.0008415058255195618,0.0015505332266911864
1772702145753140500,6.821140380859375,-0.0011354179587215185,-0.0012127500958740711,-0.00242583267390728
1772702145763190500,6.8311904296875,-0.0026104056742042303,0.00043253134936094284,-0.000017930986359715462
1772702145773239600,6.841239501953125,0.00006181019125506282,-0.0021424791775643826,0.0019892933778464794
1772702145783289300,6.851289306640625,-0.0013114305911585689,-0.0006535048596560955,0.0007699538255110383
1772702145793338600,6.861338623046875,0.0016819625161588192,-0.00003671692684292793,0.0001803299819584936
1772702145803388700,6.871388671875,0.0001273251255042851,0.00015617767348885536,0.002104396466165781
1772702145813437400,6.8814375,-0.00016482360661029816,-0.0023597106337547302,0.00022633522166870534
1772702145823487500,6.891487548828125,0.0004692656802944839,-0.001274210400879383,0.0009084731573238969
1772702145833536500,6.90153662109375,-0.0011089234612882137,0.0001359335146844387,-0.00017330283299088478
1772702145843586600,6.911586669921875,-0.001014156499877572,-0.001845919992774725,-0.0024848822504281998
1772702145853635600,6.921635498046875,0.0007571119349449873,-0.0001673297956585884,-0.000507218879647553
1772702145863685600,6.931685546875,-0.0025907147210091352,-0.00008701905608177185,-0.0032366355881094933
1772702145873734400,6.941734375,-0.0016098725609481335,-0.0009118001908063889,-0.000551902805455029
1772702145883784400,6.951784423828125,-0.0022318297997117043,0.0015720212832093239,-0.00005975324893370271
1772702145893833500,6.96183349609375,0.0014875410124659538,-0.00039445701986551285,-0.0020435419864952564
1772702145903883500,6.971883544921875,-0.0014535307418555021,0.0033961543813347816,-0.0006789462640881538
1772702145913932500,6.9819326171875,0.0001355774002149701,0.0021479306742548943,-0.0031053523998707533
1772702145923982600,6.991982666015625,-0.00039020529948174953,-0.0001778830774128437,0.0023578929249197245
1772702145934032400,7.002032470703125,0.0013581599341705441,0.003381431568413973,0.0013610718306154013
1772702145944081700,7.01208154296875,0.001176058896817267,0.045364826917648315,0.019998013973236084
1772702145954131700,7.022131591796875,0.00029774836730211973,0.020443230867385864,0.00872485339641571
1772702145964180500,7.032180419921875,0.000537554849870503,-0.030866358429193497,-0.01679910533130169
1772702145974230500,7.04223046875,0.0011964208679273725,-0.037295497953891754,-0.0186726376414299
1772702145984279300,7.052279296875,-0.0011816617334261537,0.00781205715611577,0.003498513950034976
1772702145994329300,7.062329345703125,0.0002660326426848769,-0.012521177530288696,-0.0057969833724200726
1772702146004378600,7.072378662109375,-0.0007071528816595674,0.00967075303196907,0.002306227572262287
1772702146014428700,7.0824287109375,0.00041723373578861356,-0.008795073255896568,-0.004953016526997089
