time,seconds_elapsed,z,y,x
1772702576698581200,0.075581298828125,-0.013032500052452087,-0.00048478784225881096,-0.0022339878634549675
1772702576708631300,0.08563134765625,0.02946633298099041,-0.016548545349389314,-0.006559353949013165
1772702576718681000,0.09568115234375,-0.03801847274899482,-0.007368610805552452,-0.0026244416358997113
1772702576728730000,0.105730224609375,0.016896774265170098,-0.00947210415713489,-0.007531553132168483
1772702576738780200,0.1157802734375,-0.0028571429967880245,-0.007470153217576444,-0.0032807455535861663
1772702576748829200,0.1258291015625,0.017045242825150488,0.0007835698594339191,0.020432967300992456
1772702576758879200,0.135879150390625,-0.018868951120972633,-0.0026333441782742735,0.00442726925718598
1772702576768929300,0.14592919921875,0.0032797523230314253,-0.010547058178577571,0.005558622791117522
1772702576778978000,0.15597802734375,0.0017845453292131422,0.005733611748553812,-0.002756173690210562
1772702576789028000,0.166028076171875,-0.007194295418262481,-0.000504405858181417,-0.01415833487776108
1772702576799078000,0.176077880859375,0.01779635345339775,-0.011051043911650776,-0.01766475382982753
1772702576809127000,0.186126953125,-0.0004594342052936554,-0.0024232085589319468,-0.01395014918691013
1772702576819177000,0.196177001953125,0.0020838205367326736,-0.006128766812290996,-0.00738483813785715
1772702576829227000,0.20622705078125,-0.006444353833794593,-0.005756590765342116,-0.0010700015684007667
1772702576839275800,0.21627587890625,0.006726677906513214,-0.00022069354597479104,0.009851027321990113
1772702576849325800,0.226325927734375,0.011965163081884384,-0.005086363353580236,0.00016998170546721666
1772702576859375000,0.236375,0.002689385214447975,-0.011614230752363801,-0.005782054000161588
1772702576869425000,0.2464248046875,0.0032867665857076642,-0.001079703261796385,0.007104039301944431
1772702576879475000,0.256474853515625,0.005379939472675323,-0.004695683535560965,0.005857324893190525
1772702576889524000,0.26652392578125,0.00956628524661064,-0.01752429504636675,-0.012432819409540387
1772702576899573800,0.27657373046875,-0.00030804303586483,-0.021508359713852405,-0.009345628233253956
1772702576909623800,0.286623779296875,0.00014086977541446686,-0.0059655390745960175,0.016698936438397503
1772702576919673000,0.296673095703125,0.002834346643090248,-0.003401205011922866,-0.01130016440108884
1772702576929723000,0.306722900390625,0.011661211699247359,-0.0012095219202339648,-0.005285262909566517
1772702576939772000,0.31677197265625,0.00881692818403244,-0.020000147107988593,-0.00006738669738406314
1772702576949822000,0.326822021484375,0.005823591586947441,-0.017139661376643925,0.000294790828647092
1772702576959872000,0.3368720703125,-0.003302548676729202,0.0034157997928559777,0.002521040626929607
1772702576969920800,0.346920654296875,0.013306056296825408,-0.003693794750329107,0.008983820599981117
1772702576979970800,0.356970703125,0.011961655950546263,-0.006473598194587976,-0.011923406299389898
1772702576990020900,0.367020751953125,0.0037310032218694686,-0.0101742610771209,0.010667519920202902
1772702577000070000,0.37706982421875,-0.004200374299287796,-0.00759116751505062,0.005983871599019039
1772702577010120000,0.387119873046875,0.013902268624305724,-0.008440331690292804,-0.019069006021006498
1772702577020169000,0.3971689453125,0.012252163329720496,0.000463799853157252,0.003641251712338999
1772702577030218800,0.40721875,0.0067144029468297955,0.0069603405319154255,-0.0014110952072078362
1772702577040268800,0.417268798828125,0.009707155022025108,-0.00427513830224052,-0.001990845023654401
1772702577050318000,0.427318115234375,0.0032721535384654995,-0.013564889896102248,0.008830623349244705
1772702577060368000,0.437367919921875,-0.0015156652599573135,-0.014789627651777118,0.0022287751155090517
1772702577070418000,0.44741796875,0.012851298266649245,-0.014115710445586592,-0.004596408429148141
1772702577080467000,0.457467041015625,0.009555179330706596,-0.006737856887653469,0.013432956912391818
1772702577090516700,0.467516845703125,0.008506547060608863,-0.017295436460245398,0.013075729556113946
1772702577100566000,0.47756591796875,0.0041653029859066,-0.018542696574982254,0.004610297673894092
1772702577110616000,0.487615966796875,0.004461655583977699,-0.003853898949176073,0.0009453842414659447
1772702577120665900,0.497665771484375,0.012990998998284339,-0.011347962765302508,0.011362333783949725
1772702577130715000,0.50771484375,0.0073047700554132455,-0.009560695756040512,0.012029574654181488
1772702577140765000,0.517764892578125,-0.005116320100426674,0.008455273531097918,-0.01375336623948533
1772702577150815000,0.52781494140625,0.010743512332439422,0.0031631402060389516,0.0054873887523892335
1772702577160864000,0.537864013671875,0.0038631051689386364,0.002970631574932486,-0.005958271366881672
1772702577170914000,0.5479140625,0.01179272912442684,0.001998717802856117,-0.0038471358482493087
1772702577180964000,0.557964111328125,0.009097498691082,-0.005054890503082424,0.0016501349773374386
1772702577191012900,0.568012939453125,-0.005417348873615265,-0.009842197844851762,0.0003126461457461119
1772702577201063000,0.57806298828125,-0.00018178630769252776,-0.01712166906222701,0.0055869447033037424
1772702577211112000,0.58811181640625,0.011936521509289741,-0.0032384521982632575,0.0028049127693404443
1772702577221161700,0.59816162109375,0.005503858113288879,-0.0007753500203602015,-0.003591512552788481
1772702577231211800,0.608211669921875,0.012837269741296767,-0.0018815028976649044,-0.0007659702706616371
1772702577241261000,0.618260986328125,-0.005417348873615265,-0.006614705432020127,0.0023634252126910724
1772702577251310800,0.628310791015625,-0.003765490013360977,-0.004361318748351186,-0.0032465989721007643
1772702577261361000,0.63836083984375,0.002668342426419258,-0.010620488740969448,0.0011782454325584694
1772702577271410000,0.648409912109375,0.009102759388089179,-0.005539459149632602,-0.0029042814905871637
1772702577281459700,0.658459716796875,-0.0030184710383415222,-0.012357413802482188,0.004978806759300641
1772702577291509000,0.668509033203125,-0.0016764087796211243,-0.013775299510080366,0.01842398383244872
1772702577301559000,0.67855908203125,-0.0027227029621601103,-0.006198489313945174,0.0031736159342806783
1772702577311608800,0.68860888671875,0.006257306829094886,-0.01764680718118325,0.0008169629556708969
1772702577321657900,0.698657958984375,0.004610708665847778,-0.007896470604557544,0.005007078439136967
1772702577331708000,0.7087080078125,0.003712298521399498,-0.010251637162268162,0.005906374499574304
1772702577341758000,0.718758056640625,-0.012300678646564483,-0.016013817418180407,0.002797387050010729
1772702577351807000,0.728806884765625,-0.0012263269245624542,0.00142437024731189,0.017426339680782985
1772702577361857000,0.73885693359375,0.007899813339114188,-0.005476897041127086,0.00028858028356917203
1772702577371905800,0.74890576171875,0.00026829554736614226,-0.011188899746071547,0.005495332313538529
1772702577381955800,0.758955810546875,0.004309095370769501,-0.008201664096210152,-0.005099172602803446
1772702577392006000,0.769005859375,0.007299509358406066,0.008679255012702196,-0.010780759619886521
1772702577402055000,0.779054931640625,-0.012003741526603698,-0.00616213935893029,-0.015026966371876187
1772702577412105000,0.78910498046875,-0.001228080490231514,0.00628689824976027,-0.004978827308898326
1772702577422155000,0.799155029296875,0.0019131401449441908,-0.009353464479837566,0.0020064627178944645
1772702577432204000,0.8092041015625,0.009244798207283019,-0.01935667983898893,-0.005553528774180449
1772702577442253800,0.81925390625,0.016573533660173414,-0.0012711707132868468,-0.000029552604758646336
1772702577452302800,0.829302734375,0.014627660289406775,0.004303213619254529,-0.0033871833364362827
1772702577462353000,0.839352783203125,-0.002284311544895172,-0.017249167899414896,-0.004855851666489616
1772702577472402700,0.849402587890625,-0.006026420682668686,-0.011772142994124442,0.0074868120914325115
1772702577482452000,0.859451904296875,-0.002586509361863136,0.0032554581319913264,-0.005896344012615736
1772702577492502000,0.869501953125,-0.0049789574563503265,-0.0042819151028990745,-0.005814449299266561
1772702577502551800,0.8795517578125,0.012230536019802092,-0.0025554018375463783,-0.007993658785161097
1772702577512600800,0.889600830078125,0.011632570126652716,-0.012005549891199917,0.0016711503659025764
1772702577522651000,0.89965087890625,0.012979893082380295,0.002644888485595584,0.0015826409653876908
1772702577532701000,0.909700927734375,0.009689619365334511,-0.03022197365388274,-0.007023160652036313
1772702577542750000,0.91975,0.008190905240178108,-0.0094320096087642,0.0005051456436980515
1772702577552800000,0.929800048828125,0.005193476989865302,0.0015734415954910218,-0.008121353985171298
1772702577562848800,0.939848876953125,0.009832827228307724,-0.007872158147208392,-0.005808074357407167
1772702577572898800,0.94989892578125,0.00025602058768272397,-0.017888488716259598,-0.0008871078657219186
1772702577582948900,0.959948974609375,-0.0007908581167459487,-0.007431958365347236,0.0029417548236087892
1772702577592998000,0.969997802734375,0.01567103186249733,-0.014853687597624957,0.002739295620645862
1772702577603048000,0.9800478515625,0.000855155524611473,-0.020323095452040432,-0.007640758260840084
1772702577613098000,0.990097900390625,0.017912088787555694,-0.010477609671559184,0.0036158501263125796
1772702577623147000,1.00014697265625,0.0036930092990398403,-0.003721577806398272,0.003924808760918676
1772702577633196800,1.01019677734375,0.005934650745987892,-0.010712532672286033,-0.01358683001656318
1772702577643245800,1.020245849609375,0.00009995324313640594,-0.011207111256197094,-0.006335093906195834
1772702577653295900,1.0302958984375,0.011023498317599295,-0.0006089804775081574,-0.011733619348332286
1772702577663346000,1.040345947265625,0.009973697003722191,-0.013804616936109959,0.004133706837822683
1772702577673395000,1.05039501953125,0.0036871640801429744,-0.008330879966448991,0.001069051720330026
1772702577683445000,1.060445068359375,0.013562661406397818,-0.011718275648728013,0.012648916695499793
1772702577693494800,1.070494873046875,-0.002745499315857887,-0.0030254487683996556,-0.005095918916503433
1772702577703543800,1.080543701171875,-0.0043909284353256224,0.0009442403138615191,0.0008199631969328038
1772702577713593900,1.09059375,0.013118424770236014,-0.004365373868960887,0.014767587066616397
1772702577723643000,1.100642822265625,0.008779518783092499,-0.004069130868744105,-0.0020562178604654037
1772702577733693000,1.11069287109375,-0.0031909049957990644,-0.017429438103456048,0.015754972402460408
1772702577743743000,1.120742919921875,0.0010012859970331192,-0.0024474844836629927,0.004644033263425808
1772702577753791700,1.130791748046875,0.008930325430631637,0.00018675474375486374,0.001957719072187319
1772702577763841800,1.140841796875,0.005040916776657104,-0.013651892326120286,0.002088642842322588
1772702577773891800,1.150891845703125,0.009980126744508743,-0.0005194572968408465,0.0012558886624756268
1772702577783940900,1.16094091796875,0.012675357177853584,-0.004800057225488126,0.01360554841676494
1772702577793991700,1.17099169921875,0.006691022071242332,-0.0015226247237063943,0.0020833501792745664
1772702577804040400,1.18104052734375,-0.008421206864714622,0.004418273099977523,-0.0032569947852403853
1772702577814090500,1.191090576171875,0.0008539864808320999,-0.018619725600257514,-0.008754688019223977
1772702577824140500,1.201140625,0.009832242706418037,-0.016238913144636897,-0.01141702996311942
1772702577834189300,1.211189208984375,0.005791442883014679,-0.0033323410267941654,0.012158155770180746
1772702577844239400,1.2212392578125,-0.0009416647642850875,-0.012189418558124452,0.016741362224461043
1772702577854289400,1.231289306640625,0.0060930561780929565,-0.014065953019727021,0.0032596959156915542
1772702577864338700,1.241338623046875,0.0002583586752414703,-0.001877685239072889,0.0005350978239672258
1772702577874388500,1.251388427734375,-0.0010860416710376738,-0.003932151817157864,0.003385573617951013
1772702577884438500,1.2614384765625,0.01402794083058834,-0.0011350319119170307,0.002544362137012649
1772702577894487600,1.271487548828125,0.017619243320822715,-0.003997033746913075,0.014948425809526815
1772702577904537300,1.281537353515625,0.014772621718049049,-0.0065135648787952955,-0.009801865834463387
1772702577914586600,1.291586669921875,0.005644727888703346,0.002460873688198626,0.007154899556213058
1772702577924636700,1.30163671875,-0.006177227330207824,-0.001877867902163416,0.020202261534368153
1772702577934686500,1.3116865234375,-0.0021370120286941527,-0.0030928697151131924,-0.001335506937059108
1772702577944735500,1.321735595703125,0.007290741530060768,0.003938764221034944,0.005338908775965683
1772702577954785500,1.33178564453125,0.0041501054167747495,-0.00634374300353229,0.006066161321301479
1772702577964835600,1.341835693359375,-0.010664601877331733,-0.0115777711994946,0.0009490603361628017
1772702577974884600,1.351884521484375,0.003251110750436783,-0.00868933801529929,0.005575950668542645
1772702577984934700,1.3619345703125,0.021802081963419914,-0.007563950714562088,0.0004953160861390643
1772702577994983400,1.3719833984375,0.0008516483932733535,-0.018423216647468505,-0.000632909342367202
1772702578005033500,1.382033447265625,-0.0022901567637920377,-0.01545561727983877,-0.005850541242666076
1772702578015083500,1.39208349609375,0.011622048732638359,-0.006568729132134467,0.0006996772685321048
1772702578025132500,1.402132568359375,0.017459668844938277,-0.005595006995461881,0.0015024838346871547
1772702578035182600,1.4121826171875,0.015065467184782027,-0.015635102032590657,-0.003580845028301701
1772702578045232600,1.422232666015625,-0.00962123030424118,-0.0014644647956825792,-0.007790939287294168
1772702578055281700,1.43228173828125,0.010130933392047882,0.004953713417239487,-0.016957105600682552
1772702578065331500,1.44233154296875,0.007139934882521629,-0.006353552011493593,0.00285398749189917
1772702578075380500,1.45238037109375,0.014320201775431632,-0.009229838100168853,0.007507137926830909
1772702578085430500,1.462430419921875,0.015068974316120146,-0.002204980964679271,-0.01869638929935172
1772702578095480300,1.472480224609375,0.010879705932736397,-0.0013313399353064596,0.013336873843485954
1772702578105529600,1.482529541015625,0.009383914417028426,-0.022172833238262683,0.008003805719839874
1772702578115579600,1.49257958984375,0.0023468553870916366,0.00006398688061162829,0.009757917094882577
1772702578125629400,1.50262939453125,-0.011270751076936722,-0.012295016090758145,0.011907137867889833
1772702578135678500,1.512678466796875,-0.007977554750442505,0.00856565683670342,0.004695023665146437
1772702578145728500,1.522728515625,-0.00812894591987133,0.007636906352918594,-0.0026017183474381454
1772702578155777500,1.532777587890625,0.0005500350981950759,-0.00865923513798043,0.024584933598001953
1772702578165827600,1.54282763671875,0.005788520273566245,0.004323909347411245,0.01274209998784354
1772702578175877600,1.552877685546875,0.010727145719528198,-0.012270868030190467,0.002906795391370542
1772702578185926400,1.562926513671875,-0.006634323447942733,-0.008494052905216813,-0.014302248276921455
1772702578195976400,1.5729765625,-0.0012450316250324249,-0.0027799130421131846,-0.0057133452786598355
1772702578206026500,1.583026611328125,0.0036947628647089003,-0.011355908609740435,0.0010212944553117268
1772702578216075500,1.593075439453125,0.004145429241657257,-0.010822404521238059,-0.0030041000196943056
1772702578226125600,1.60312548828125,-0.00034019173979759216,-0.01921162707880139,-0.009048451367986854
1772702578236174600,1.613174560546875,0.0063958385169506065,0.005503985977452248,0.016398147410515228
1772702578246224600,1.623224609375,-0.003180383601784706,0.018476627335138617,0.03674500733063323
1772702578256274400,1.6332744140625,-0.0025812486648559567,0.029074685048591342,-0.001021454285515938
1772702578266323500,1.643323486328125,-0.003032499563694,-0.002047671511117369,-0.009278997304406948
1772702578276373500,1.65337353515625,-0.0031827216893434524,-0.020098456383310256,-0.009240396026801318
1772702578286423600,1.663423583984375,0.012976970472931861,-0.020794238361436873,-0.021084802822826893
1772702578296472600,1.67347265625,-0.009023264411091804,-0.023295937250368295,-0.012089577196130994
1772702578306522600,1.683522705078125,-0.0019908815562725067,0.006079466044157743,-0.0021012694284552706
1772702578316571400,1.6935712890625,-0.0024397943675518036,0.0172839652181603,0.002604563325073104
1772702578326621400,1.703621337890625,-0.003935585883259773,-0.0031136750411242245,0.019895832783565857
1772702578336671500,1.71367138671875,0.0047428106129169464,-0.007577650446351617,0.02319904361399822
1772702578346720500,1.723720458984375,-0.00034369887113571166,-0.00911653218511492,0.010978250386787113
1772702578356770600,1.7337705078125,0.006240940216183662,-0.01425086286626756,0.00836578231647145
1772702578366820600,1.743820556640625,-0.006326280412077903,-0.009007482320070266,-0.022132544610358306
1772702578376869400,1.753869384765625,0.004298573976755142,-0.014377283991221337,0.007712108747288584
1772702578386919400,1.76391943359375,-0.0028828619599342345,-0.0038301527474075554,0.008321155440167058
1772702578396968700,1.77396875,0.010883213064074516,0.009219207108300178,0.0034187452351907266
1772702578407018500,1.7840185546875,0.021502806755900383,0.00629027751693502,-0.0029126314771128815
1772702578417068500,1.794068603515625,0.005343699115514755,-0.00426447077775374,0.00035860417932271954
1772702578427117600,1.80411767578125,-0.008571428990364074,0.0005857091997750103,0.010767269950651097
1772702578437167600,1.814167724609375,-0.001536123526096344,-0.006407072297018021,-0.014699529082374646
1772702578447217400,1.824217529296875,0.0010100538253784179,0.00036240357160568235,-0.035277683857583904
1772702578457266700,1.8342666015625,0.005348375290632247,0.004773735474143177,0.0022998173579922877
1772702578467316700,1.844316650390625,0.002205401089787483,0.0017735672774724662,0.01308375531565398
1772702578477366500,1.854366455078125,0.0032540333598852157,0.008738437854032962,0.007577319369500037
1772702578487415600,1.86441552734375,-0.010061959809064864,-0.003044007338397205,0.019402194914571007
1772702578497465600,1.874465576171875,0.008494856622815131,0.010778035656549036,-0.004692767775978427
1772702578507514400,1.884514404296875,-0.0012315876215696334,0.006021854105405509,-0.004334309727128129
1772702578517564400,1.894564453125,0.004752747485041618,-0.005564703188743442,-0.0043481761389877645
1772702578527614700,1.90461474609375,0.013579028019309044,-0.007097447447665035,-0.004012260998797137
1772702578537663500,1.91466357421875,0.006693360158801079,-0.008449574442673474,-0.004883552524168044
1772702578547713500,1.924713623046875,0.015070727881789207,-0.00819686005692929,-0.0012581240020459517
1772702578557763600,1.934763671875,0.017912088787555694,0.0037380905497819182,0.006402996626810636
1772702578567812400,1.944812255859375,0.012227028888463973,-0.02596217905124649,0.00035034324105363336
1772702578577862400,1.9548623046875,0.004599018228054046,-0.018068539724592117,-0.001115655924589373
1772702578587911700,1.96491162109375,0.01163023203909397,-0.017077957784663884,-0.016192888895689976
1772702578597961500,1.97496142578125,0.012376666492223739,-0.004248396425787359,-0.030496826806198803
1772702578608011500,1.985011474609375,-0.0007920271605253219,0.0001264941901899874,-0.00390311980220722
1772702578618060500,1.995060546875,0.005343699115514755,-0.0049958172596059735,-0.009206452658004127
1772702578628110600,2.005110595703125,0.005940495964884758,-0.009820278273988514,0.011590993723960127
1772702578638160400,2.015160400390625,0.009978373178839683,0.001244154842197895,0.011409867286682128
1772702578648209700,2.025209716796875,0.006385901644825935,0.002058795693330467,0.013283419773331842
1772702578658259700,2.035259765625,-0.0009492635488510131,0.0006898636939935386,0.001724661518272478
1772702578668308500,2.04530859375,0.008925649255514144,-0.0162949541808106,0.004427298939938191
1772702578678358500,2.055358642578125,0.0047369653940200806,-0.0061593628799542785,-0.005124786534672602
1772702578688408600,2.06540869140625,0.001893266400694847,0.006456026005279273,0.0022462194406543856
1772702578698457600,2.07545751953125,0.010271218645572662,-0.00913368424931541,0.016401944519509562
1772702578708507600,2.085507568359375,0.010272972211241722,-0.005783076913468539,-0.007314284519141074
1772702578718557700,2.0955576171875,-0.004239537265896797,-0.01024001978971064,-0.01036758027569158
1772702578728606500,2.1056064453125,0.018354571858048438,-0.00986035455605015,0.000525747757020872
1772702578738656500,2.115656494140625,0.002788753935694694,0.002912307250127196,-0.008032894817006309
1772702578748705500,2.12570556640625,0.005780336967110633,-0.001506440773885697,0.009369468049856368
1772702578758755300,2.13575537109375,0.008321838143467902,0.002490044983755797,0.020205197843548375
1772702578768805400,2.145805419921875,-0.005442483314871788,0.003735752462223172,0.004212765706691425
1772702578778854700,2.155854736328125,0.008625789526104927,-0.0010202646921388804,0.009880600476346443
1772702578788904400,2.165904541015625,0.00024725275933742524,-0.0028760851592756808,0.014431037172186188
1772702578798954800,2.175954833984375,0.009225508984923362,-0.001214106763806194,0.005199701234675012
1772702578809003800,2.186003662109375,0.0017418752312660217,-0.008920461623743176,0.008836062142765149
1772702578819053800,2.1960537109375,0.015362404304742812,0.0001572363883256912,-0.005457297291513532
1772702578829102800,2.206102783203125,0.015364742392301558,-0.0020134952468797564,-0.013405954741034657
1772702578839153000,2.21615283203125,0.006388239732384681,0.005823646385874599,0.0028701303425244986
1772702578849203000,2.226202880859375,-0.00243862532377243,-0.007132336097955703,-0.007592786366690416
1772702578859251700,2.236251708984375,-0.005880874732136726,-0.003813146813679486,0.021575666496134363
1772702578869301800,2.2463017578125,0.01087912141084671,0.013937321671377867,0.016682544709311332
1772702578879351800,2.256351806640625,0.009834580793976783,0.0094384210832417,0.0023472161466954276
1772702578889400800,2.26640087890625,-0.005126841494441032,0.0069285754204727705,0.011720789549511392
1772702578899451000,2.276450927734375,-0.003330605727434158,-0.006861428468395024,0.005924227533384691
1772702578909500000,2.2865,-0.00034019173979759216,-0.009769059543404728,0.01376995661468245
1772702578919549700,2.2965498046875,0.014025602743029594,-0.01563667293516919,0.001607563060801476
1772702578929599700,2.306599853515625,-0.003929740664362907,-0.0035737485672347248,0.012042826861399226
1772702578939648800,2.316648681640625,-0.005427870267629623,-0.003634684974234551,0.00850812481305329
1772702578949698800,2.32669873046875,-0.006326280412077903,0.0064119494015350935,0.009501225220342167
1772702578959748900,2.336748779296875,0.014320786297321319,0.003702599111292511,0.010305150597926695
1772702578969798000,2.3467978515625,0.008633972832560538,-0.007639737630821764,0.014009982765500898
1772702578979848000,2.356847900390625,0.004142506632208824,-0.01275607599755749,0.002357032004522625
1772702578989896700,2.366896728515625,-0.0013940847069025038,0.0035863523204810914,0.008732455637818201
1772702578999946800,2.37694677734375,-0.0063338791966438285,0.001442252963874489,-0.010249739749415312
1772702579009996800,2.386996826171875,-0.00947743791937828,0.0009097169897519052,-0.001664837072836235
1772702579020045800,2.3970458984375,0.0021942951738834378,-0.004618362249340862,0.005374813489697408
1772702579030096000,2.407095947265625,-0.0012467851907014846,0.002234974244143814,0.009109453990356996
1772702579040146000,2.41714599609375,-0.003941431102156639,-0.005195705479569733,0.020915063145954628
1772702579050194700,2.427194580078125,-0.012174421918392181,0.0012411957001313566,0.020817886381794232
1772702579060244700,2.43724462890625,0.006829553759098053,-0.009517295005731284,0.004654440493008587
1772702579070294000,2.4472939453125,-0.0011024082839488983,0.012972385629359632,0.019408987698249985
1772702579080343800,2.45734375,-0.016962825238704682,0.0026018713277764617,0.006585904029221274
1772702579090393900,2.467393798828125,0.010272387689352035,0.00013328925715759397,-0.005485064364562277
1772702579100443000,2.47744287109375,0.010421440771222115,0.0006432480732910334,0.0035887200907920485
1772702579110492700,2.48749267578125,0.012365560576319694,-0.010381163559760898,0.0034917899218038654
1772702579120542700,2.497542724609375,0.00997018987238407,-0.01330309715475887,0.0028061571616446596
1772702579130591700,2.507591796875,-0.008287351351976394,-0.006038147653080523,0.006638965373730752
1772702579140642000,2.51764208984375,0.002336918514966965,0.003515789568610489,0.009589193481451366
1772702579150690800,2.52769091796875,0.005032148948311805,0.011059939604159444,0.020425571729114744
1772702579160740900,2.537740966796875,-0.0039449382334947585,0.003486179881636053,0.013805228857463225
1772702579170791000,2.547791015625,0.012214169406890869,0.003732519325520843,0.002732575902203098
1772702579180839700,2.557839599609375,0.011169044268131256,0.002717697993479669,-0.007952290161733981
1772702579190889700,2.5678896484375,0.008178045758605004,0.007885492552816868,0.015336290332663339
1772702579200939800,2.577939697265625,0.011770517292618752,0.0016916976802982388,-0.0059082399463863105
1772702579210988800,2.58798876953125,0.006081365740299225,-0.0108793954054825,-0.014989260143414139
1772702579221038800,2.598038818359375,0.00009469254612922667,0.000676803283020854,-0.015082948042545466
1772702579231089000,2.6080888671875,-0.005144377151131629,0.003773929048143327,0.005827742605679668
1772702579241137700,2.6181376953125,-0.004695464339852333,-0.01370672778589651,0.005914183346694335
1772702579251187700,2.628187744140625,0.014611878198385237,0.0025422500950284302,-0.005064601329632569
1772702579261237000,2.638237060546875,0.0014472761988639832,-0.000763403854239732,-0.005512329114112071
1772702579271286800,2.648286865234375,0.013417699977755547,0.00076744070854038,-0.00491839550868608
1772702579281336800,2.6583369140625,0.0071329206198453895,-0.006270750832557678,0.00641487657756079
1772702579291385900,2.6683857421875,0.009527706801891326,-0.0018271240956149995,-0.008026060934131964
1772702579301435600,2.678435546875,-0.002294248417019844,-0.00955359016181901,0.005215302945894655
1772702579311485700,2.688485595703125,0.006837152543663978,0.0020981413230299947,-0.005324825451686047
1772702579321535000,2.698534912109375,-0.00857727420926094,-0.004538374081999063,-0.009284061638591811
1772702579331585000,2.7085849609375,0.01147474921643734,-0.004582596816215664,0.0026675820913049392
1772702579341633800,2.7186337890625,0.001748304972052574,-0.008634429490286857,-0.005453552698157727
1772702579351683800,2.728683837890625,0.002942483192682266,0.00017338380552828312,-0.003922075664426665
1772702579361734000,2.73873388671875,0.00922609350681305,-0.00932047552568838,-0.010247461027360986
1772702579371782700,2.74878271484375,-0.009327215793728827,-0.00817484915452078,-0.006454834128613584
1772702579381833000,2.7588330078125,0.008927987343072891,0.008013703776057809,-0.006605624793132301
1772702579391883000,2.768883056640625,0.0069803604066371915,0.0010722871403209865,-0.00873616141526727
1772702579401931800,2.778931884765625,0.005035656079649925,0.004476049435511231,-0.004684949795703869
1772702579411981800,2.78898193359375,0.0009966098219156266,-0.0015529467967338858,-0.004537714211584535
1772702579422030800,2.79903076171875,-0.0012497078001499175,-0.01030124845765531,0.030518134455708786
1772702579432080600,2.80908056640625,0.003984685721993446,-0.010456676481384783,0.015896960989304352
1772702579442130700,2.819130615234375,0.005631868407130241,-0.008596015442349015,-0.0006996407359139993
1772702579452180000,2.829179931640625,0.01640636039972305,-0.0062181621287949376,0.005915587569202762
1772702579462229800,2.839229736328125,0.016556582525372503,-0.009828662509843707,0.013008285776514094
1772702579472279800,2.84927978515625,0.0024900632500648497,0.00844347349544987,0.010094071980379522
1772702579482328800,2.859328857421875,0.0054845688909292215,0.0037576902993954717,0.020687796012009492
1772702579492378600,2.869378662109375,0.00578267505466938,0.011735445979237556,0.00745610185933765
1772702579502428000,2.879427978515625,-0.007383680510520935,-0.003188566908240318,-0.00040904887506039813
1772702579512478000,2.88947802734375,0.009972527959942816,0.00542001575473696,-0.023797109971847384
1772702579522528000,2.899528076171875,0.0035386955201625824,-0.01719688972290605,-0.010211807475378736
1772702579532576800,2.90957666015625,0.007730886512994766,-0.00806062992401421,0.0011398724838159978
1772702579542626800,2.919626708984375,0.007132336097955703,-0.00389445015527308,-0.0013372833356144838
1772702579552676900,2.9296767578125,0.0065332011610269546,-0.00568107784371823,0.002341345811623614
1772702579562726000,2.939725830078125,-0.0005003507375717163,-0.003698927583172917,0.007701585069985594
1772702579572776000,2.94977587890625,-0.006636077013611793,-0.005355389553308487,0.007304333947284612
1772702579582826000,2.959825927734375,0.0020458266139030457,0.0032017186507582664,0.0072561154579627325
1772702579592874800,2.969874755859375,0.0012999766826629637,-0.0003428768872283399,0.007699132817995269
1772702579602924800,2.9799248046875,0.007135843229293823,-0.005686977861542254,-0.008614742975705303
1772702579612973800,2.989973876953125,0.01192132394015789,-0.0015339133027009665,-0.020064334917999804
1772702579623023900,3.00002392578125,-0.008880056548118591,-0.0104183172323741,-0.004348840575979556
1772702579633074000,3.010073974609375,-0.0015507365733385084,-0.006235734318103641,-0.0034878284160280598
1772702579643123000,3.020123046875,0.0053308396339416505,0.0025076171730645,-0.0025631079366779884
1772702579653172700,3.0301728515625,0.01954875007867813,-0.0003157331519760191,0.013370141358848195
1772702579663222800,3.040222900390625,0.007127659922838211,-0.001015515451785177,0.0104492398103117
1772702579673271800,3.050271728515625,-0.006191840377449989,-0.0021385098660364745,0.024563804045005234
1772702579683321600,3.060321533203125,-0.006638999623060226,-0.0038692974477075037,0.006874904437898658
1772702579693371000,3.070370849609375,-0.0036433249384164807,-0.00818761730454862,0.009344340458465739
1772702579703421000,3.0804208984375,-0.007684709283709526,-0.008280428420845419,0.004625079684494994
1772702579713471000,3.090470947265625,-0.0028968904852867123,-0.026069877209421246,0.007855503839929587
1772702579723519700,3.100519775390625,0.012966449078917502,-0.012255012873932719,0.023733714462991336
1772702579733569800,3.11056982421875,0.005935235267877578,-0.011898143993970005,-0.010826952832192182
1772702579743619800,3.120619873046875,0.008478490009903908,-0.01322391270501539,0.00034255494353128594
1772702579753668900,3.1306689453125,0.0050374096453189845,0.0009564604746177792,-0.005079182410833891
1772702579763719000,3.140718994140625,-0.008279752567410469,0.0027516185293905435,-0.00037998489406891166
1772702579773767700,3.150767578125,0.014912906971573828,-0.00139817636013031,-0.006031475883699022
1772702579783817700,3.160817626953125,0.010275310298800468,-0.0034128771834075447,0.009949583192483987
1772702579793867300,3.1708671875,0.00429039067029953,-0.0010446136821061372,0.024321204627898985
1772702579803916500,3.18091650390625,0.009826397487521172,0.006142283880989998,0.018729930809349753
1772702579813966600,3.190966552734375,0.0018991116195917128,-0.0069375807108357545,0.008773758045875001
1772702579824016400,3.201016357421875,0.01073182189464569,-0.008769618443585932,0.0072910178079851895
1772702579834065400,3.2110654296875,0.01462181507050991,0.00009852847103029489,-0.016705491760058793
1772702579844115500,3.221115478515625,0.0019049568384885787,0.014809866722207516,-0.0005902643605950288
1772702579854164500,3.23116455078125,0.005644143366813659,-0.013212879854347557,0.012930911974655464
1772702579864214500,3.241214599609375,0.007141688448190689,0.004421908095479011,-0.0040226339790504426
1772702579874264600,3.2512646484375,0.006844751328229904,0.004748820228595287,0.0027883794763591137
1772702579884313300,3.261313232421875,-0.003927402576804161,0.004952233846206217,0.013555583211639896
1772702579894363400,3.27136328125,-0.011408113721013068,0.0014665106222964822,0.0014815620609559118
1772702579904413400,3.281413330078125,0.007594692912697792,0.008259202969726175,-0.0008235296937753446
1772702579914462200,3.291462158203125,0.018671967244148255,-0.01024555448135361,0.0034395619776449162
1772702579924512500,3.301512451171875,0.001762333497405052,-0.022475761707592756,-0.008735590593109372
1772702579934562600,3.3115625,0.015381109005212782,-0.018840875803958622,-0.01010672139939852
1772702579944611600,3.321611572265625,0.008196165937185288,-0.0226046670505777,0.009306775793898851
1772702579954661400,3.331661376953125,0.007294833183288574,-0.051947300586663185,0.024379515252972488
1772702579964710400,3.34171044921875,-0.01514730024933815,-0.13260494642155243,0.05365365697997622
1772702579974760400,3.351760498046875,0.008352817803621291,0.023594847131706773,-0.03990984858670272
1772702579984810200,3.361810302734375,-0.014693126741051672,0.19738038359498605,-0.10126581443916075
1772702579994859500,3.371859619140625,0.029449966368079183,0.09472014652220531,-0.017693082591879645
1772702580004909600,3.38190966796875,0.008202011156082153,-0.02456707143103704,0.0715058870727662
1772702580014958300,3.391958251953125,-0.005713116949796676,-0.06142026326032355,0.0675699084638618
1772702580025008400,3.40200830078125,0.0053571431189775465,-0.08253047223575413,0.04398742305680643
1772702580035058400,3.412058349609375,0.007303016489744186,-0.07387574887610972,-0.00024462697741109874
1772702580045107500,3.422107421875,-0.013645663514733314,-0.04295786537993699,-0.02048111272507813
1772702580055157500,3.432157470703125,0.011198270362615585,0.04365253311321139,-0.02530718345794594
1772702580065207600,3.44220751953125,0.012696984487771987,0.10009182962318881,-0.011543693116668145
1772702580075256300,3.45225634765625,-0.009601356559991836,0.0686129877760075,-0.0020508018998312764
1772702580085306400,3.462306396484375,0.0008732757031917572,-0.053618978392239655,0.014469090460520237
1772702580095356400,3.4723564453125,0.013445172506570815,-0.11150452818777412,0.021344485805474687
1772702580105405400,3.482405517578125,-0.0042108956933021545,-0.0653384413510561,-0.02503392175780609
1772702580115455500,3.49245556640625,-0.007504092019796371,0.012702555712033062,-0.050283842620160425
1772702580125504500,3.50250439453125,0.008656184664368629,0.05583139374470338,-0.026449199949786995
1772702580135554600,3.512554443359375,-0.012743746238946915,0.03948213382707909,0.007956690058927051
1772702580145604400,3.522604248046875,-0.007054594686627388,0.017507800569292156,0.030301137554028534
1772702580155653400,3.5326533203125,0.015096446844935416,0.008402392566390336,0.011890433328261132
1772702580165703400,3.542703369140625,0.004325461983680725,-0.026505254685692488,0.01224551210993668
1772702580175753500,3.55275341796875,0.002979308071732521,-0.03949787938548252,0.009469352794333826
1772702580185802500,3.562802490234375,0.00073415949344635,-0.048897338431514795,-0.01596880923267454
1772702580195852500,3.5728525390625,0.011954641687870025,-0.008243603541795165,-0.003338291276968084
1772702580205901300,3.5829013671875,0.00043254619836807247,0.028578955687209962,-0.004558617719006724
1772702580215951400,3.592951416015625,0.012702245184779167,0.017667174115777014,0.018512251204368658
1772702580226001400,3.60300146484375,-0.015428455278277397,-0.009500636131875217,0.00728331170885358
1772702580236050400,3.613050537109375,0.0005839373677968978,-0.03033323374232277,0.00718147018601885
1772702580246100500,3.6231005859375,0.006867547681927681,-0.029865232638083397,0.002128027287928853
1772702580256150500,3.633150634765625,-0.0064507835745811455,0.0002839497742243111,0.005986145754496101
1772702580266199300,3.64319921875,-0.004957914668321609,0.016897395319677887,-0.01650636159192072
1772702580276249300,3.653249267578125,-0.005261281529068946,0.01564978814506903,0.010173907167383003
1772702580286298600,3.663298583984375,-0.006606850919127464,0.006750606771372258,-0.005681972892861813
1772702580296348400,3.673348388671875,0.0026730186015367506,0.012879976371861994,0.001865131718176417
1772702580306398500,3.6833984375,0.005368833556771278,-0.00836859989464283,0.0037768585074576546
1772702580316447500,3.693447509765625,0.013451017725467682,-0.023142938645742833,-0.0042363771944306785
1772702580326497500,3.70349755859375,-0.006003624328970909,-0.04008901367904618,0.01335462184601929
1772702580336547300,3.71354736328125,0.005968553015589714,-0.0070823594763875005,0.00446284974393202
1772702580346596400,3.723596435546875,0.0089624741345644,0.009179404820874332,-0.009574799629917833
1772702580356646700,3.733646728515625,0.015546528699994086,0.01351440181788057,0.0015276662250049411
1772702580366696400,3.743696533203125,0.006117606097459793,0.018849059110414235,0.017087433432484977
1772702580376745500,3.753745361328125,0.012850129222869872,-0.008018708744738251,0.009883516235928981
1772702580386795500,3.76379541015625,0.005811901149153709,-0.00011909633502364157,0.009614880478556733
1772702580396844300,3.77384423828125,0.0025192893445491788,-0.004555270417872816,-0.003942013340757694
1772702580406894300,3.783894287109375,-0.005413257220387459,0.0003204093270935118,0.004223661560041364
1772702580416944400,3.7939443359375,-0.005559387692809104,-0.014500362381618469,-0.002764003086928278
1772702580426993400,3.803993408203125,0.0017787001103162765,0.005824888494890183,-0.009636115062830504
1772702580437043500,3.81404345703125,0.005368833556771278,0.006334883843641728,0.0026853574933018536
1772702580447093500,3.824093505859375,0.0034217911422252654,-0.00962163216304034,0.015150184042879844
1772702580457142300,3.834142333984375,0.010306289958953857,-0.02148477790886536,0.013101204207376576
1772702580467192300,3.8441923828125,0.0065653498649597165,-0.006241323808673769,0.009797694266133476
1772702580477241600,3.85424169921875,0.012402969977259636,0.0005509849462658167,-0.005986677760747261
1772702580487291400,3.86429150390625,0.001633154159784317,0.010921627112012356,-0.00017178322019753976
1772702580497341400,3.874341552734375,0.004624152669310569,0.006077365418616682,0.0008115880942321382
1772702580507390500,3.884390380859375,0.0047714521855115885,-0.02539212407832965,0.006444397216278593
1772702580517440500,3.8944404296875,-0.000315057298541069,-0.0062884143534116446,0.0026530284095671957
1772702580527490300,3.904490234375,0.01389934601485729,-0.0056740818473510445,-0.0056874231028254145
1772702580537539600,3.91453955078125,0.007314706927537918,-0.006251023218780755,-0.0006417730688350275
1772702580547589600,3.924589599609375,0.0008797054439783096,-0.017311291616503147,0.0033280918266507795
1772702580557639400,3.934639404296875,0.011951719078421592,0.0014691775034181773,-0.0005543368139769881
1772702580567688400,3.9446884765625,0.011052139890193938,0.0023134463078342375,0.011826197569188662
1772702580577738500,3.954738525390625,-0.0013707038313150405,-0.005480002313666046,0.00443163947162684
1772702580587787300,3.964787353515625,0.014339490997791289,-0.006116802379861474,0.005351813923311419
1772702580597837600,3.974837646484375,0.004612462231516838,-0.013826865300536156,0.01112557730245171
1772702580607887600,3.9848876953125,-0.009153028270602225,-0.014509806063398719,0.020913709155796094
1772702580617936400,3.994936279296875,0.012547931405901908,-0.007775328442919999,0.018363492666732054
1772702580627986400,4.004986328125,0.011047463715076446,0.007077774632815271,-0.00004517258228734135
1772702580638036500,4.015036376953125,0.005810147583484649,-0.0037070926233194767,-0.0024899057031492703
1772702580648085200,4.025085205078125,0.00985036288499832,-0.0056619164855219424,0.006830323227366898
1772702580658135300,4.03513525390625,0.005505611678957939,-0.0034494098015129563,0.032928720995085314
1772702580668184600,4.0451845703125,-0.007062777993083,-0.0048910782434977585,0.0013853967936593107
1772702580678234400,4.055234375,0.013887071055173873,-0.0053375251030549405,0.007159810910059604
1772702580688284400,4.065284423828125,-0.006760580176115035,-0.0035293614362366496,-0.013818844107573386
1772702580698333400,4.07533349609375,0.007753098344802856,-0.010492862039618193,-0.003356546169577632
1772702580708383500,4.085383544921875,0.02690729614794254,0.006989566626399755,0.0014859596748603508
1772702580718433300,4.095433349609375,-0.0010743512332439423,-0.005744626332912593,-0.0038618173941504207
1772702580728482600,4.105482666015625,0.017631518280506134,-0.019299798552598803,0.007490415120893158
1772702580738532600,4.11553271484375,0.005809563061594963,0.003518109389860183,-0.005720608419796917
1772702580748581400,4.125581298828125,0.010746434941887855,0.0010399375069886445,-0.01177694246682804
1772702580758631400,4.13563134765625,0.0014683189868927,0.003142572342045605,-0.001713688033109065
1772702580768681500,4.145681396484375,0.0025157822132110593,0.002704345321562141,-0.003155491189123131
1772702580778730500,4.15573046875,-0.010950433081388473,-0.0037882863670587537,0.010894812170322983
1772702580788780500,4.165780517578125,0.004465162715315819,-0.001261781830433756,0.009115488722210284
1772702580798830600,4.17583056640625,0.005362403815984726,-0.006335724093858152,0.01593761722667841
1772702580808879400,4.18587939453125,0.018529343903064727,-0.0029984328973107037,0.0029737505472032352
1772702580818929400,4.195929443359375,0.003265723797678947,-0.0073145790633745485,-0.01727955162123544
1772702580828978400,4.205978515625,0.00715513245165348,-0.0005159318991936743,0.013981446224183309
1772702580839028500,4.216028564453125,-0.0030196400821208952,0.0033517033143900333,0.011228076412412337
1772702580849078500,4.22607861328125,-0.005114566534757614,-0.011298369736224412,0.009496160886157304
1772702580859127600,4.23612744140625,0.003265723797678947,-0.008339008473977446,-0.01878370910648955
1772702580869177300,4.24617724609375,0.007006079369783401,-0.008307900949660689,0.004621309974964242
1772702580879227400,4.256227294921875,0.003114332628250122,-0.015597400370705871,0.00034317599803907796
1772702580889276400,4.2662763671875,0.0010164835661649703,-0.006269874049723148,0.008927921127702574
1772702580899326500,4.276326416015625,-0.010053776502609251,-0.008047076322697102,-0.0018601587155368177
1772702580909376300,4.286376220703125,0.005210428124666214,-0.0058667000763118265,0.004604778965271544
1772702580919425500,4.296425537109375,-0.010799626433849335,0.003502254233602434,0.00040504627008922393
1772702580929475600,4.3064755859375,0.008351064237952233,-0.012513316750247031,0.0006700082160532474
1772702580939524400,4.3165244140625,0.01238835693001747,-0.018645974286366253,0.0029471456680679694
1772702580949574400,4.326574462890625,0.016878069564700126,-0.009407806749269366,-0.0022779046369949354
1772702580959624400,4.33662451171875,0.01328501350879669,0.001291957772988826,-0.00248980523844948
1772702580969673500,4.346673583984375,0.01657820983529091,0.00823384933276102,-0.006010844087623991
1772702580979723500,4.3567236328125,0.001613280415534973,-0.006813753401767462,0.015744992147851734
1772702580989773600,4.366773681640625,0.009542904371023177,-0.0006450381715781986,0.004429961254482623
1772702580999822300,4.376822265625,0.00206043966114521,-0.010163483954779803,-0.006998583333205897
1772702581009872400,4.386872314453125,-0.0010825345396995544,-0.01324807903189212,-0.009572943316260352
1772702581019921700,4.396921630859375,0.001460135680437088,-0.013768449644185601,0.004528978349280077
1772702581029971500,4.406971435546875,-0.014401450318098067,-0.0020764957468025385,0.002329847170074936
1772702581040021500,4.417021484375,0.012085574591159819,0.020152597723342477,0.00340036247841781
1772702581050070500,4.427070556640625,0.013582535150647163,0.0162139613664709,-0.01524018899744842
1772702581060120300,4.437120361328125,-0.005869768816232681,-0.006895805662032216,-0.009405329381104093
1772702581070170400,4.44717041015625,0.0019131401449441908,-0.01266412339778617,0.002165605652227532
1772702581080219400,4.457219482421875,0.0037111294776201245,-0.01202346914038062,-0.0028078445119434033
1772702581090269400,4.46726953125,0.004161211332678795,0.0058835598795674736,0.017520680600462947
1772702581100319500,4.477319580078125,-0.0012263269245624542,-0.007555274217762052,-0.008771755601745099
1772702581110368500,4.487368408203125,0.005354220509529113,0.0102886995033361,0.0018316861063009126
1772702581120418600,4.49741845703125,0.0005640636235475539,0.010662537784408777,0.0000011850267997942865
1772702581130467300,4.50746728515625,-0.0079646952688694,-0.0044929092387668785,-0.0060871401772485114
1772702581140517400,4.517517333984375,0.0028068741142749784,-0.001981784934364259,0.014539052707480732
1772702581150567400,4.5275673828125,0.006546645164489746,-0.004016615230217576,0.013013966598629485
1772702581160616400,4.537616455078125,-0.001533200916647911,-0.007492200652603059,-0.0035518015969078984
1772702581170666500,4.54766650390625,0.002211246308684349,-0.014672412746585905,0.01618257299765246
1772702581180716500,4.557716552734375,0.011340309181809425,-0.012931067238282412,-0.002526070711784996
1772702581190765300,4.567765380859375,0.0029617724150419232,0.0000017170330509543417,-0.0053253643078031015
1772702581200815400,4.5778154296875,-0.0027238720059394833,-0.0027104462687857446,0.0010328204963239841
1772702581210864600,4.58786474609375,-0.001225157880783081,-0.014177249640785157,0.005932757899712305
1772702581220914400,4.59791455078125,0.003266308319568634,0.006044942720048129,0.020225936954189092
1772702581230964500,4.607964599609375,0.011047463715076446,0.0015528554651886223,-0.008911967790033668
1772702581241013500,4.618013427734375,-0.009008066841959953,-0.00032435484984889623,-0.005869944629457313
1772702581251063300,4.628063232421875,-0.004521276816725731,-0.01531114904154092,0.018704924232256597
1772702581261113300,4.63811328125,0.007901566904783249,0.005803462114371359,0.012198092771635857
1772702581271162600,4.64816259765625,-0.0015256021320819854,-0.000791278241854161,0.012233552244084421
1772702581281212400,4.65821240234375,0.0061035775721073144,0.0030747312702238557,0.0014865761627908796
1772702581291261400,4.668261474609375,-0.003769581666588783,-0.0036757659032940863,-0.0174457704670378
1772702581301311500,4.6783115234375,-0.0006260229438543319,-0.015121782215591519,0.0007237180145340972
1772702581311361500,4.688361572265625,0.015086509972810745,-0.003904496625252068,0.005715404805005528
1772702581321410300,4.698410400390625,0.00101999069750309,-0.002959069001302123,0.0035339234469225628
1772702581331460400,4.70846044921875,0.004014496338367462,-0.010208291210886091,0.0022345221529947593
1772702581341510700,4.7185107421875,0.006261983004212379,0.0011924246549606323,0.003818587890488561
1772702581351559400,4.728559326171875,0.0002782324194908142,-0.008926398174185305,-0.002148677350312937
1772702581361609500,4.738609375,0.011951134556531906,-0.0010470431012101471,-0.004673942061210982
1772702581371659500,4.748659423828125,0.01270166066288948,-0.004140917463321238,-0.012993519748933613
1772702581381708300,4.758708251953125,0.008511223235726355,-0.015764701495319604,0.0030852503809495825
1772702581391758300,4.76875830078125,0.004171732726693153,-0.0014074373788200319,-0.001166059521131683
1772702581401807600,4.7788076171875,-0.004806523498892784,-0.008281086007971316,-0.008206095959444064
1772702581411857400,4.788857421875,0.0014794249027967451,-0.005349836595356464,0.008112914950388949
1772702581421907500,4.798907470703125,0.0020756372302770613,-0.012105923259444535,0.0011979091142537072
1772702581431956500,4.80895654296875,0.0019236615389585494,-0.002811860816646367,-0.002701945585210342
1772702581442006300,4.81900634765625,0.01658639314174652,-0.013192768648080527,0.0022631934083416124
1772702581452056300,4.829056396484375,0.008956044393777847,-0.0023105784973129627,0.009194659472221974
1772702581462105600,4.839105712890625,0.003723404437303543,0.004488781052920967,0.0048287102145259265
1772702581472155400,4.8491552734375,0.011203531059622764,0.0019108751226216553,-0.0006115012281574309
1772702581482204400,4.859204345703125,0.018835633373260496,-0.009346322352997958,0.010144222131883726
1772702581492254500,4.86925439453125,0.021084873604774474,-0.0067406881655566395,-0.014711292585404588
1772702581502304500,4.879304443359375,-0.009441782084107399,-0.014651296893320977,0.008230177804641425
1772702581512353500,4.889353515625,0.0017804536759853363,0.00020589783564209938,0.0042347971586976195
1772702581522403600,4.899403564453125,0.011053893455862999,0.0011646233325824141,0.014092957474372815
1772702581532453600,4.90945361328125,-0.005557634127140045,-0.0001039352985098958,-0.0055540128313703455
1772702581542502400,4.91950244140625,0.00506897382736206,0.0096534338071011,0.007019279061362613
1772702581552552400,4.929552490234375,0.0014776713371276854,0.003825092979799956,-0.0007260035864543169
1772702581562601200,4.939601318359375,-0.008401333120465279,0.0030504918781109154,-0.01607013701556716
1772702581572651300,4.9496513671875,-0.0009235445857048034,0.0011750168624334036,-0.012741551998571958
1772702581582701600,4.95970166015625,-0.0013736264407634734,0.000030632600281387566,0.008114036045107059
1772702581592750600,4.96975048828125,0.0038660277783870694,0.0024770941706374287,0.0017948703604051843
1772702581602800400,4.97980029296875,0.013741525104641914,0.005630388836096972,0.006838830760808196
1772702581612850400,4.989850341796875,0.004465162715315819,-0.02060114520844072,0.00963838236844167
1772702581622899500,4.9998994140625,0.010001754054427147,-0.0068465962254442275,0.0013915068740374408
1772702581632949200,5.00994921875,0.018083353701233863,-0.00422207467444241,0.005895359915215522
1772702581642999300,5.019999267578125,0.006412205129861831,-0.012016838470194488,0.006543343529128469
1772702581653048600,5.030048583984375,0.001174304476380348,-0.009579473521746694,-0.0018508132151677271
1772702581663098400,5.040098388671875,0.007756020954251289,0.007447630858514458,0.0012891059454879722
1772702581673147400,5.0501474609375,0.002521627432107925,0.0010383666044101118,0.002570957882993389
1772702581683197400,5.060197509765625,0.005964461362361908,-0.00009074702337384224,0.004174748950975481
1772702581693247500,5.07024755859375,-0.010944587862491606,0.012209018307738006,0.02142777332488913
1772702581703296500,5.080296630859375,0.003274491626024246,0.014867971851304172,0.0046831848135916515
1772702581713346600,5.0903466796875,0.0004319616764783859,0.016498532195203006,0.007036778185435104
1772702581723396600,5.100396728515625,0.00656476534307003,-0.005558273447956889,-0.006658156414679251
1772702581733445400,5.1104453125,0.006117021575570106,-0.004279631814267486,0.007151995213073678
1772702581743495400,5.120495361328125,0.01075403372645378,0.0022392302941530943,-0.00021353315282613038
1772702581753545500,5.13054541015625,0.009705985978245735,-0.012672124041151254,-0.0007569786800304427
1772702581763594500,5.140594482421875,0.005067804783582687,-0.005970744972676039,0.000540730697021354
1772702581773644500,5.15064453125,0.010154898789525031,0.0030354952383786437,0.00571379736980889
1772702581783693600,5.160693603515625,0.005814823758602142,-0.004268270170036703,-0.006072901589341927
1772702581793743400,5.170743408203125,0.011202946537733077,-0.01690130430981517,-0.004332273033668753
1772702581803794000,5.1807939453125,0.008506547060608863,-0.0076064381494186815,0.011380230200244113
1772702581813843000,5.190843017578125,-0.008252280038595199,0.004203187310881913,-0.0002981837955536321
1772702581823892700,5.200892822265625,0.013592472022771834,-0.014517295250110328,-0.0073322083348990414
1772702581833942800,5.21094287109375,0.003267477363348007,0.0024253457170911132,0.00876681228185771
1772702581843992000,5.220991943359375,0.0031172552376985546,-0.0035352797203697262,-0.009168440468865446
1772702581854041900,5.231041748046875,0.0032651392757892606,-0.0006227350082248449,-0.008200718814716674
1772702581864091000,5.2410908203125,0.005658756414055824,-0.016576492802239953,0.0015753321584779769
1772702581874141000,5.251140869140625,0.011045710149407386,-0.00924372049504891,0.005035763394215609
1772702581884190700,5.261190673828125,-0.0012234043151140212,-0.00017672654008492827,0.009006479956360999
1772702581894240000,5.271239990234375,-0.002122398981451988,-0.012967819052096456,0.009011078499665018
1772702581904290000,5.2812900390625,0.006854103678464889,-0.006602357407100498,-0.013200282950967084
1772702581914340000,5.291340087890625,-0.004522445860505104,0.0009316182943060994,0.0067407087151543236
1772702581924388900,5.301388916015625,0.011041033974289894,0.0031329642634838816,-0.006502102769864722
1772702581934439000,5.31143896484375,0.004605447968840598,-0.0024810579597018658,0.003130788289417978
1772702581944488000,5.321488037109375,0.009091653472185135,0.007281955435406416,0.017608062056393828
1772702581954538000,5.3315380859375,0.0016103578060865402,-0.007870842972956597,-0.0036720098934951238
1772702581964587000,5.3415869140625,0.010436638340353965,-0.008667381911817937,0.023972347807744515
1772702581974636800,5.35163671875,0.009987141007184982,-0.012242555251158773,-0.00007024309146218002
1772702581984686800,5.361686767578125,0.010588029509782791,0.002159662251919508,0.013491621447203214
1772702581994735900,5.37173583984375,0.005949263793230056,-0.005924896536953747,0.0032608946422231382
1772702582004786000,5.381785888671875,0.005052607214450836,-0.016178068069182334,-0.005962296804739162
1772702582014835700,5.391835693359375,-0.014252397236227989,-0.011151179817877709,0.006247627968585584
1772702582024885000,5.401885009765625,0.014026771786808967,-0.005495747872069478,-0.0004970765016740188
1772702582034935000,5.41193505859375,0.009984802919626235,0.0024024945644661785,-0.0004200634594191797
1772702582044983800,5.42198388671875,0.013725158491730689,-0.0107538327970542,0.000675250646751374
1772702582055033900,5.432033935546875,-0.0064770870596170425,-0.008899583232495933,0.014095733953348826
1772702582065084000,5.442083984375,0.005042670342326164,0.0015370185752399265,-0.0000011005451204255223
1772702582075133000,5.4521328125,0.012072715109586714,0.001826649171579629,0.004803025500709191
1772702582085183000,5.462182861328125,0.006083119305968284,-0.004394855691771954,0.006291234214871656
1772702582095233000,5.47223291015625,0.00832066909968853,-0.011506477795261889,0.008814523881103377
1772702582105281800,5.48228173828125,0.007720365118980407,0.008172383202798663,0.0020685727352509273
1772702582115331800,5.492331787109375,-0.0021527941197156905,0.009972071302216499,0.01232524454895174
1772702582125381000,5.502381103515625,0.004879004213213921,-0.010043017646577208,0.011371674717741552
1772702582135431000,5.512430908203125,0.005925882917642593,0.0076652921971864995,0.00810637561174808
1772702582145481000,5.52248095703125,0.004280453798174858,0.0003099975309334695,0.007741394207277335
1772702582155530000,5.532530029296875,0.00023848493099212645,0.005196125604677945,-0.010387654949340503
1772702582165579800,5.542579833984375,0.0006873977422714233,-0.00855951935686171,-0.010170011876977515
1772702582175629800,5.5526298828125,-0.016222236004471778,-0.014241620113886891,-0.016924824466009156
1772702582185678800,5.562678955078125,-0.0012543839752674102,0.005318509875331074,-0.001754465284780599
1772702582195729000,5.57272900390625,-0.0024538228929042814,-0.01627045906037092,0.010968950552190654
1772702582205778000,5.58277783203125,0.0056254386663436885,-0.0028659290914423764,0.00010593545935116707
1772702582215828000,5.592827880859375,0.008616437175869941,0.008463694299571216,0.011650512208719738
1772702582225878000,5.6028779296875,0.0003857844471931457,-0.005281721528898924,0.019290254406118763
1772702582235926800,5.6129267578125,0.0012877017229795456,0.00032908582389354704,0.018250401380809488
1772702582245976800,5.622976806640625,0.004729951131343842,-0.009864683671295641,-0.012605146052432245
1772702582256027000,5.63302685546875,0.006974515187740326,0.002847133059427142,-0.0020085405105492097
1772702582266076000,5.643075927734375,0.005927636483311653,-0.005409804887976497,-0.007370348388201091
1772702582276126000,5.6531259765625,-0.00843874252140522,0.003026855274196714,-0.0046822486652527
1772702582286176000,5.663176025390625,0.012214169406890869,0.0008009228530339896,0.011086857293837238
1772702582296224800,5.673224853515625,0.014009820652008056,-0.017292385986633598,0.010871184699563309
1772702582306274800,5.68327490234375,0.017597031489014623,0.006702438514400273,-0.002517403348139487
1772702582316324000,5.693323974609375,0.0053249944150447846,-0.00037374694952741264,0.0024796857032342813
1772702582326374000,5.703373779296875,0.008616437175869941,-0.004076291261892765,-0.016475731274927966
1772702582336424000,5.713423828125,0.014901801055669784,-0.018764650496281683,0.012012075530108995
1772702582346473000,5.723472900390625,-0.0003653261810541153,-0.0008895144519396126,0.017331631151633334
1772702582356522800,5.733522705078125,-0.0008148235142230987,-0.0029609504311345516,0.0048636513804551215
1772702582366572800,5.74357275390625,-0.005003507375717163,-0.0019368863467127083,0.0028995025674812495
1772702582376622000,5.7536220703125,0.0033750293910503387,-0.018481248711328953,0.005280358405585866
1772702582386672000,5.763672119140625,-0.005008768072724342,-0.021128274355083704,0.002023571399610955
1772702582396722000,5.773721923828125,0.015639467680454253,-0.007688600007537752,0.008533889441972132
1772702582406771000,5.78377099609375,0.016087211447954178,-0.012271306421607732,0.015732918117567895
1772702582416821000,5.793821044921875,0.0035182372540235518,-0.011099997619912028,-0.0022522427560645155
1772702582426869800,5.803869873046875,0.0006757073044776916,-0.003507734126318246,0.009609122024627867
1772702582436919800,5.813919921875,-0.002616319978237152,0.002020217248611152,0.004164079143200069
1772702582446970000,5.82397021484375,0.0038157588958740232,0.010522855319082737,-0.0008759791169315576
1772702582457019000,5.834018798828125,0.004710077387094497,-0.0018389423975721001,0.0015182271098019555
1772702582467069000,5.84406884765625,0.005754618003964424,-0.010834734279848634,0.0015479760773829184
1772702582477119000,5.854118896484375,-0.004122048366069793,0.005831099039968103,0.004613409796298947
1772702582487167700,5.864167724609375,0.0017155717462301254,-0.0024912322938442227,0.011305886322399601
1772702582497217800,5.8742177734375,0.004107435318827629,-0.0008827559175901115,0.0003783066769246943
1772702582507267800,5.884267822265625,-0.0032242227435111998,-0.0006430836765095591,-0.002856677205907181
1772702582517316900,5.89431689453125,0.0032137013494968414,0.0005186170466244221,0.0029168692608131093
1772702582527367000,5.904366943359375,0.016381225958466528,-0.011108546252548694,0.01813822797691682
1772702582537416000,5.914416015625,0.005758125135302544,-0.006828695242572576,-0.002708847966743633
1772702582547465700,5.9244658203125,0.005457680884003639,-0.0000307421981357038,-0.007039068323932588
1772702582557515800,5.934515869140625,-0.002471358549594879,-0.001015204924531281,-0.003231874043715652
1772702582567565000,5.94456494140625,-0.0047118309527635575,0.001473908477462828,0.0005994774302234873
1772702582577614800,5.95461474609375,0.0036672903358936308,-0.0023807941893115637,0.0006571350347483531
1772702582587665000,5.964664794921875,0.014141338077187537,0.000493975795712322,0.024207485437602736
1772702582597714000,5.9747138671875,0.015786182674765586,0.0003955569225363433,0.007879284291027579
1772702582607764000,5.984763916015625,0.014438275197148322,-0.014032580473087726,0.006016198399465065
1772702582617813800,5.994813720703125,-0.0006786299139261245,0.00005010448573157191,-0.00040296619414584707
1772702582627863000,6.004863037109375,-0.0006803834795951843,-0.014053203136008233,0.016263590928167104
1772702582637913000,6.0149130859375,0.010092939469218253,-0.010141491318680345,0.01759968467040453
1772702582647961900,6.0249619140625,0.0009667992055416107,0.0011410232612863182,0.005950713681511115
1772702582658012000,6.035011962890625,-0.007560206121206283,0.007470372413285077,-0.004308013091958128
1772702582668062000,6.04506201171875,-0.00995323873758316,-0.00007940364545211195,-0.012806977351021487
1772702582678110700,6.05511083984375,0.00037350948750972747,0.0014780183969996868,-0.010091183620260562
1772702582688161000,6.0651611328125,0.0089057755112648,0.009078246001340448,-0.004701903213793411
1772702582698211000,6.075211181640625,-0.012792846077680588,-0.004486899623088538,0.01053004996156087
1772702582708259800,6.085259765625,0.009202128109335898,-0.00036304289242252704,0.009168467868329025
1772702582718310000,6.095309814453125,0.009349427625536918,-0.008598262198362499,0.007399537950067315
1772702582728359000,6.10535888671875,0.0018669629156589508,0.007870532445702702,-0.006829999000381212
1772702582738408700,6.11540869140625,0.00815115775167942,-0.006291994549985975,-0.010707139544538221
1772702582748458800,6.125458740234375,0.0148836808770895,-0.002653418851923197,0.008696336294955108
1772702582758508000,6.135508056640625,0.0036591070294380184,-0.0033159744138829407,-0.003998054376931395
1772702582768557800,6.145557861328125,-0.01220014088153839,0.014068492036685346,-0.017969020306295713
1772702582778607900,6.15560791015625,0.00994447090923786,-0.00545424681790173,0.01572627146436134
1772702582788657000,6.165656982421875,0.015031564915180205,-0.00933194676777348,0.0058017953136703
1772702582798706700,6.175706787109375,0.0029079964011907576,-0.002592117118742317,0.013299320595362223
1772702582808756500,6.185756591796875,0.0069482117027044295,0.000842058581020683,0.007574828301602974
1772702582818805800,6.1958056640625,0.013683072915673255,-0.015424345358740538,0.007994117726176045
1772702582828855800,6.205855712890625,0.017126491367816923,-0.007852521864976734,0.01463335937783122
1772702582838904600,6.215904541015625,0.011437924337387084,0.005130713951960205,0.015172984963154884
1772702582848954600,6.22595458984375,0.006951134312152862,-0.013244663232099264,0.0037037042229901996
1772702582859004700,6.236004638671875,0.00201426243185997,0.003890723828226328,-0.004122683120309375
1772702582869053700,6.2460537109375,0.009644026657938957,-0.0015292736602015792,0.008846565270470454
1772702582879103700,6.256103759765625,0.011737199544906615,-0.004866455258894712,0.009046528838959057
1772702582889153800,6.26615380859375,-0.0030780922710895537,0.014643953837081789,-0.006659430489735677
1772702582899202600,6.27620263671875,-0.0053249944150447846,0.003349109498504549,-0.004979957536770962
1772702582909252600,6.286252685546875,0.008140051835775375,-0.010446429082006216,0.008429387887881603
1772702582919302700,6.296302734375,0.0026063831061124802,-0.005512936468888074,-0.001541384223103523
1772702582929351700,6.3063515625,-0.0030757541835308073,-0.00003587503097951412,0.008757032956648618
1772702582939401700,6.316401611328125,0.010240238985419273,0.0036427952154539523,0.02571391022846801
1772702582949450800,6.32645068359375,-0.008313070315122604,-0.0014008980401791632,0.01136558975353837
1772702582959500800,6.336500732421875,0.00021335048973560332,0.0025007673071697355,0.0012859458740218542
1772702582969550600,6.346550537109375,0.010540098714828491,-0.0046213213914074,0.008115422001306433
1772702582979599600,6.356599609375,0.0072486559540033335,-0.0018163104406557977,0.0012038913304684682
1772702582989649700,6.366649658203125,-0.004722936868667602,0.001385937933064997,-0.001249189493630547
1772702582999699700,6.37669970703125,-0.005324409893155098,0.001992781252413988,0.006729474935086909
1772702583009748700,6.386748779296875,0.0073977090358734125,0.0015451470827683804,0.0009835334279225207
1772702583019798800,6.396798828125,0.006946458137035369,0.004180975479073822,-0.012228471926879137
1772702583029848800,6.406848876953125,0.0109884270042181,-0.0029182255342602727,-0.0029447048325208012
1772702583039897600,6.416897705078125,0.015925298884510993,0.002644358762633055,0.009145792528928722
1772702583049947600,6.42694775390625,0.0072463178664445875,0.00011809168802574276,0.0018063187696039675
1772702583059996700,6.43699658203125,0.004852700728178024,-0.000495966823399067,0.0035067865615361366
1772702583070046700,6.447046630859375,-0.006073182433843612,-0.00892197772739455,0.01549464781570714
1772702583080096800,6.4570966796875,0.006347323200106621,-0.00042927652904763814,0.014976512542983982
1772702583090145500,6.4671455078125,-0.0023316578179597854,0.007485770911816507,0.016273637398146093
1772702583100195600,6.477195556640625,0.006048047992587089,-0.005063073809538036,0.00485669191670604
1772702583110245600,6.48724560546875,0.002756605231761932,0.0021044614659622312,-0.017764618024707305
1772702583120295000,6.497294921875,-0.0015817162334918974,-0.002600282158888876,-0.004775132846785709
1772702583130344700,6.5073447265625,0.006200023683905601,-0.007098598225135356,0.008366723031387665
1772702583140394800,6.517394775390625,-0.0027788170635700223,-0.006033635874744504,0.014075805410172323
1772702583150443800,6.52744384765625,0.0072463178664445875,0.001802318447921425,0.028362353794462978
1772702583160493600,6.53749365234375,0.00844224965274334,-0.014450367493741213,0.00998722320557572
1772702583170542600,6.54754248046875,0.01457914497256279,-0.005543934395350516,0.0025328657787526024
1772702583180593000,6.557593017578125,0.009347089537978172,0.008230049940478056,0.007437145997118204
1772702583190642700,6.567642578125,-0.012648469170928,0.0006813150613568723,-0.011365628569445107
1772702583200691700,6.577691650390625,-0.0006727846950292587,0.0037407574309036135,-0.002701561992720235
1772702583210741800,6.58774169921875,0.01025426751077175,0.005812357806880027,0.0037341450270265337
1772702583220791600,6.59779150390625,0.010554127240180969,-0.003641516573820263,-0.0027197643696912563
1772702583230840600,6.607840576171875,0.011004209095239638,-0.004743888325151056,0.00076123016346246
1772702583240890600,6.617890625,-0.013387304839491843,-0.012677731798030435,0.01276645582767669
1772702583250940700,6.627940673828125,0.0012765958070755003,0.007861892481520772,-0.0006057199413422495
1772702583260989700,6.63798974609375,0.00696340927183628,-0.0017461860802024602,-0.006394614674244075
1772702583271039700,6.648039794921875,-0.007401216167211532,-0.016895075498428194,0.006625185726839117
1772702583281088500,6.658088623046875,0.002025368347764015,-0.0017209420410916208,0.013831310863501858
1772702583291138600,6.668138671875,-0.0012666589349508285,-0.0011439458707347512,-0.0034393724646884947
1772702583301188600,6.678188720703125,-0.004110942450165749,-0.0045490416064858435,-0.008071000620978885
1772702583311238000,6.68823779296875,0.0014250643670558928,-0.011531173845101148,-0.0015372925698757171
1772702583321287700,6.69828759765625,0.005016951379179954,-0.014679609672352672,0.010652509580738842
1772702583331337700,6.708337646484375,0.0062146367311477655,-0.01154949495308101,0.0052386815381934865
1772702583341386800,6.71838671875,-0.0003682487905025482,-0.010270104400720447,-0.0015634499244391918
1772702583351436500,6.7284365234375,-0.0029120880544185636,0.00304735007295385,-0.008986389299691654
1772702583361486600,6.738486572265625,0.00920855785012245,0.00036994755724444983,-0.0022312547669629565
1772702583371536000,6.748535888671875,-0.00440846409201622,0.02578621969614178,0.000948210952791851
1772702583381585700,6.758585693359375,0.0089057755112648,0.004444174726214259,0.011215653038967866
1772702583391634700,6.768634765625,0.003964811977744102,-0.0006372201913036405,0.0068375840852153485
1772702583401684700,6.778684814453125,0.021168460234999655,-0.010743932457547635,-0.003776979521755129
1772702583411734500,6.788734619140625,0.01877367405295372,0.004411952957045287,-0.016139112881838807
1772702583421783800,6.79878369140625,0.008000935626029968,-0.005983458323776721,-0.00440331755944062
1772702583431833900,6.808833740234375,0.0015694412738084791,-0.006439695924986153,0.012206289777823258
1772702583441884000,6.8188837890625,-0.004115034103393554,-0.0050433279294520615,0.014733465601305942
1772702583451932700,6.8289326171875,-0.007108370700478554,-0.002452635582815856,0.007754817661142442
1772702583461982700,6.838982666015625,-0.03070318129956722,0.0007964110746979713,-0.006262049219582695
1772702583472032800,6.84903271484375,-0.9654857848554849,0.09431593136917799,-0.1751210228507407
1772702583482081500,6.85908154296875,-0.7889420539915561,0.0857612708505243,-0.20518749541565776
1772702583492131600,6.869131591796875,-0.2808388025969267,0.04626571128629148,-0.14898131354181096
1772702583502180600,6.8791806640625,3.2913603432387113,-0.28857423742087557,0.5985892492121085
1772702583512230700,6.889230712890625,0.3134060242027044,-0.041109479300584645,0.1074700850399211
1772702583522280700,6.89928076171875,0.3280032893538475,-0.05675426247697323,0.1026029447944369
1772702583532329700,6.909329833984375,0.0922381387144327,-0.06629935880508274,0.08557722865366377
1772702583542379500,6.919379638671875,-1.8091554543346167,0.2085410436272621,-0.3492253429396078
