time,seconds_elapsed,z,y,x
1772702892036796700,0.074796630859375,-0.03337327729165554,-0.04457125539332628,0.043890579652786255
1772702892046846500,0.084846435546875,-0.09874152925908565,-0.036324820573627944,0.03223170604109764
1772702892056897300,0.094897216796875,-0.04645838431417942,-0.023477613960206506,0.059496145063638685
1772702892066947600,0.104947509765625,0.001813186901807785,-0.0201730194568634,0.09078384825289249
1772702892076997600,0.11499755859375,0.04895078565180301,-0.01457125392705202,0.09498714516162872
1772702892087047700,0.125047607421875,0.06062193422317504,0.003949906669557094,0.10956453656852244
1772702892097097200,0.13509716796875,0.042028000651299954,0.021004209583997725,0.07173252630233765
1772702892107148300,0.145148193359375,0.0631444384381175,0.02433803018182516,0.060842883497476574
1772702892117198300,0.1551982421875,0.07721797197610139,0.027129706726968288,0.04214052111506462
1772702892127248100,0.165248046875,0.10086538954526185,0.01714110441505909,0.02914952211678028
1772702892137298200,0.175298095703125,0.07442746447473764,0.010501520270109177,0.04159107053875923
1772702892147348200,0.18534814453125,0.03046703445613384,0.015889058527350425,0.035142040529847145
1772702892157399300,0.1953994140625,0.014508710084855556,0.01828092209994793,0.0034188685327768325
1772702892167449300,0.205449462890625,0.038195875142514706,0.016225450874865054,-0.007901566904783249
1772702892177499100,0.2154990234375,0.06062105744034051,-0.0004816460371017456,0.026756489500403404
1772702892187549200,0.225549072265625,0.07829407677501439,0.006015022505819798,0.01885901424884796
1772702892197599200,0.23559912109375,0.09208440945744514,-0.0006435586005449295,0.003927402576804161
1772702892207650300,0.245650390625,0.08303367251753807,-0.013571429234743117,0.00002104278802871704
1772702892217700400,0.255700439453125,0.06431085186898708,-0.021076105776429176,-0.005675707548856735
1772702892227750100,0.265750244140625,0.0792722741574049,-0.018986732281744478,0.004631751453876495
1772702892237800200,0.27580029296875,0.0348521176725626,-0.03435878119766712,0.03161386640369892
1772702892247850200,0.285850341796875,0.03504442537426948,-0.06086655663400888,0.05392623597681522
1772702892257901300,0.2959013671875,0.06823766992390155,-0.047933717563748354,0.035389877811074257
1772702892267951400,0.305951416015625,0.09091887280941009,-0.05001052383780479,0.050748774984478946
1772702892278001200,0.316001220703125,0.059717094337940216,-0.04198883768469095,0.030974399456381797
1772702892288051200,0.32605126953125,0.05138999549746513,-0.024779928730428218,0.0321112945318222
1772702892298101200,0.336101318359375,0.05268383470028638,-0.01585398721396923,0.008757891473174094
1772702892308152300,0.34615234375,0.07717676318287849,-0.0076166124835610385,-0.0007049333989620208
1772702892318202000,0.3562021484375,0.07169277881383895,-0.0182908589720726,-0.017346856120228765
1772702892328252200,0.366252197265625,0.05600391903370618,0.006027589726448059,-0.03204348999261856
1772702892338302200,0.37630224609375,0.057145490284264085,0.011693944925069808,0.00355272404551506
1772702892348352300,0.386352294921875,0.0717559071779251,0.00997545056939125,0.01606324605047703
1772702892358403300,0.3964033203125,0.07383037536442279,0.00028700024783611294,0.013646832558512687
1772702892368453000,0.406453125,0.07350888832509517,0.014294482812285422,0.02055705033838749
1772702892378503200,0.416503173828125,0.046101825961470604,0.01674889022707939,0.07207037995457649
1772702892388553200,0.42655322265625,0.06288344941437245,0.05920972933769226,0.09499123681485652
1772702892398603300,0.436603271484375,0.02070551889836788,0.06501724657267331,0.08146013959050179
1772702892408654300,0.446654296875,-0.002515197691321373,0.0549704843327403,0.05023907189667225
1772702892418704100,0.4567041015625,-0.0035927637949585913,0.02670563609600067,0.04046937303245068
1772702892428754200,0.466754150390625,0.014436521631479262,0.028461832113564012,0.03601239362359047
1772702892438804200,0.47680419921875,0.03434942884743213,0.04056143523007631,0.01565700333714485
1772702892448854300,0.486854248046875,0.04921849667727947,0.016625263847410678,0.030780922710895536
1772702892458905300,0.4969052734375,0.0843327724173665,0.005476677845418453,0.036548400196433066
1772702892468955100,0.506955078125,0.07844283759593963,0.02480769352018833,0.003881809869408607
1772702892479005200,0.517005126953125,0.05721417160630226,0.023270400950312613,-0.0035667525708675384
1772702892489055200,0.52705517578125,0.015398060140013693,-0.0017956512451171875,-0.006620294922590256
1772702892499105300,0.537105224609375,0.002246609883010387,-0.009993278487026691,0.023237083202600477
1772702892509156400,0.54715625,0.01824818887412548,-0.010132102435827255,0.05039923089444637
1772702892519206100,0.5572060546875,0.050743222026526924,-0.001059153664112091,0.08853519254326819
1772702892529256200,0.567256103515625,0.06992489235848189,-0.016329203510284423,0.08804302511215209
1772702892539306200,0.57730615234375,0.03884557122290134,-0.015828560511767863,0.04540741395652294
1772702892549356300,0.587356201171875,0.021313129402697084,-0.04530424584299326,0.007844283759593963
1772702892559407400,0.597407470703125,0.007759528085589409,-0.055445116107165814,0.016100070929527283
1772702892569457200,0.60745703125,0.037275545427203176,-0.07935060009062289,-0.010445990690588951
1772702892579507200,0.617507080078125,0.09437661204785108,-0.08481938689053058,0.0000602057546377182
1772702892589557200,0.62755712890625,0.0928591932222247,-0.10444090994447469,0.014302081596851347
1772702892599607300,0.637607177734375,0.045753450915217396,-0.09156389271467924,0.036491701573133466
1772702892609658400,0.647658447265625,0.00653816959708929,-0.09672463647872209,0.037085575813055036
1772702892619708200,0.657708251953125,-0.001324234341084957,-0.11826777524501085,0.03229775701463222
1772702892629758200,0.66775830078125,-0.013592472022771834,-0.12449293337017298,0.06231412509381771
1772702892639808300,0.677808349609375,-0.023940263035893437,-0.12831044583171605,0.04517009806931019
1772702892649858300,0.6878583984375,-0.024089023856818676,-0.14451865331083535,-0.006696867290139198
1772702892659909400,0.697909423828125,-0.016787760932743548,-0.14386632688194512,0.003915712139010429
1772702892669959200,0.707959228515625,-0.035623686566948885,-0.1254600248366594,-0.009670330142974854
1772702892680009200,0.71800927734375,-0.0542582444101572,-0.12849340118318794,0.014568039056658743
1772702892690059300,0.728059326171875,-0.06909048736095429,-0.09431260690093039,0.05943301669955253
1772702892700109300,0.738109375,-0.10063771826922893,-0.08112579306960105,0.07913315794765949
1772702892710160100,0.74816015625,-0.08529372640401124,-0.05837503207921981,0.07029051080048083
1772702892720210200,0.758210205078125,-0.06546762068867683,-0.06360182681679726,0.07678221090734004
1772702892730260200,0.76826025390625,-0.04493979644477367,-0.05625906283855438,0.07837737114429473
1772702892740310300,0.778310302734375,-0.04361234723329544,-0.09101239631175995,0.06761983028650283
1772702892750360300,0.7883603515625,-0.02829378207027912,-0.09145692520886659,0.05545417619645595
1772702892760411100,0.7984111328125,-0.00979337200075388,-0.08332856381088495,0.046804421272873875
1772702892770461200,0.808461181640625,0.030314766503870487,-0.04617401441484689,0.020528993287682533
1772702892780511200,0.81851123046875,0.05265636217147111,-0.032652269540727134,-0.032521628898382185
1772702892790561300,0.828561279296875,0.01985766989737749,-0.041021746218204494,-0.012261515679955481
1772702892800611000,0.838611083984375,-0.01404138483405113,-0.03729717273712158,0.03095803284347057
1772702892810662100,0.848662109375,-0.035766309908032416,-0.036900866895914076,0.07661679121255874
1772702892820712200,0.858712158203125,-0.05559212336242199,-0.038355741879343985,0.1099368770122528
1772702892830762200,0.86876220703125,-0.07540799994468689,-0.03340308790802955,0.06584463730752468
1772702892840812300,0.878812255859375,-0.02626782920062542,-0.059011284156143665,0.05072305602133274
1772702892850862000,0.888862060546875,0.012963234208524226,-0.05834609824568033,0.044019758990406985
1772702892860913200,0.8989130859375,0.015365326914191246,-0.02746902168393135,0.08458207100331783
1772702892870963200,0.908963134765625,0.02289104624390602,-0.029716508349776266,0.08986439532041549
1772702892881013200,0.91901318359375,0.03035422173142433,-0.014535305830836296,0.09412731346189976
1772702892891063300,0.929063232421875,0.0311702142894268,0.014284253679215908,0.010509703576564788
1772702892901113000,0.939113037109375,-0.001322188514471054,0.0544344777598977,-0.01964285810291767
1772702892911164200,0.9491640625,-0.030830607071518898,0.045833822675049304,0.025610826596617696
1772702892921214200,0.959214111328125,0.03932020299732685,0.041569443228840826,0.03129296388626098
1772702892931264300,0.96926416015625,0.005409165567159652,0.09207505710721016,0.02266191366314888
1772702892941314300,0.979314208984375,-0.0411392351180315,0.028422376886010167,0.05544423932433128
1772702892951364000,0.989364013671875,0.059497021846473215,0.020990765580534934,0.038034254840016365
1772702892961415200,0.999415283203125,0.1144336039096117,0.02042407160848379,-0.01037584806382656
1772702892971465200,1.00946533203125,0.13275368897616863,0.008231821772456169,-0.01934709002673626
1772702892981515300,1.019515380859375,0.16086217760741708,0.016081658490002156,-0.015019874477386473
1772702892991565300,1.0295654296875,0.1749041469633579,0.022252163818478582,-0.028622867894172666
1772702893001615000,1.039614990234375,0.14570201787650583,0.036243279770016665,0.002718026787042618
1772702893011666200,1.049666259765625,0.09252104730904102,0.025790274816751477,0.020379355683922767
1772702893021716200,1.05971630859375,0.08688742533624172,0.019421616567671298,-0.0018044190734624861
1772702893031766300,1.069766357421875,0.09948065718859433,0.042133214591443535,-0.004575637352466583
1772702893041816300,1.07981640625,0.12100129186213016,0.04743804300129413,0.01083469774723053
1772702893051866000,1.0898662109375,0.13551847751438617,0.0701917266011238,0.04185293634533882
1772702893061917200,1.099917236328125,0.13755641308277844,0.08618687585145235,0.049806525698304176
1772702893071967200,1.10996728515625,0.09971242011785507,0.10143939004093408,0.06549743130505084
1772702893082017300,1.120017333984375,0.08142799088656902,0.07793371903002262,0.04539221638739109
1772702893092067800,1.13006787109375,0.059463411837816234,0.0799973735615611,0.022480711877346037
1772702893102117600,1.14011767578125,0.08005085731446743,0.07188391747176646,-0.016638415589928627
1772702893112168400,1.15016845703125,0.11147037018984556,0.04522767347544431,-0.04279693919718265
1772702893122218500,1.160218505859375,0.13955401664078235,0.05094663564413786,-0.031059739652276038
1772702893132268500,1.1702685546875,0.13908464556336403,0.039542321315407754,-0.010437807384133338
1772702893142318800,1.18031884765625,0.12899229061603545,-0.0003416530445218086,-0.016895605221390723
1772702893152368600,1.19036865234375,0.09877513926774263,0.019203005380928517,-0.014650456643104553
1772702893162419500,1.20041943359375,0.06136281571835279,0.02721533918380737,-0.03148176445662975
1772702893172469500,1.210469482421875,0.062144029223918915,0.03433627710491419,-0.03736731536388397
1772702893182519600,1.22051953125,0.07580196769833564,0.0517313562810421,-0.020033903247117995
1772702893192569900,1.23056982421875,0.11611147399395703,0.07981412594914436,0.013798808249831198
1772702893202619600,1.24061962890625,0.13068418922573327,0.09929624053239822,0.019453473010659215
1772702893212670500,1.25067041015625,0.11458441055715084,0.024461072039604185,-0.035575171250104905
1772702893222720500,1.260720458984375,0.08409633331298827,0.023141221612691876,-0.020239070430397986
1772702893232770600,1.2707705078125,0.06349661287665367,0.04557517173886299,0.01397474933862686
1772702893242820900,1.28082080078125,0.02235387062728405,0.05756897639334201,0.03378244261443615
1772702893252870700,1.29087060546875,-0.007116554006934166,0.029807693764567374,0.04795651391744613
1772702893262921500,1.30092138671875,0.029506664991378783,0.029259119971096512,0.02778407898247242
1772702893272971500,1.310971435546875,0.02903787843585014,0.02316167987883091,0.022001988449692724
1772702893283021600,1.321021484375,0.03861760768592357,-0.000043839141726493834,-0.004697802427411079
1772702893293072000,1.33107177734375,0.038113165295124055,0.006071721129119396,-0.02281915005147457
1772702893303121700,1.34112158203125,0.02263444113433361,-0.011219605411589145,-0.02482815178632736
1772702893313171700,1.351171630859375,0.030180618730187413,-0.005491875414550304,-0.01964636523425579
1772702893323222500,1.361222412109375,0.03912292685955763,0.004534720820188522,-0.0010246668726205826
1772702893333272600,1.3712724609375,0.030946050144731996,-0.009261457081139087,0.021176643541455268
1772702893343322600,1.381322509765625,-0.014264672195911406,-0.015424948146939278,0.03302081059217453
1772702893353372700,1.39137255859375,-0.020569909819960593,-0.02630786895006895,0.02964928833246231
1772702893363422700,1.401422607421875,0.0017699322819709777,-0.040274142721295356,0.03309562939405441
1772702893373473500,1.4114736328125,0.025721593494713306,-0.03523147237896919,0.04356032478511333
1772702893383523600,1.421523681640625,0.011417466071248054,-0.030906887178122996,0.03361117770075798
1772702893393573600,1.43157373046875,-0.016486439898610115,-0.05328267737627029,0.026918986585736274
1772702893403623700,1.441623779296875,-0.042646132549643515,-0.039726445710659024,0.01825286504924297
1772702893413673700,1.451673828125,-0.00898994666337967,-0.03261456787884235,0.014793664506077766
1772702893423724500,1.461724609375,-0.013218962535262106,-0.046477673536539074,0.04395253897309303
1772702893433774600,1.471774658203125,-0.005914777001738548,-0.038219840539991855,0.02809036845266819
1772702893443824600,1.48182470703125,-0.0016080197185277937,-0.028141514118015763,0.04625613974034786
1772702893453874700,1.491874755859375,-0.013426467806100845,-0.006804419317841529,0.040780338677763935
1772702893463924700,1.5019248046875,-0.03358867360800504,0.003271569016575813,0.04020633818209171
1772702893473975600,1.5119755859375,-0.10349252317845821,0.04670768290013075,0.01783902355134487
1772702893484025600,1.522025634765625,-0.18210428760051725,0.04161299010962247,0.07194879940152168
1772702893494075600,1.53207568359375,-0.1671224070459604,0.02561813312023878,0.07976093445718288
1772702893504125700,1.542125732421875,-0.08187602691501379,-0.013859890787303446,0.05781564463078975
1772702893514175700,1.55217578125,-0.027313246600329875,-0.05186170466244221,0.029044308176636693
1772702893524226600,1.5622265625,-0.00996200656592846,-0.03411825044006109,0.02261222930252552
1772702893534276600,1.572276611328125,-0.03017681933790445,-0.05370411765873432,0.022857143974304196
1772702893544326700,1.58232666015625,-0.02268266419023275,-0.09656886139512061,0.06819558434784412
1772702893554376700,1.592376708984375,0.018462416146695613,-0.0878925107255578,0.08100888869166374
1772702893564426800,1.6024267578125,0.025440730726718902,-0.08696867387890815,0.08974515285491942
1772702893574477600,1.6124775390625,0.02502864279448986,-0.07242050856649875,0.08476911800801754
1772702893584527600,1.622527587890625,0.026524726571142673,-0.049155660574138164,0.04593582174479961
1772702893594577700,1.63257763671875,0.00014846855998039245,-0.07380670222789049,0.07107084752321242
1772702893604627700,1.642627685546875,-0.018399580043554305,-0.10763064589649438,0.08248948263823985
1772702893614677800,1.652677734375,-0.012429273462295531,-0.10062193617820739,0.08395078736245631
1772702893624728600,1.662728515625,0.010747311724722385,-0.09094780664294957,0.08078677037358284
1772702893634778600,1.672778564453125,0.050371173843741415,-0.10335282244682312,0.0650157852679491
1772702893644828700,1.68282861328125,0.032602877441048624,-0.10067921932339667,0.07675649194419383
1772702893654878700,1.692878662109375,0.021563304771482942,-0.08453297116458415,0.07487433145940303
1772702893664928800,1.7029287109375,0.028009119910001753,-0.06008797347694635,0.050800212910771365
1772702893674979600,1.7129794921875,0.04805120646357536,-0.05733166050612926,0.04107026153504848
1772702893685029600,1.723029541015625,0.06369885745048523,-0.05939473051577806,-0.022620412608981132
1772702893695079700,1.73307958984375,0.052447687856853005,-0.0664320818066597,-0.027988077121973036
1772702893705129700,1.743129638671875,0.03825637315809727,-0.033899346992373465,-0.030887305694818495
1772702893715179800,1.7531796875,0.02427344051301479,-0.04633241984695196,0.005498012894392014
1772702893725230600,1.763230712890625,0.03151274411678314,-0.031008009465038774,0.02694996624588966
1772702893735280600,1.77328076171875,0.035173312450945377,-0.012159224349260329,0.031823709762096405
1772702893745330700,1.78333056640625,0.029281331802904605,-0.018803484669327734,0.03231763075888157
1772702893755380700,1.793380615234375,-0.003934709100425243,-0.008274199609458447,0.038922728112339974
1772702893765430800,1.8034306640625,0.018705284991860388,-0.03129325614720583,0.024164719441533086
1772702893775480800,1.813480712890625,0.05454436787515878,-0.010955986039340495,0.023289105650782585
1772702893785531600,1.82353173828125,0.06444353833794593,-0.0024275194078683853,0.05051964240372181
1772702893795581700,1.833581787109375,0.06871580882966517,-0.0069976038023829455,0.05043956290483474
1772702893805631700,1.8436318359375,0.059627077966928475,0.006067337214946746,0.04787701894044876
1772702893815681800,1.853681884765625,0.046891222773492336,-0.016378303349018096,0.08226385718882083
1772702893825731600,1.863731689453125,0.06868102977722883,-0.026285364857316015,0.09800795428752898
1772702893835782400,1.873782470703125,0.04476093274652958,-0.0438712904304266,0.10894552788734435
1772702893845832700,1.883832763671875,0.033113165050745005,-0.047343058194220064,0.06763093620240689
1772702893855882800,1.8938828125,0.07196925766766071,-0.05418254882544279,0.04630465505719185
1772702893865932800,1.903932861328125,0.12374386856853961,-0.029765023666620254,0.07626900068819523
1772702893875982600,1.913982666015625,0.14567629891335962,-0.029230186137557027,0.04744038108885288
1772702893886033400,1.924033447265625,0.09415595503449439,-0.014739596231281757,0.060870356026291844
1772702893896083700,1.934083740234375,0.02799976755976677,-0.01530716698616743,0.08745558061301707
1772702893906133800,1.9441337890625,0.052125324034690855,-0.02282908692359924,0.0964472808420658
1772702893916183800,1.954183837890625,0.10819675534665583,-0.03701572544723749,0.07762158434092999
1772702893926233600,1.964233642578125,0.1334475164592266,-0.027866496568918226,0.033595980131626124
1772702893936284400,1.974284423828125,0.09976181221753358,-0.010545943933725356,0.003674889120459556
1772702893946334700,1.984334716796875,0.04727408461123705,-0.004012450511753559,0.002439209845662117
1772702893956384800,1.994384765625,0.06870411839187145,-0.011415127983689308,0.05949322245419025
1772702893966434800,2.004434814453125,0.12296119375824928,-0.004524199426174163,0.07433949393033981
1772702893976484600,2.014484619140625,0.14272007945626974,0.007689677719771862,0.042191374519467355
1772702893986535400,2.024535400390625,0.12498919245451688,0.02912204958796501,0.03509995495378971
1772702893996585700,2.034585693359375,0.07479395969957113,0.0013628127858042716,0.015949848803877828
1772702894006635800,2.0446357421875,0.060520811936259265,0.013711422227323054,-0.023698270973563192
1772702894016685800,2.054685791015625,0.07554127093553542,0.006938859352469444,0.001779284632205963
1772702894026735600,2.064735595703125,0.06970540438890457,0.005439268444478512,0.046288872966170305
1772702894036785700,2.07478564453125,0.07539689402878284,0.012896306452155112,0.07307868021428585
1772702894046836700,2.084836669921875,0.09280629399120807,-0.01117021331191063,0.04577215561568737
1772702894056886800,2.09488671875,0.08774287312179803,-0.029059505745768547,0.026669395738840102
1772702894066936800,2.104936767578125,0.08773381303250789,-0.022890753982961178,0.01931611036658287
1772702894076986600,2.114986572265625,0.09201339004784823,-0.002898351790010929,0.01580079572200775
1772702894087036700,2.12503662109375,0.08847264870107173,-0.0028396073400974273,0.0364554612159729
1772702894097087000,2.1350869140625,0.0896416924804449,-0.005865969423949718,0.037593525335192675
1772702894107137000,2.145136962890625,0.10001286436915396,0.01004559319615364,0.04066927951872348
1772702894117186800,2.155186767578125,0.05287526561915874,0.0069333063945174215,0.03542611816823482
1772702894127236900,2.16523681640625,0.024905893197655675,-0.009544657936692237,-0.0012152210086584091
1772702894137287000,2.175286865234375,0.003879471781849861,-0.02735094826221466,0.0010737667113542555
1772702894147338000,2.185337890625,0.022732640811800955,-0.005815116019546985,-0.007661912930011749
1772702894157388000,2.195387939453125,0.04423573982864618,0.014912906971573828,-0.015942250019311904
1772702894167437800,2.205437744140625,0.05481032533496618,0.0011886252626776696,-0.0081955814152956
1772702894177488000,2.21548779296875,0.029879005435109136,-0.0022527473628520963,-0.03142915748655796
1772702894187538000,2.225537841796875,0.011526771664619444,0.014986556729674338,-0.0165261873871088
1772702894197589000,2.235589111328125,0.033009120154380796,0.020960078181326388,-0.0003869534909725189
1772702894207639000,2.24563916015625,0.08882979157567024,0.0018634557843208311,0.00708148269355297
1772702894217688800,2.255688720703125,0.10568594156950711,0.0016281857237219809,0.04242576779723167
1772702894227739000,2.26573876953125,0.05476268680095672,0.03137128981947899,0.012962357425689696
1772702894237789000,2.275788818359375,0.03011632132232189,0.031545185081660744,0.019054244560003278
1772702894247840000,2.285840087890625,0.01419657539576292,0.03136427555680275,0.019578560695052146
1772702894257890000,2.29589013671875,-0.03383534184545278,0.04620294824838638,0.043808746588230134
1772702894267939800,2.30593994140625,-0.044860593728721136,0.03795242177546024,0.05423953970968723
1772702894277990000,2.315989990234375,-0.016943536016345025,0.018706161774694918,0.054624155113101
1772702894288040000,2.3260400390625,0.034679683715105054,0.024302082085609435,0.03596680091619491
1772702894298090000,2.336090087890625,0.035683892321586606,0.012865326792001723,0.04047638729512691
1772702894308141000,2.34614111328125,0.014111527460813521,0.02004588594585657,0.035083588340878484
1772702894318190800,2.35619091796875,0.012673019090294836,0.022428689429163932,0.04260872314870357
1772702894328241000,2.366240966796875,0.017494740158319474,0.0005114566534757614,0.06683832451999187
1772702894338291000,2.376291015625,0.021974515920877454,0.00578179827183485,0.07325754391252993
1772702894348341000,2.386341064453125,0.04617255311012268,0.025208383275568482,0.04803250176310539
1772702894358392000,2.39639208984375,0.015599720191955565,0.0014811784684658049,0.025217443364858625
1772702894368441900,2.40644189453125,-0.020323241582512853,-0.021645430096983907,0.01685176607966423
1772702894378492000,2.416491943359375,-0.022058102551102635,-0.022440672127902506,0.016363105779886245
1772702894388542000,2.4265419921875,0.00651683454811573,0.0013055296406149863,0.03603811258673668
1772702894398592000,2.436592041015625,0.04748714284002781,-0.0162365567907691,0.042832010510563845
1772702894408642800,2.446642822265625,0.08349719837605953,-0.03327010917812585,0.031928339180350304
1772702894418692900,2.45669287109375,0.05674947670400143,-0.04979132812917232,0.022236381727457045
1772702894428743000,2.466742919921875,0.005343114593625069,-0.02736526904851198,0.015911270359158514
1772702894438793000,2.47679296875,-0.0029220249265432354,-0.024296529127657413,-0.012432196071743964
1772702894448842800,2.4868427734375,0.001973345899581909,-0.026577041280269623,0.005815992802381515
1772702894458893800,2.496893798828125,0.035084757384657855,-0.04090338053554296,0.004101590099930763
1772702894468944000,2.50694384765625,0.06748626703470945,-0.019182547114789485,0.0037573067069053647
1772702894478994000,2.516993896484375,0.05713526115119457,-0.009681728319823741,0.0052069209933280946
1772702894489044000,2.5270439453125,0.04581277988702059,-0.012952128292620182,0.033956045615673065
1772702894499093800,2.53709375,0.039023558138310904,0.010425824685394764,0.02868599625825882
1772702894509143800,2.547143798828125,0.05451105012744665,-0.02750029360502958,0.012459668600559234
1772702894519195000,2.55719482421875,0.07299743167161941,-0.020527824243903158,0.016806173372268675
1772702894529245000,2.567244873046875,0.05663958658874035,-0.001744213318824768,0.030893735435605047
1772702894539295000,2.577294921875,0.038626667775213716,-0.01116495261490345,0.02084931128323078
1772702894549344800,2.5873447265625,0.05150982248485088,-0.015760755972564218,0.0035696751803159714
1772702894559394800,2.597394775390625,0.07607289359420538,-0.039542029054462906,0.0009779051214456557
1772702894569446000,2.60744580078125,0.045697921335697174,-0.020039163944125173,-0.003592471534013748
1772702894579496000,2.617495849609375,0.03541881164461374,-0.002685585822165012,0.01491933671236038
1772702894589546000,2.6275458984375,0.02841974653750658,-0.015341069255769252,0.0475309819817543
1772702894599595800,2.637595703125,0.03534077797234058,-0.0038210195928812026,0.05467033234238624
1772702894609645800,2.647645751953125,0.042239013053476805,0.005577507871389388,0.05814297688901424
1772702894619697000,2.65769677734375,0.04225567192733288,0.009054828593134879,0.04624620286822319
1772702894629747000,2.667746826171875,0.025085049156844615,0.005712824688851833,0.024828736308217046
1772702894639797000,2.677796875,0.026588147196173667,0.0019078794479370116,0.019945055919885633
1772702894649846800,2.6878466796875,0.03272796512544155,-0.004569792133569717,0.046097734308242794
1772702894659896800,2.697896728515625,0.041563890270888804,0.012312369084358215,0.04269289430081844
1772702894669948000,2.707947998046875,0.04630056340396404,0.021700082893669603,0.05227496163845062
1772702894679998000,2.717998046875,0.011217559584975242,0.0017211247041821478,0.0296060337126255
1772702894690048000,2.728048095703125,-0.04192892419099808,-0.011237433329224587,0.015561726269125938
1772702894700097800,2.738097900390625,-0.05237345357686281,-0.03888298062384128,0.03469195867478847
1772702894710147800,2.74814794921875,-0.013940262547135353,-0.019541443555057048,0.017656652721762655
1772702894720198000,2.758197998046875,0.02770341496169567,-0.04946896430701017,-0.0040332010388374325
1772702894730249000,2.7682490234375,0.026174305698275564,-0.05301029017567634,0.003477320721745491
1772702894740299000,2.778299072265625,0.0010974398478865624,-0.03812602477669716,0.021952304089069365
1772702894750348800,2.788348876953125,-0.0019514263287186621,-0.048501872840523715,0.05494447310864925
1772702894760398800,2.79839892578125,-0.01637070456445217,-0.0714662765815854,0.06902092925608158
1772702894770449000,2.808448974609375,-0.02158347077667713,-0.07886690822690724,0.05926525891721248
1772702894780500000,2.8185,-0.004780804535746574,-0.0786708011329174,0.04287409608662128
1772702894790550000,2.828550048828125,-0.00391220500767231,-0.05382949760407209,0.023399580287933347
1772702894800599800,2.838599853515625,0.005590367352962493,-0.04362316088825464,0.03463292196393013
1772702894810649900,2.84864990234375,0.026128712990880012,-0.020026596723496912,0.019995909324288366
1772702894820700000,2.858699951171875,0.02974164279103279,-0.011782792252302169,0.02544482237994671
1772702894830751000,2.8687509765625,0.022264438778162,-0.01725654748827219,0.020244915649294853
1772702894840801000,2.878801025390625,0.022931670515239238,-0.03218699011653661,0.03350596376061439
1772702894850850800,2.888850830078125,0.016138649374246597,-0.014774959805607795,0.04939093063473701
1772702894860900900,2.89890087890625,0.02059270617365837,-0.019727613776922226,0.027084990802407262
1772702894870951000,2.908950927734375,0.010347206491231917,-0.013571136973798274,-0.000502104303240776
1772702894881001000,2.9190009765625,0.010080079987645148,-0.012826748347282408,0.019256489133834837
1772702894891051800,2.9290517578125,0.04122165270447731,-0.01842939065992832,0.03432137179672718
1772702894901101800,2.939101806640625,0.043106151276826855,-0.015376725091040133,0.048079848036170006
1772702894911151900,2.94915185546875,0.05952741698473692,-0.0009942717343568801,0.03628594986796379
1772702894921202000,2.959201904296875,0.03182955498099327,0.0015247253492474556,-0.014902970099449157
1772702894931251700,2.969251708984375,0.03842588450610637,0.009421908339858055,-0.013102642679214477
1772702894941302800,2.979302734375,-0.009478606963157653,0.011688684228062629,-0.008954290828108787
1772702894951352800,2.989352783203125,-0.015740589967370034,-0.003119593325257301,-0.027144612035155294
1772702894961403000,2.99940283203125,-0.0018576105654239655,0.007322597973048687,-0.027082652714848516
1772702894971453000,3.009452880859375,0.015038579177856445,0.020412965692579745,0.002722118440270424
1772702894981502700,3.019502685546875,0.03302022607028484,0.012261515679955481,0.007629764226078987
1772702894991553800,3.0295537109375,0.023414777857065198,0.012687632137537002,0.01353518887758255
1772702895001603800,3.039603759765625,0.017044658303260803,0.009411386945843696,0.004058335480093956
1772702895011654000,3.04965380859375,0.036409868508577345,0.019418693958222866,-0.0036848259925842284
1772702895021704000,3.059703857421875,0.030397184090316293,0.0240878548130393,-0.008731003466248511
1772702895031753700,3.069753662109375,0.005801379755139351,0.021189503023028373,-0.001699205133318901
1772702895041804800,3.0798046875,0.004956161102652549,0.01225771628767252,0.0012947159856557845
1772702895051854800,3.089854736328125,0.038354865096509455,0.018062310913205145,0.007835515931248664
1772702895061905000,3.09990478515625,0.04139350214004516,0.004570668916404247,0.016996142986416815
1772702895071955000,3.109954833984375,0.0541799184769392,0.013291735510528088,0.01745733075737953
1772702895082004700,3.120004638671875,0.05203823027312755,0.009596095862984657,0.02018237180709839
1772702895092054800,3.1300546875,0.048832127708196636,0.011926292376220225,0.021757073777914047
1772702895102105600,3.140105712890625,0.03696107265055179,0.01563186889588833,0.0063338791966438285
1772702895112155400,3.1501552734375,0.041701545175909994,0.011106792686879634,0.023677228185534475
1772702895122205400,3.160205322265625,0.04239157326668501,0.009577975684404372,0.01774316196143627
1772702895132255500,3.17025537109375,0.027305063293874263,0.010306874480843543,0.010123334607481957
1772702895142305500,3.180305419921875,0.024130817171931267,0.0037900399327278136,0.023161095356941223
1772702895152356600,3.190356689453125,0.025562311279773712,-0.0004395604610443115,0.03286591229140758
1772702895162406400,3.200406494140625,0.04058920001983642,-0.007118892094492912,0.05299509260654449
1772702895172456400,3.21045654296875,0.04212123189270496,-0.0035991935357451437,0.04399345550537109
1772702895182506500,3.220506591796875,0.031602760487794875,-0.020737959863245486,0.03172960173785686
1772702895192556500,3.230556640625,0.01576864701807499,-0.014775836588442325,0.013713468053936957
1772702895202607400,3.240607421875,-0.0008536942198872566,-0.033384675468504425,-0.014705986222624779
1772702895212657400,3.250657470703125,0.0004126724541187286,-0.022857143974304196,-0.008050035464763641
1772702895222707500,3.26070751953125,0.013455986161530016,-0.02114127996712923,0.0003723404437303543
1772702895232757500,3.270757568359375,0.02808160062432289,-0.008945230738818645,-0.019299743753671644
1772702895242807600,3.2808076171875,0.03628244273662567,-0.002947159367799759,0.0010983166307210921
1772702895252857300,3.290857421875,0.03028232553899288,0.020948972265422344,0.027290157985687253
1772702895262908400,3.300908447265625,0.022145196312665937,0.014765899716317653,0.0033329438149929044
1772702895272958500,3.31095849609375,0.017175591206550597,0.0037242812201380726,-0.018402502653002736
1772702895283008500,3.321008544921875,-0.014124094681441783,0.0008534019589424133,-0.03568973754048347
1772702895293058300,3.331058349609375,-0.02324818911850452,-0.017257132010161876,-0.036062662506103516
1772702895303108400,3.3411083984375,0.0028220716834068296,-0.015767477974295615,-0.014421908584237099
1772702895313159400,3.351159423828125,0.017508184161782264,-0.009257365427911281,0.012784662771224975
1772702895323209500,3.36120947265625,0.03950549643635749,0.017231413047015667,0.02161445043683052
1772702895333259500,3.371259521484375,0.033738895733654496,0.029059798006713388,0.045207507470250125
1772702895343309300,3.381309326171875,0.004827858547866344,0.028842355863749978,0.06683540191054343
1772702895353359400,3.391359375,-0.015565817922353743,0.029634967546164986,0.055471711853146546
1772702895363410400,3.401410400390625,-0.00976589947193861,0.031415128961205484,0.007028291201591492
1772702895373460500,3.41146044921875,-0.035660511445999146,0.03506429911851883,-0.014051321706175804
1772702895383510500,3.421510498046875,-0.03375789269506931,0.015440145716071128,0.01920797381699085
1772702895393560300,3.431560302734375,-0.007944821524620055,-0.018249650178849695,0.05507482149004936
1772702895403610400,3.4416103515625,0.031393209390342236,-0.03988368209898471,0.07417115162611007
1772702895413660400,3.451660400390625,0.049294192261993885,-0.031976562236249444,0.044885435909032816
1772702895423711500,3.46171142578125,0.02800181338638067,-0.03502133675962686,0.026318682605028152
1772702895433761500,3.471761474609375,0.007058101817965507,-0.021035189244151115,0.01078150625526905
1772702895443811300,3.481811279296875,-0.03702420101463794,-0.03245850053429603,-0.013491349735856055
1772702895453861400,3.491861328125,-0.04136602961122989,-0.01923456956297159,-0.018988778108358383
1772702895463911400,3.501911376953125,-0.010644435872137545,0.0002665419816970825,-0.010460603737831115
1772702895473962500,3.51196240234375,0.004525368469953537,-0.03208352974206209,0.02617664378583431
1772702895484012500,3.522012451171875,0.013457739727199077,-0.0410737686663866,0.03222995247542858
1772702895494062300,3.532062255859375,0.01134703118354082,-0.029891280394792556,0.06457447124123573
1772702895504112400,3.5421123046875,0.014049860401451586,-0.03183861507028341,0.08254618126153945
1772702895514162400,3.552162353515625,0.03586246375888586,-0.035170389841496945,0.06026186873912811
1772702895524213500,3.562213623046875,0.03703676823526621,-0.06654781714081764,0.01137362692952156
1772702895534263600,3.572263671875,0.014542612354457378,-0.0478361024081707,0.011647183173894881
1772702895544313300,3.582313232421875,0.0041638416811823845,-0.027425767064094542,0.023562661895155906
1772702895554363400,3.59236328125,0.03478606669902801,-0.015452420675754546,0.012464344775676726
1772702895564413400,3.602413330078125,0.04260112436413765,-0.009601648820936679,0.028111995762586592
1772702895574463500,3.61246337890625,0.0370697937220335,-0.015763970842957494,0.012422259199619293
1772702895584514600,3.6225146484375,0.04443915344625711,-0.020797873356938362,-0.00935059666931629
1772702895594564400,3.632564453125,0.027848376390337944,-0.015633622461557386,0.0034288054049015043
1772702895604614400,3.642614501953125,0.04307107996344566,-0.008870119675993918,0.015680384212732313
1772702895614664400,3.65266455078125,0.04427753314375877,-0.01187163957953453,0.0330699104309082
1772702895624714500,3.662714599609375,0.042350364473462104,-0.004067395569384098,0.030398060873150824
1772702895634765600,3.672765625,0.04435585907697678,-0.01870090107768774,0.0351484702706337
1772702895644815400,3.6828154296875,0.04230418724417686,0.012289572730660437,0.010564648634195328
1772702895654865400,3.692865478515625,0.03127016753256321,0.02989887917935848,-0.02102934402525425
1772702895664915500,3.70291552734375,0.0007528641939163207,0.05156476754248142,-0.043669045856595035
1772702895674965500,3.712965576171875,-0.010243746116757392,0.022159224838018417,-0.019418401697278022
1772702895685016300,3.723016357421875,0.02305997307002544,0.008536942198872566,-0.007694061633944511
1772702895695066400,3.73306640625,0.04482464563250541,0.012660159608721732,0.02201484793126583
1772702895705116400,3.743116455078125,0.041727264139056204,0.013925357238948345,0.03757832776606083
1772702895715166500,3.75316650390625,0.043511224946379656,0.009081716600060463,0.024296821388602254
1772702895725216500,3.763216552734375,0.06231237152814865,0.010802256782352923,-0.015038579177856445
1772702895735266600,3.7732666015625,0.04490881678462028,0.002310322768986225,-0.023754385074973104
1772702895745317400,3.7833173828125,0.041030514046549796,0.0031488194197416305,0.0006809680014848708
1772702895755367400,3.793367431640625,0.03344341991841793,-0.017192834602296352,0.000029810616374015806
1772702895765417500,3.80341748046875,0.046154432931542394,-0.0014189268872141837,-0.008076923471689224
1772702895775467500,3.813467529296875,0.04665799853950739,0.01573328344374895,-0.011985036826133727
1772702895785517600,3.823517578125,0.027632687813043594,0.012023615270853041,-0.0013888240098953247
1772702895795568400,3.833568359375,0.013472645035386085,0.009160042533278465,-0.03240297095477581
1772702895805618400,3.843618408203125,0.025058745671808717,0.012010755789279936,-0.029088147318363188
1772702895815668500,3.85366845703125,0.02951075664460659,-0.003918634748458862,-0.03746142338812351
1772702895825718500,3.863718505859375,0.033874212551116945,-0.02145370691716671,-0.024875498059391973
1772702895835768600,3.8737685546875,0.050832946136593816,-0.02721884631514549,-0.012395955714583396
1772702895845818600,3.883818603515625,0.0486509259223938,-0.02450228083282709,-0.011863456273078919
1772702895855869400,3.893869384765625,0.04355155695676803,-0.006712649381160736,-0.022804537004232406
1772702895865919500,3.90391943359375,0.02987666734755039,-0.02813654568195343,-0.019778467181324956
1772702895875969500,3.913969482421875,0.03593289864659309,-0.03143354140073061,-0.020666940453648565
1772702895886019600,3.92401953125,0.0327735578328371,-0.0030769232273101803,-0.029276363366842268
1772702895896069600,3.934069580078125,0.02682020238637924,-0.008064356251060962,-0.013104980766773223
1772702895906120400,3.944120361328125,0.011823416523635387,0.004351180946826934,0.004510755422711372
1772702895916170500,3.95417041015625,0.0049652211919426915,-0.010666647703945636,0.005194061511754989
1772702895926220500,3.964220458984375,0.002307107898592949,-0.012217092016339302,0.010891396370530129
1772702895936270600,3.9742705078125,0.019284838445484637,-0.005895780040323734,0.02141571299433708
1772702895946320600,3.984320556640625,0.01489975522905588,0.007941022132337093,0.0179553434073925
1772702895956371500,3.994371337890625,0.01879062518775463,0.015318272902071476,0.002190203520655632
1772702895966421500,4.00442138671875,0.04067921639084816,0.026719664621353147,0.028647417813539505
1772702895976471600,4.014471435546875,0.024189269360899924,0.021942659477889537,0.036004794839024544
1772702895986521600,4.024521484375,0.02971124765276909,0.030514672990143297,0.034226679250597955
1772702895996571600,4.034571533203125,0.004811199674010277,0.04583791432827711,0.06235094997286796
1772702896006622500,4.04462255859375,0.012525135052204131,0.05456482614129781,0.10679214924573897
1772702896016672500,4.054672607421875,-0.010756371814012526,0.051962826949357985,0.11379530600607395
1772702896026722300,4.064722412109375,-0.000820084211230278,0.05590045865923166,0.09082125765383244
1772702896036772600,4.074772705078125,-0.01667261012047529,0.07771803045272827,0.0835766933530569
1772702896046822700,4.08482275390625,-0.020609365047514438,0.07513561274409293,0.05296820459961891
1772702896056872700,4.094872802734375,-0.06174713886082172,0.058197921946644776,0.04640636186599731
1772702896066923500,4.104923583984375,-0.08100362799465656,0.06928922480344772,0.05712298619151115
1772702896076973300,4.114973388671875,-0.09318535643666982,0.04447334797680378,0.04414367763102054
1772702896087023600,4.125023681640625,-0.06222469324469566,0.03013853315412998,0.03312777809798717
1772702896097074200,4.13507421875,-0.0825330295190215,-0.003747662095725536,-0.004444119927287101
1772702896107124200,4.145124267578125,-0.08186521326005458,-0.04234218116700649,-0.041966333591938014
1772702896117175300,4.15517529296875,-0.05567424868792295,-0.02773293331712484,-0.06893383549451827
1772702896127225300,4.165225341796875,-0.019857377636432645,-0.04449994372278452,-0.10038695837855338
1772702896137275100,4.175275146484375,-0.01593318993002176,-0.06750935564935207,-0.06363689813017845
1772702896147325200,4.1853251953125,-0.009058335724473,-0.07013064406365156,-0.05902677398622035
1772702896157375200,4.195375244140625,-0.025410920110344886,-0.07394406487196684,-0.06902209829986095
1772702896167425300,4.20542529296875,-0.0561579405516386,-0.08112871567904949,-0.04540390682518482
1772702896177476400,4.215476318359375,-0.06765460933893919,-0.12339520126134157,-0.02441021863520145
1772702896187526100,4.225526123046875,-0.03440846555829048,-0.08864216004908085,0.014780805024504661
1772702896197576200,4.235576171875,-0.02516717448234558,-0.04503215090334415,0.01374737032353878
1772702896207626200,4.245626220703125,-0.02352934414744377,-0.03034516164213419,0.0020469956576824187
1772702896217676300,4.25567626953125,-0.04080547311902046,-0.049394730027019974,-0.0058341129809617994
1772702896227727400,4.265727294921875,-0.03787701845169067,-0.0547092030480504,-0.0018774843096733091
1772702896237777200,4.275777099609375,-0.016287702456116677,-0.06468114648610353,-0.021801497441530225
1772702896247827200,4.2858271484375,-0.012957096728682517,-0.06981207963377237,-0.03793780872821808
1772702896257877200,4.295877197265625,0.00568593668192625,-0.04964607443958521,-0.019108605095744132
1772702896267927300,4.30592724609375,-0.01760463027358055,-0.025872692403197287,-0.02933306199014187
1772702896277978000,4.31597802734375,0.011521510967612265,-0.01567570803761482,-0.03214753488898277
1772702896288028200,4.326028076171875,-0.0041167876690626146,-0.00660918900668621,-0.035980829441547395
1772702896298078200,4.336078125,-0.0017149872243404387,-0.025514965006709096,-0.04606324751675129
1772702896308128300,4.346128173828125,0.003904606223106384,-0.024160043266415594,-0.03391396003961563
1772702896318178300,4.35617822265625,0.023861352580785748,-0.03741670746356249,-0.03295709770619869
1772702896328228400,4.366228271484375,0.025247838503122327,-0.023836802661418913,-0.023580197551846503
1772702896338279200,4.376279052734375,0.0340764571249485,-0.03745791625678539,-0.016255553752183915
1772702896348329200,4.3863291015625,0.02868424269258976,-0.014101882849633693,-0.013133622339367866
1772702896358379300,4.396379150390625,0.03285714446306229,0.0006520341679453849,0.02197393139898777
1772702896368429000,4.406428955078125,0.018137129715085028,0.012803951993584632,0.016761749708652494
1772702896378479400,4.416479248046875,-0.003088613665103912,0.015644728377461434,0.033459202009439463
1772702896388530200,4.4265302734375,0.013631634989380836,0.04093757506608963,0.04773439559936523
1772702896398580200,4.436580322265625,0.046325697845220566,0.05793517935723066,0.06943535527586936
1772702896408630300,4.44663037109375,0.03380611575096845,0.0657934916421771,0.0772159261494875
1772702896418680000,4.45668017578125,0.011595160725712775,0.05856763204187154,0.10273381376564503
1772702896428730400,4.46673046875,-0.02629822433888912,0.08553425716161728,0.10293781190514564
1772702896438780400,4.476780517578125,-0.03592471534013748,0.10607143375575542,0.09280570946931839
1772702896448831200,4.486831298828125,-0.03075461922585964,0.09527151506096124,0.06847732389867306
1772702896458881300,4.49688134765625,-0.021992051577568054,0.08480565062612294,0.066871642267704
1772702896468931000,4.50693115234375,-0.022440379866957662,0.07060586035996676,0.05997545301318168
1772702896478981400,4.5169814453125,-0.03899667013138532,0.03607318390011787,0.057286652320623396
1772702896489031400,4.527031494140625,-0.07080255197584628,-0.0033548633858561513,0.03887304375171661
1772702896499082200,4.537082275390625,-0.04986322432160377,-0.018019348554313183,0.04919219319224357
1772702896509132300,4.54713232421875,-0.01386193661391735,-0.034089024345576764,0.04657353512644768
1772702896519182000,4.55718212890625,0.009958791695535183,-0.04824292964339256,0.01768178716301918
1772702896529232400,4.567232421875,-0.00692249273955822,-0.044589375571906564,0.024630583387613297
1772702896539282400,4.577282470703125,-0.04157674975246191,-0.04873042089939117,0.02270107662975788
1772702896549332500,4.58733251953125,-0.05912263557612896,-0.04879091891497373,0.002594108146429062
1772702896559383300,4.59738330078125,-0.0741436790972948,-0.03373305051475763,0.009334814578294753
1772702896569433000,4.60743310546875,-0.0911971052289009,-0.05073386967629194,0.013802315381169319
1772702896579483400,4.6174833984375,-0.08811082965135573,-0.06865940246731042,-0.004944470664858818
1772702896589533400,4.627533447265625,-0.08676350669562816,-0.07156155364960431,-0.003935585883259773
1772702896599583500,4.63758349609375,-0.057928457355499265,-0.052668637131154536,-0.008760229560732842
1772702896609634300,4.64763427734375,0.0025718963146209714,-0.03802197988033294,-0.009469839134812355
1772702896619684000,4.65768408203125,0.009390928679704666,-0.0382329922825098,-0.02532616443634033
1772702896629734400,4.667734375,-0.023110826474428175,-0.036927462641894816,-0.06137362937331199
1772702896639784400,4.677784423828125,-0.0038742110848426817,-0.043531098690629,-0.06228197638988495
1772702896649834500,4.68783447265625,0.012914426630735396,-0.014807108509540557,-0.051103579771518706
1772702896659885300,4.69788525390625,0.02154255424439907,-0.004133446542918682,-0.027646131816506384
1772702896669935000,4.70793505859375,0.010469371566176415,-0.034437983913719654,-0.026023499050736427
1772702896679985400,4.7179853515625,0.02034779150187969,-0.02418283962011337,0.021162030494213103
1772702896690035500,4.728035400390625,0.04463496827930212,-0.004172609509527683,0.03169511494636536
1772702896700085500,4.73808544921875,0.06274316416084766,-0.036494331921637056,0.029318448942899703
1772702896710135300,4.74813525390625,0.07737316253781318,-0.05531856711804867,0.021147417446970938
1772702896720186000,4.75818603515625,0.05201309583187103,-0.019270809920132158,-0.008945522999763488
1772702896730236400,4.768236328125,0.0359410819530487,0.0006277765095233917,-0.020935820522904394
1772702896740286500,4.778286376953125,0.05168167192041874,-0.008634849615395068,0.00429214423596859
1772702896750336500,4.78833642578125,0.04809036943018436,-0.013425298762321472,0.006993804410099983
1772702896760386300,4.79838623046875,0.0602273819476366,-0.005617839881777763,0.005126256972551346
1772702896770437000,4.80843701171875,0.054308221031725404,-0.011338263355195522,0.02396539747714996
1772702896780487400,4.8184873046875,0.04568097020089626,-0.0007189619243144989,-0.01489887844622135
1772702896790537500,4.828537353515625,0.032655484411120414,-0.011674363441765308,0.015355390042066572
1772702896800587500,4.83858740234375,0.03409633086919785,-0.01974135004132986,0.042264439755678174
1772702896810637300,4.84863720703125,0.038109073641896245,-0.01511544380635023,0.04690028286278248
1772702896820687400,4.858687255859375,0.03903524857610464,-0.0012055763974785803,0.029406711748242376
1772702896830738400,4.868738525390625,0.007190788286924362,-0.013728081101179122,-0.0005342530071735382
1772702896840788500,4.87878857421875,0.0005962123274803161,-0.011310790826380252,0.0016886837393045423
1772702896850838300,4.88883837890625,0.02966536268442869,-0.010319149440526962,0.03211187905371189
1772702896860888300,4.898888427734375,0.05233341382741928,-0.007817980274558068,0.039651626908779145
1772702896870938400,4.9089384765625,0.048424715951085086,0.009203297153115271,0.0004617722928524017
1772702896880989400,4.918989501953125,0.02621814484000206,0.01024608420431614,-0.003972995284199714
1772702896891039500,4.92903955078125,0.00625759909003973,0.006376549294590949,0.012604630029201506
1772702896901089300,4.93908935546875,0.0011973930910229682,0.011152385394275188,0.023925065466761587
1772702896911139300,4.949139404296875,0.025197277359664438,0.04376549196839332,0.04355623313188552
1772702896921189400,4.959189453125,0.02997077537178993,0.051391456802189345,0.013615852898359298
1772702896931239400,4.969239501953125,-0.009440028518438339,0.03039952217787504,-0.0056219315350055695
1772702896941290500,4.97929052734375,-0.006623802053928375,0.018885025472939014,-0.018509470158815385
1772702896951340300,4.98934033203125,0.031795652711391446,0.04368307438194752,-0.0189531222730875
1772702896961390300,4.999390380859375,0.03720014210343361,0.04111351615488529,-0.03268704859316349
1772702896971440400,5.0094404296875,0.04450315859317779,0.03194675161987543,-0.03647124330699444
1772702896981490400,5.019490478515625,0.06313859321922063,0.033090368697047234,-0.019016835159063338
1772702896991541500,5.02954150390625,0.04270516926050186,0.015996318294107914,0.015777999368309974
1772702897001591300,5.03959130859375,0.002358545824885368,-0.0006724924340844153,0.017129998499155044
1772702897011641300,5.049641357421875,-0.002209492743015289,0.012907412368059158,0.005309796845912933
1772702897021691400,5.05969140625,0.009939502473175526,0.010449205560982227,0.011209960800409317
1772702897031741400,5.069741455078125,0.022851591016352174,0.004437982447445392,0.011260229682922363
1772702897041792500,5.07979248046875,0.0469295089572668,0.04288549426347017,0.014793079984188079
1772702897051842300,5.08984228515625,0.015580430969595908,0.04039630779623985,0.05044014742672443
1772702897061892400,5.099892333984375,0.013556816187500953,0.03274725434780121,0.042349779951572415
1772702897071942400,5.1099423828125,-0.0023111995518207548,0.014470423901081084,0.05696867241263389
1772702897081992400,5.119992431640625,0.000943126069009304,0.006706511901319026,0.05950023671686649
1772702897092042200,5.130042236328125,-0.004320201286673545,-0.006345861895382404,0.03909223946034908
1772702897102093000,5.140093017578125,-0.024752748462557792,-0.033683950676023956,0.02385609188377857
1772702897112143000,5.15014306640625,0.01869534811973572,-0.02299158400893211,0.016678747600317
1772702897122193200,5.160193115234375,0.04910860656201839,-0.006271919876337051,-0.002952420064806938
1772702897132243200,5.1702431640625,0.025915947023034094,-0.02899871546924114,-0.020246669214963913
1772702897142293000,5.18029296875,-0.0003705868780612945,-0.03514730122685432,0.007987491622567176
1772702897152344000,5.190343994140625,-0.016756489011645316,-0.03595715630501509,0.016055062744021416
1772702897162394000,5.20039404296875,-0.031394962956011296,-0.019543781642615794,0.0026169045001268386
1772702897172444200,5.210444091796875,0.001992342860996723,-0.007698153287172317,0.008066402077674865
1772702897182494200,5.220494140625,-0.004933364748954772,0.01971826142668724,-0.0002063362270593643
1772702897192544000,5.2305439453125,-0.01576952380090952,0.020049977599084376,-0.007893968120217323
1772702897202594000,5.240593994140625,-0.025799042645096776,0.04555529799461364,-0.0024731121152639386
1772702897212645000,5.25064501953125,-0.011425064855813979,0.06083060853779316,-0.014299743509292601
1772702897222695200,5.260695068359375,-0.0043634559065103525,0.04428805453777313,-0.0022696984976530075
1772702897232745000,5.270744873046875,-0.0035147301226854323,0.06823883896768093,-0.002661328163743019
1772702897242795000,5.280794921875,0.006960486662387848,0.07408230429887772,-0.015966215416789054
1772702897252845000,5.290844970703125,0.024178747966885565,0.052335751914978024,-0.009184007930755614
1772702897262896000,5.300896240234375,0.01989654060304165,0.04979366621673107,-0.00450257211625576
1772702897272946200,5.3109462890625,-0.007502922976016998,0.04582125545442104,-0.029670331120491025
1772702897282996000,5.320995849609375,-0.014641104292869567,0.03843699042201042,-0.023100305080413816
1772702897293046000,5.3310458984375,0.003042436435818672,0.0481128735229373,-0.015269465324282645
1772702897303096000,5.341095947265625,0.021934476171433924,0.04061316541731357,-0.004088730618357658
1772702897313146000,5.35114599609375,0.012123276253044605,-0.00578355183750391,0.02146364378929138
1772702897323196000,5.36119580078125,0.0033037177205085754,-0.014810615640878676,0.0014472761988639832
1772702897333247000,5.3712470703125,0.0027197803527116773,-0.015652619422972202,-0.040460020682215686
1772702897343297000,5.381297119140625,0.025536592316627502,-0.052828503867983816,-0.02384264788031578
1772702897353347000,5.39134716796875,0.037597616988420485,-0.0389998850017786,0.016136895808577537
1772702897363397000,5.401397216796875,0.018913374784588814,-0.03645195408463478,0.034487960535287854
1772702897373447000,5.411447021484375,0.014894786792993544,-0.03586041793227195,0.04206920944452285
1772702897383497000,5.4214970703125,-0.016803250762820243,-0.027343641738593577,0.040001170998811716
1772702897393548000,5.431548095703125,-0.024546996757388112,-0.03158727065771818,0.02995557780265808
1772702897403598000,5.44159814453125,-0.023764321947097777,-0.021049510030448436,-0.0010977321088314056
1772702897413648100,5.451648193359375,-0.03239654121398926,-0.014844225649535655,0.0036211131066083905
1772702897423698000,5.461697998046875,0.004464578193426132,-0.024087270291149616,0.010445990690588951
1772702897433748000,5.471748046875,0.030603228056430815,-0.0034901802033185957,0.0286345583319664
1772702897443799000,5.481799072265625,0.03536649693548679,-0.004940671272575855,0.003621697628498077
1772702897453849000,5.49184912109375,0.01499824716746807,-0.028139176030457017,0.022858897539973257
1772702897463899100,5.501899169921875,0.0006616787791252136,-0.020445698918402193,0.013421207109093666
1772702897473949000,5.511948974609375,-0.011124912865459918,-0.004456979408860206,-0.02006371386349201
1772702897483999000,5.5219990234375,-0.026766134111583233,-0.00775163704007864,-0.031244448569416997
1772702897494049000,5.532049072265625,-0.02620060918331146,-0.004690203642845153,0.008591302734613417
1772702897504100000,5.54210009765625,0.007505845585465431,0.0037649054914712906,-0.005932897180318832
1772702897514150100,5.552150146484375,0.015296937853097915,-0.007571312037110328,0.014196283134818076
1772702897524200000,5.562199951171875,0.014910568884015082,-0.013180091829597949,0.02027647983133793
1772702897534250000,5.57225,0.01880757632255554,-0.020633330444991587,0.01026478890478611
1772702897544300000,5.582300048828125,-0.004045475998520851,0.00634907676577568,0.009539981761574745
1772702897554351000,5.59235107421875,-0.018045067517459393,0.002088496711850166,0.03709843529462814
1772702897564401200,5.602401123046875,-0.018495441633462905,0.047743747949600214,0.0659311465471983
1772702897574451000,5.612450927734375,-0.0022550854504108427,0.0014478607207536697,0.06654431000947952
1772702897584501000,5.6225009765625,0.02399462357163429,-0.020029519332945344,0.0995452468574047
1772702897594551000,5.632551025390625,-0.0033639234751462934,0.0061745969817042345,0.048745033946633334
1772702897604602000,5.64260205078125,-0.023670213922858237,0.0017138181805610656,0.042752515533566474
1772702897614652200,5.652652099609375,-0.005454173752665519,-0.01284369948208332,0.01348199738562107
1772702897624702000,5.662701904296875,-0.0012824410259723662,-0.012374912926554679,-0.011389993542432784
1772702897634752000,5.672751953125,0.015098784932494162,-0.01788432399779558,0.014137830945849418
1772702897644802000,5.682802001953125,0.035062253291904925,0.007191665069758891,0.038817514172196387
1772702897654853000,5.69285302734375,0.029425124187767503,-0.006043956339359283,0.03349953401982784
1772702897664903200,5.702903076171875,0.02665945886671543,-0.011648059956729412,0.039943887853622434
1772702897674953000,5.712952880859375,0.016185411125421524,-0.02153729354739189,0.02768763287067413
1772702897685003000,5.7230029296875,0.007734393644332886,-0.0027095512196421622,0.010387538501620292
1772702897695053000,5.733052978515625,0.0011377718582749367,-0.020933190174400804,0.007896890729665755
1772702897705104100,5.743104248046875,0.0063590136379003525,0.006237433084845543,0.004324877461791038
1772702897715154000,5.75315380859375,-0.005364741903543472,-0.016779577626287935,-0.00589724134504795
1772702897725204000,5.763203857421875,-0.01934650550484657,-0.04422200356423855,-0.012870002967119216
1772702897735254000,5.77325390625,-0.01305500414520502,-0.045638884624838824,0.02367664366364479
1772702897745304000,5.783303955078125,0.0076245035290718076,-0.0251423323020339,0.01128127247095108
1772702897755355100,5.793355224609375,0.035058746160566805,-0.0154305011048913,0.007584756040573119
1772702897765405000,5.803405029296875,0.04699555993080139,0.0056873979866504665,0.033010873720049856
1772702897775455000,5.813455078125,0.050201662495732303,0.008051496769487857,0.00046060324907302855
1772702897785505000,5.823505126953125,0.05970365033447742,0.011846212877333163,0.01733458116054535
1772702897795555000,5.83355517578125,0.0398538714826107,-0.005449205316603183,0.020278233397006986
1772702897805604900,5.84360498046875,0.06482990730702877,0.015541852524876594,0.006082534784078598
1772702897815656000,5.853656005859375,0.09742898535579442,0.019558102428913114,-0.0020288754791021346
1772702897825706000,5.8637060546875,0.06998685167878865,-0.04310995066910982,0.04471358647346496
1772702897835756000,5.873756103515625,0.030191140124201772,-0.05399345599412918,0.0903565627515316
1772702897845806000,5.88380615234375,-0.014070610928535461,-0.004629121105372906,0.07071253560483455
1772702897855855900,5.89385595703125,-0.02371580663025379,-0.004584112919867039,0.0835246709048748
1772702897865907000,5.903906982421875,-0.028703531914949416,-0.017017185774445533,0.06351356401145458
1772702897875957000,5.91395703125,-0.022777064475417136,-0.03287701820731163,0.021565350598096847
1772702897886007000,5.924007080078125,-0.012117431034147738,-0.028365093740820885,0.022377836024761198
1772702897896057000,5.93405712890625,-0.0016395839005708694,-0.01833177550435066,-0.0024111527949571606
1772702897906107000,5.94410693359375,-0.0012213584885001183,-0.010546820716559886,-0.023328268617391585
1772702897916157000,5.954156982421875,0.010728022502362728,-0.0037251580029726027,-0.02894727754294872
1772702897926208000,5.9642080078125,0.024254735812544823,0.019996493846178055,-0.038411855980753896
1772702897936258000,5.974258056640625,0.015833236686885355,0.040454467724263664,-0.021902619728446007
1772702897946308000,5.98430810546875,0.003657353463768959,0.07116174067705869,-0.056908466657996176
1772702897956358000,5.99435791015625,-0.0062444473475217815,0.061712067547440526,-0.04308744657635689
1772702897966408000,6.004407958984375,-0.027820319339632988,0.049772331167757505,-0.01896715079843998
1772702897976459000,6.014458984375,-0.02215688675045967,0.04392740453183651,-0.015550035831332206
1772702897986509000,6.024509033203125,0.00621054507791996,0.019710954903066156,-0.028033085307478903
1772702897996559000,6.03455908203125,0.00935059666931629,0.007610767264664173,-0.0033726913034915922
1772702898006609000,6.04460888671875,0.03844400468468666,0.017439795100688934,0.014179332000017164
1772702898016659000,6.054658935546875,0.07706219689249992,0.03698649935275316,0.024454642298817632
1772702898026709000,6.064708984375,0.09896423209905623,0.046238019561767575,0.019917583391070366
1772702898036760000,6.074760009765625,0.05781096845567226,0.04425444452911615,0.021267244434356687
1772702898046810000,6.08481005859375,0.025170097091794012,0.027254502150416374,0.004751578441262245
1772702898056860000,6.09485986328125,-0.008804068702459335,0.026198855617642403,0.012145195823907851
1772702898066910000,6.104909912109375,0.0024450550645589825,0.04786562076359987,0.02989887917935848
1772702898076960000,6.1149599609375,0.051560968150198457,0.06384703374952078,0.015034487524628638
1772702898087011000,6.125010986328125,0.05635697025507688,0.08244418219178914,0.026605098330974578
1772702898097061000,6.13506103515625,0.05504617991745472,0.09364508290290832,0.011506897920370102
1772702898107111200,6.145111083984375,0.054735506533086294,0.06686842739731073,0.0013104980766773223
1772702898117161000,6.155160888671875,0.050911856591701506,0.045673079155385495,0.0056529111951589585
1772702898127211000,6.1652109375,0.06582067191004752,0.05889437977820634,0.005371171644330024
1772702898137261000,6.175260986328125,0.09681085345745086,0.07491203312128782,-0.0023258125990629195
1772702898147312000,6.18531201171875,0.10219166971296072,0.07480769596397877,-0.0027156886994838714
1772702898157362200,6.195362060546875,0.0756754187092185,0.049589083555340766,0.009660977792739868
1772702898167412000,6.205411865234375,0.07476034969091415,0.027053134359419344,-0.0065402154237031935
1772702898177462000,6.2154619140625,0.057880526560544966,0.008712298765778542,0.00024140754044055937
1772702898187512000,6.225511962890625,0.04836041854321956,0.0026449615508317946,-0.007407061386108398
1772702898197563100,6.235563232421875,0.06072510233670473,-0.013037760749459266,0.0053308396339416505
1772702898207613200,6.24561328125,0.0793155287772417,-0.017295418193936346,0.03716916244328022
1772702898217663000,6.2556630859375,0.061736617466807364,-0.032281682662665845,0.03399637762606144
1772702898227713000,6.265713134765625,0.05755962404310703,-0.04526888226866722,0.01400572899878025
1772702898237763000,6.27576318359375,0.0403460389137268,-0.0414268198877573,0.03250233967602253
1772702898247814100,6.285814208984375,0.043026071777939795,-0.04350041129142046,0.04347556911110878
1772702898257864200,6.2958642578125,0.04466244080811739,-0.044669455070793625,0.07434709271490574
1772702898267914000,6.3059140625,0.061059448857605454,-0.02450140404999256,0.051502223700284955
1772702898277964000,6.315964111328125,0.05003361245244741,-0.010669570313394069,0.038084523722529406
1772702898288014000,6.32601416015625,0.029052491483092305,-0.02372282089293003,0.03649813131392002
1772702898298064100,6.336064208984375,0.0237894563883543,-0.022855974930524825,0.06499591152369975
1772702898308115200,6.346115234375,0.030384909130632874,-0.014280162025988101,0.06863748289644718
1772702898318165000,6.3561650390625,0.026036358532309532,0.005506488461792468,0.05664134015440941
1772702898328215000,6.366215087890625,0.02791208927631378,0.005509995593130588,0.024209143105149267
1772702898338265000,6.37626513671875,0.020428163261711596,0.006287117445468902,-0.004677928683161735
1772702898348315100,6.386315185546875,0.01591594653427601,0.019677052633464334,-0.017888123390078545
1772702898358366200,6.3963662109375,0.012537410011887549,0.028420623320341107,-0.004339490509033203
1772702898368416000,6.406416015625,0.01739069526195526,0.010091478164494037,-0.00807400086224079
1772702898378466000,6.416466064453125,0.0414092842310667,0.010621639518439769,-0.01300268943607807
1772702898388516000,6.42651611328125,0.05467033234238624,0.018604747226834296,0.002740238618850708
1772702898398566100,6.436566162109375,0.018771920487284658,0.002443301498889923,-0.023576690420508382
1772702898408616200,6.4466162109375,0.008628419874608516,0.0032788755401968956,-0.012371990317106247
1772702898418667000,6.4566669921875,-0.004905892220139503,0.0002367313653230667,-0.005342530071735381
1772702898428717000,6.466717041015625,0.0006581716477870941,-0.0040618426114320755,-0.012455576947331428
1772702898438767000,6.47676708984375,-0.011805588605999945,0.0048746202990412706,0.00782441001534462
1772702898448817000,6.48681689453125,-0.017543255475163458,0.005271802923083305,0.004681435814499855
1772702898458867200,6.4968671875,-0.013893793056905268,-0.026100655940175056,0.0011585223853588103
1772702898468918000,6.50691796875,-0.016760288403928278,-0.01958762078434229,-0.006827800193428993
1772702898478968000,6.516968017578125,0.01930266636312008,-0.02786328169852495,-0.020341946282982824
1772702898489018000,6.52701806640625,0.057763622182607645,-0.024466624997556207,-0.022179683104157445
1772702898499068000,6.53706787109375,0.045861002942919726,-0.023382336892187595,-0.0026946459114551543
1772702898509118200,6.5471181640625,0.01972819829881191,-0.018838848243653773,0.031068507480621337
1772702898519168300,6.557168212890625,-0.0027630349725484846,0.012760697373747824,0.01324585054218769
1772702898529219000,6.567218994140625,-0.020508827282488346,0.014253858540952204,-0.013272154027223586
1772702898539269000,6.57726904296875,-0.04101122482419014,0.01661474245339632,-0.02365267826616764
1772702898549319000,6.58731884765625,-0.04166588934063911,0.010544190368056297,0.0014864391654729843
1772702898559369000,6.597368896484375,-0.04223404461741447,0.006417173565924167,0.01820025807917118
1772702898569419300,6.607419189453125,-0.01653846234679222,0.00883037218749523,-0.001163198560476303
1772702898579470000,6.617469970703125,-0.007295417705178261,0.02039718360155821,-0.004279284754395485
1772702898589520100,6.62752001953125,0.00024608371555805207,0.010465279912948608,-0.032795185142755506
1772702898599570000,6.63756982421875,0.022191081281006334,-0.13903349989801644,-0.12495616696774958
1772702898609620000,6.647619873046875,0.4984925424844026,0.15796996329724788,0.15010580579340457
1772702898619670300,6.657670166015625,-0.014570377144217491,0.04919657710641622,0.17999942427575588
1772702898629720300,6.66772021484375,-0.6770125418573617,-0.1212675415828824,-0.07277472883164882
1772702898639771100,6.677771240234375,-0.4909212304472923,0.006468611492216587,-0.02787818700671196
1772702898649821000,6.687821044921875,0.20250819320380686,0.09107172528356314,0.04309621440470218
1772702898659871000,6.69787109375,0.3633820612490177,0.039745150411129,-0.017595277923345566
1772702898669921300,6.70792138671875,0.07398030522912741,0.024349720619618893,-0.15359072529971599
1772702898679971300,6.717971435546875,-0.08051146056354046,-0.019574176780879495,-0.03901040639579296
1772702898690022100,6.728022216796875,0.06040566112399101,0.01817278555035591,0.10518296048343181
1772702898700072000,6.738072021484375,0.06042845747768879,0.04087707705050707,0.003950198930501938
1772702898710122000,6.7481220703125,-0.16402444103062153,0.02039718360155821,-0.08212766358852386
1772702898720172300,6.75817236328125,-0.19509850146919488,0.06075637425780296,-0.035571664118766784
1772702898730222300,6.768222412109375,0.030933775185048577,0.060952481351792806,0.019033201771974564
1772702898740272000,6.778272216796875,0.16583528984487056,0.027959435549378395,0.027767712369561194
1772702898750323000,6.788322998046875,0.07450052971094846,-0.002257423537969589,-0.018434066835045813
1772702898760373000,6.798373046875,-0.02680149768590927,-0.006167290458083153,-0.026200024661421774
1772702898770423300,6.80842333984375,-0.046990883755683895,-0.0029182255342602727,-0.03035772886276245
1772702898780473300,6.818473388671875,-0.03369622563570738,-0.022220307375490665,0.0007587094128131866
1772702898790523100,6.828523193359375,-0.02014613144993782,0.011495499743521213,0.022999182793498038
1772702898800574000,6.838573974609375,0.0047463177442550655,0.028053543573617935,0.04071194961667061
1772702898810624000,6.8486240234375,0.0015092355191707611,0.03702303197085857,0.014181670087575912
1772702898820674300,6.85867431640625,-0.001975391726195812,0.03496551491916179,-0.014739303970336914
1772702898830724400,6.868724365234375,-0.0183212541103363,0.037683541706204415,-0.026288871988654136
1772702898840774100,6.878774169921875,-0.002351531562209129,0.04201251082122326,-0.028627544069290158
1772702898850824200,6.88882421875,-0.0047518707022070885,0.02298603105098009,-0.026233926931023596
1772702898860875000,6.898875,-0.0077323478177189825,-0.019987726017832753,-0.004975450325012207
1772702898870925300,6.90892529296875,-0.016084873360395432,-0.018482874412834645,0.0019061258822679519
1772702898880975400,6.918975341796875,-0.010742927810549736,-0.01866787559092045,-0.007086158868670463
1772702898891025200,6.929025146484375,-0.03302899389863014,-0.029465748459100723,-0.05391103840768337
1772702898901075200,6.9390751953125,-0.033280338311195375,-0.022112755347788334,-0.05502046095430851
1772702898911126000,6.9491259765625,-0.021226912423968312,-0.02215630222856998,-0.058390229648351666
1772702898921176300,6.95917626953125,-0.011973930910229682,-0.022438918562233446,-0.031164953592419622
1772702898931226000,6.96922607421875,-0.017318214547634124,-0.0275800808429718,0.006821954974532127
1772702898941276200,6.979276123046875,-0.044480069978535174,-0.03542202651500702,0.026186580657958983
1772702898951326200,6.989326171875,-0.06500175674259662,-0.015061960053443908,0.024064766198396682
1772702898961376300,6.999376220703125,-0.0553559765189886,-0.022772680561244485,0.018891747474670408
1772702898971427300,7.00942724609375,-0.03275923704653978,-0.011518296097218989,-0.015024550652503967
1772702898981477000,7.01947705078125,0.009794833305478095,-0.017337211509048937,0.0009977788656949996
1772702898991527200,7.029527099609375,0.018882687385380268,-0.008478197748959065,0.030661095723509786
1772702899001577200,7.0395771484375,-0.012322013695538044,-0.011822832001745701,0.02982347585558891
1772702899011627300,7.049627197265625,-0.01182546235024929,-0.02834960391074419,0.036464813566207885
1772702899021678300,7.05967822265625,0.015352759693562984,-0.024369594363868236,0.017609890970587728
1772702899031728000,7.06972802734375,0.0053881227791309355,-0.023800562304258345,0.0050052609413862225
1772702899041778200,7.079778076171875,-0.005065466696023941,0.017274959927797318,-0.01350070208609104
1772702899051828200,7.089828125,-0.006341477981209755,0.041184243303537364,-0.043669630378484724
1772702899061878300,7.099878173828125,-0.004967851540446281,0.04295242201983929,-0.009966098219156264
1772702899071928000,7.109927978515625,0.018100304836034774,0.021407237426936624,-0.0006686930418014526
1772702899081979100,7.119979248046875,0.011321896742284298,0.03041384296417236,0.000048515316843986505
1772702899092029200,7.130029296875,0.002921440404653549,0.031165245853364467,-0.013794132074713706
1772702899102079000,7.140078857421875,-0.0021148001968860626,0.01639203961342573,0.0033598318219184875
1772702899112129000,7.15012890625,0.008327098840475082,0.023842355619370936,-0.012561959931254385
1772702899122178800,7.1601787109375,-0.0010182371318340302,0.01771744299829006,-0.0034673838496208187
1772702899132230000,7.17022998046875,-0.012876432707905769,0.012370821273326874,0.007789338701963424
1772702899142280000,7.180280029296875,-0.028042437657713887,0.014452011461555957,0.00006195932030677795
1772702899152330000,7.190330078125,-0.025061960542201993,0.005317395630478858,-0.0027840777605772017
1772702899162380000,7.200380126953125,-0.008845862017571926,-0.003890577697753906,-0.011170797833800315
1772702899172429800,7.210429931640625,0.004416647398471832,-0.009151859226822852,-0.019489713367819784
1772702899182480000,7.22047998046875,0.0151820793017745,-0.022042612721025943,-0.016556582525372503
1772702899192531000,7.230531005859375,0.01973784290999174,-0.03647036652415991,0.024817045870423316
1772702899202581000,7.2405810546875,0.01647884111404419,-0.040048809532821174,0.004487959069013595
1772702899212631000,7.250631103515625,0.002737316009402275,-0.0383159943908453,0.014274609068036079
1772702899222680800,7.260680908203125,0.009684943190217017,-0.030644729110598564,0.014226678273081779
1772702899232731000,7.27073095703125,0.01964724201709032,-0.009333061012625694,0.025627777731418607
1772702899242782000,7.280781982421875,0.0293055894613266,0.004107435318827629,0.03326221813261509
1772702899252832000,7.29083203125,0.03511865965425968,0.02054389859586954,0.013745032235980033
1772702899262882000,7.300882080078125,0.006762918263673782,0.03280132262259722,0.019854455026984213
1772702899272931800,7.310931884765625,-0.019386837515234946,0.01552460912913084,0.0035369419544935225
1772702899282982000,7.32098193359375,-0.0019686697244644166,0.01816898615807295,-0.00978197382390499
1772702899293032000,7.331031982421875,0.05983633680343627,0.00044832828938961026,-0.004940963533520699
1772702899303083000,7.3410830078125,0.05211158777028322,0.011482640261948108,-0.01116144548356533
1772702899313133000,7.351133056640625,0.026100655940175056,0.01421615687906742,-0.006288871011137962
1772702899323182800,7.361182861328125,0.0012891630277037619,0.040159868691861625,-0.030231472134590147
1772702899333233000,7.37123291015625,-0.01198971300125122,0.05628858119398355,-0.0339238969117403
1772702899343283000,7.381282958984375,0.01063157639056444,0.02922492544054985,-0.01938917560279369
1772702899353334000,7.391333984375,0.0422848980218172,0.01987199068367481,0.020223872861266135
1772702899363383800,7.4013837890625,0.06242226164340973,0.00007248071432113647,0.02631166834235191
1772702899373433900,7.411433837890625,0.036354923450946805,0.014070026406645774,0.02494447164237499
1772702899383484000,7.42148388671875,0.007374328160285949,0.02158902373462915,-0.000004091653227806091
1772702899393534000,7.431533935546875,-0.009866144976019859,0.03879121068716049,-0.044805356410145755
1772702899403583700,7.441583740234375,-0.02474281159043312,0.033631051445007325,-0.005959200665354728
1772702899413634800,7.451634765625,-0.027546178573369978,0.022895722419023514,0.03475216442942619
1772702899423684900,7.461684814453125,0.028777181673049924,0.04125175558179617,0.024360534274578093
1772702899433735000,7.47173486328125,0.05740589478611946,0.033706747029721734,-0.0076338558793067925
1772702899443785000,7.481784912109375,0.01741641422510147,-0.014805647204816341,-0.03288461699187755
1772702899453834800,7.491834716796875,0.0354793096601963,-0.15247779562175273,-0.12146657128632068
1772702899463885800,7.5018857421875,0.36444910595864055,0.039893326710164545,-0.048884150156378745
1772702899473936000,7.511935791015625,0.012403262238204479,0.07513444370031357,0.16590952412486076
1772702899483986000,7.52198583984375,-0.46588586565107104,0.033111119224131104,0.09644026657938956
1772702899494036000,7.532035888671875,-0.34005613071918483,0.06753244426399468,0.061220484638214105
1772702899504085800,7.542085693359375,0.14575404032468794,0.09366057273298502,0.0862999808371067
1772702899514135800,7.5521357421875,0.2715072028890252,-0.017326105593144892,-0.012429857984185218
1772702899524187000,7.562186767578125,0.09790420165210961,-0.10705226148664951,-0.09978431631028652
1772702899534237000,7.57223681640625,-0.06667115125954151,-0.03437836268097162,-0.08321779691278934
1772702899544287000,7.582286865234375,-0.02625847685039043,0.07983633778095245,-0.00815115775167942
