time,seconds_elapsed,z,y,x
1772702892024234500,0.062234375,0.021501563489437103,0.012830577790737152,-0.012705408968031406
1772702892034284500,0.072284423828125,0.02190503291785717,0.004093012306839228,-0.014116884209215641
1772702892044334300,0.082334228515625,0.019231218844652176,-0.0034029872622340918,-0.015320366248488426
1772702892054385400,0.092385498046875,0.015594938769936562,-0.017427992075681686,-0.015480422414839268
1772702892064435500,0.102435546875,0.014569355174899101,-0.024325313046574593,-0.00939030572772026
1772702892074485500,0.112485595703125,0.01492488756775856,-0.026337597519159317,-0.015061241574585438
1772702892084535600,0.12253564453125,0.013395966030657291,-0.0321161262691021,-0.009791910648345947
1772702892094585000,0.132585205078125,0.01062334980815649,-0.026384469121694565,-0.012665728107094765
1772702892104636200,0.14263623046875,0.010261958464980125,-0.020710870623588562,-0.00957086868584156
1772702892114686200,0.152686279296875,0.007741276640444994,-0.021769477054476738,-0.008440889418125153
1772702892124736000,0.162736083984375,0.005028048064559698,-0.01889406330883503,-0.006514358334243298
1772702892134786000,0.1727861328125,0.006742591038346291,-0.02509603276848793,-0.004194478504359722
1772702892144836000,0.182836181640625,0.008200405165553093,-0.02636396326124668,0.0012311793398112059
1772702892154887200,0.19288720703125,0.008934373036026955,-0.02166135236620903,0.007749798707664013
1772702892164937000,0.20293701171875,0.011150388978421688,-0.01960885524749756,0.013186908327043056
1772702892174987000,0.212987060546875,0.012300075963139534,-0.01619095355272293,0.009437976405024529
1772702892185037000,0.223037109375,0.010339722968637943,-0.01552223414182663,0.01025716494768858
1772702892195087000,0.233087158203125,0.008503473363816738,-0.014990666881203651,0.005137770436704159
1772702892205138200,0.24313818359375,0.00785792339593172,-0.008539159782230854,0.00395799009129405
1772702892215188000,0.25318798828125,0.005360410548746586,-0.01678430661559105,0.00034408041392453015
1772702892225238000,0.263238037109375,0.004818457178771496,-0.018017349764704704,-0.003771568648517132
1772702892235288000,0.2732880859375,0.0033683660440146923,-0.017224792391061783,-0.005260009318590164
1772702892245338000,0.283338134765625,0.005490372888743877,-0.011057977564632893,0.0008732505375519395
1772702892255389200,0.29338916015625,0.003876230912283063,-0.011351191438734531,-0.0023401195649057627
1772702892265439000,0.30343896484375,0.004287156742066145,-0.014579741284251213,-0.003876230912283063
1772702892275489000,0.313489013671875,0.0054642739705741405,-0.013982927426695824,-0.010646252892911434
1772702892285539000,0.3235390625,0.00011531487689353526,-0.012552809901535511,-0.005625128746032715
1772702892295589000,0.333589111328125,0.0057409764267504215,-0.009781258180737495,-0.004255465231835842
1772702892305640200,0.34364013671875,0.002552906284108758,-0.0111045828089118,-0.004533499013632536
1772702892315690000,0.35368994140625,0.004119643941521645,-0.010930146090686321,-0.007189735770225525
1772702892325740000,0.363739990234375,0.00007376955909421667,-0.002913498319685459,-0.0062485747039318085
1772702892335790000,0.3737900390625,0.00007323692989302799,0.003615241264924407,-0.004403004422783852
1772702892345840000,0.383840087890625,0.005062935408204794,0.005738845560699701,-0.005605954211205244
1772702892355891200,0.39389111328125,0.004265851341187954,0.008371912874281406,-0.008330900222063065
1772702892365941000,0.40394091796875,-0.0004623247659765184,0.0124233802780509,-0.004602475091814995
1772702892375991000,0.413990966796875,-0.0029523803386837244,0.013071061111986637,-0.005031510256230831
1772702892386041000,0.424041015625,-0.007922638207674026,0.0041643851436674595,-0.0018676748732104897
1772702892396091100,0.434091064453125,-0.008417187258601189,-0.007407050114125013,-0.003073554253205657
1772702892406142200,0.44414208984375,-0.009067264385521412,-0.009827064350247383,-0.004983040504157543
1772702892416192000,0.45419189453125,-0.010479538701474667,-0.009755957871675491,0.0009920274605974555
1772702892426242000,0.464241943359375,-0.01213069912046194,-0.015792811289429665,0.009134110063314438
1772702892436292000,0.4742919921875,-0.00836685299873352,-0.013171195983886719,0.008837966248393059
1772702892446342100,0.484342041015625,-0.006810235325247049,-0.0037590519059449434,0.01565166376531124
1772702892456393200,0.494393310546875,-0.005648031830787659,0.0005805690889246762,0.022783875465393066
1772702892466443000,0.504443115234375,-0.004493285436183214,0.006458964664489031,0.019824305549263954
1772702892476493000,0.5144931640625,0.002442651428282261,0.009151154197752476,0.02148238942027092
1772702892486543000,0.524543212890625,0.003454119898378849,0.01683969981968403,0.029506493359804153
1772702892496593200,0.53459326171875,0.003921504598110914,0.017713483422994614,0.030552582815289497
1772702892506644200,0.544644287109375,0.0046908920630812645,0.01805063895881176,0.03568316251039505
1772702892516694000,0.554694091796875,0.005434446502476931,0.015327556990087032,0.03461816534399986
1772702892526744000,0.564744140625,0.0008138620178215206,0.017681259661912918,0.03327992558479309
1772702892536794000,0.574794189453125,0.0007840346079319715,0.014605840668082237,0.03364158421754837
1772702892546844200,0.58484423828125,-0.000886566296685487,0.01338797714561224,0.038050711154937744
1772702892556895000,0.59489501953125,-0.000990695902146399,0.014002367854118347,0.039032354950904846
1772702892566945000,0.604945068359375,-0.0009898969437927008,0.021351628005504608,0.038715705275535583
1772702892576995000,0.6149951171875,0.0017129451734945178,0.034810446202754974,0.03290708363056183
1772702892587045000,0.625045166015625,0.0030927290208637714,0.03942703455686569,0.027118703350424767
1772702892597095200,0.63509521484375,0.004132693167775869,0.040047816932201385,0.028563734143972397
1772702892607146000,0.64514599609375,0.00899589154869318,0.043726708739995956,0.030409570783376694
1772702892617196000,0.655196044921875,0.012234828434884548,0.039988428354263306,0.0240749754011631
1772702892627246000,0.66524609375,0.016079900786280632,0.0347989946603775,0.016090553253889084
1772702892637296000,0.675296142578125,0.00965848658233881,0.02943005971610546,0.007749798707664013
1772702892647346000,0.685345947265625,0.008599613793194294,0.031072964891791344,-0.0007768440991640091
1772702892657397000,0.69539697265625,0.006972688250243664,0.028141090646386147,-0.009623066522181034
1772702892667447000,0.705447021484375,0.003802194958552718,0.025671541690826416,-0.014788000844419003
1772702892677497000,0.7154970703125,0.003347327234223485,0.019475962966680527,-0.018663698807358742
1772702892687547100,0.725547119140625,0.007473096251487732,0.013864416629076004,-0.018847988918423653
1772702892697597000,0.735596923828125,0.012373845092952251,0.013758422806859016,-0.0175773948431015
1772702892707648000,0.74564794921875,0.01583222672343254,0.011713114567101002,-0.022108230739831924
1772702892717698000,0.755697998046875,0.02269306220114231,0.006456301547586918,-0.024396153166890144
1772702892727748000,0.765748046875,0.02352103777229786,-0.01155945099890232,-0.026570091024041176
1772702892737798100,0.775798095703125,0.028300346806645393,-0.019762519747018814,-0.026279274374246597
1772702892747848000,0.785847900390625,0.025780729949474335,-0.019817646592855453,-0.032289229333400726
1772702892757899000,0.79589892578125,0.026330407708883286,-0.019477294757962227,-0.032176047563552856
1772702892767949000,0.805948974609375,0.024528779089450836,-0.016710003837943077,-0.036017920821905136
1772702892777999000,0.8159990234375,0.023129554465413094,-0.020351611077785492,-0.044916875660419464
1772702892788049200,0.826049072265625,0.023246200755238533,-0.016451410949230194,-0.04454536363482475
1772702892798099000,0.836098876953125,0.02780952677130699,-0.014756575226783752,-0.04067845270037651
1772702892808150000,0.84614990234375,0.030361633747816086,-0.02087572030723095,-0.03965899720788002
1772702892818200000,0.856199951171875,0.03401229530572891,-0.017429590225219727,-0.045159488916397095
1772702892828250000,0.86625,0.036921266466379166,-0.017524132505059242,-0.04394428804516792
1772702892838300200,0.876300048828125,0.043308060616254807,-0.01449691690504551,-0.03988802805542946
1772702892848350000,0.886349853515625,0.050333477556705475,0.008541289716959,-0.04830414801836014
1772702892858401000,0.896401123046875,0.04603726789355278,-0.02371278591454029,-0.03921744227409363
1772702892868451000,0.906451171875,0.041672080755233765,-0.02461373433470726,-0.036071453243494034
1772702892878501000,0.916501220703125,0.04340047016739845,-0.0075788237154483795,-0.03945819288492203
1772702892888551200,0.92655126953125,0.04614006355404854,-0.009544502943754196,-0.037221670150756836
1772702892898601000,0.93660107421875,0.04084410145878792,-0.01733238436281681,-0.03554654121398926
1772702892908652000,0.946652099609375,0.0333787277340889,0.01918993890285492,-0.04914490878582001
1772702892918702000,0.9567021484375,0.04313681647181511,-0.019933493807911873,-0.04797152057290077
1772702892928752000,0.966752197265625,0.03008466586470604,-0.06854657083749771,-0.022957246750593185
1772702892938802200,0.97680224609375,0.03349750488996506,-0.04598107561469078,-0.0233500637114048
1772702892948852000,0.98685205078125,0.03862542286515236,-0.04014688730239868,-0.030844198539853096
1772702892958903000,0.996903076171875,0.03453240916132927,-0.044679585844278336,-0.026003636419773102
1772702892968953000,1.006953125,0.03446982800960541,-0.029645776376128197,-0.01733930967748165
1772702892979003100,1.017003173828125,0.03309403732419014,-0.009006544016301632,-0.01846183091402054
1772702892989053200,1.02705322265625,0.035284221172332764,-0.0049215215258300304,-0.017247164621949196
1772702892999103000,1.03710302734375,0.033357422798871994,-0.005112470127642155,-0.01720402017235756
1772702893009154000,1.047154052734375,0.033296968787908554,-0.005215002223849297,-0.009550894610583782
1772702893019204000,1.0572041015625,0.03429006412625313,-0.005359877832233906,-0.006235259119421244
1772702893029254100,1.067254150390625,0.03280375152826309,-0.00851465854793787,-0.004163586068898439
1772702893039304000,1.077303955078125,0.030769364908337593,-0.004244812298566103,-0.002844256116077304
1772702893049354000,1.08735400390625,0.027584223076701164,0.005625927820801735,-0.005369465332478285
1772702893059405000,1.097405029296875,0.027640948072075844,0.0007488809060305357,-0.009528257884085178
1772702893069455000,1.107455078125,0.02659565769135952,-0.002269545802846551,-0.007284810766577721
1772702893079505200,1.117505126953125,0.020619791001081467,-0.007844873704016209,-0.006409695837646723
1772702893089555700,1.1275556640625,0.02455647476017475,-0.012566391378641129,-0.006661364808678627
1772702893099605500,1.13760546875,0.01876702904701233,-0.01068114023655653,-0.007125553674995899
1772702893109656600,1.147656494140625,0.015686284750699997,-0.003084473079070449,-0.011089136824011803
1772702893119706600,1.15770654296875,0.02147919312119484,0.008812665939331055,-0.013562413863837719
1772702893129756700,1.167756591796875,0.017945177853107452,0.024274978786706924,-0.012202337384223938
1772702893139806700,1.177806640625,0.01757899299263954,0.025831064209342003,-0.011451059952378273
1772702893149856500,1.1878564453125,0.016287360340356827,0.02587926760315895,-0.013230584561824799
1772702893159907600,1.197907470703125,0.018393121659755707,0.031252194195985794,-0.01679549179971218
1772702893169957600,1.20795751953125,0.014393320307135582,0.03894420340657234,-0.014222611673176289
1772702893180007700,1.218007568359375,0.010759969241917133,0.03821103647351265,-0.01321220863610506
1772702893190057500,1.228057373046875,0.01619175262749195,0.030783211812376976,-0.020307933911681175
1772702893200107500,1.238107421875,0.006786000914871693,0.0276247039437294,-0.029019933193922043
1772702893210158600,1.24815869140625,-0.003284476464614272,0.018637333065271378,-0.02853204309940338
1772702893220208600,1.258208740234375,-0.004258926957845688,0.01757819391787052,-0.029628731310367584
1772702893230258700,1.2682587890625,-0.008551676757633686,0.02159477397799492,-0.026865169405937195
1772702893240308500,1.27830859375,-0.011654258705675602,0.02044854871928692,-0.022544989362359047
1772702893250358500,1.288358642578125,-0.01056023221462965,0.023208916187286377,-0.014629809185862541
1772702893260409600,1.29840966796875,-0.010491256602108479,0.02857758291065693,-0.015089737251400948
1772702893270459600,1.308459716796875,-0.009413741528987885,0.036432042717933655,-0.015844743698835373
1772702893280509700,1.318509765625,-0.015172561630606651,0.039564721286296844,-0.014022341929376125
1772702893290559500,1.3285595703125,-0.019037073478102684,0.03874233737587929,-0.017124924808740616
1772702893300609500,1.338609619140625,-0.02160542644560337,0.04483484849333763,-0.017417339608073235
1772702893310659600,1.34865966796875,-0.023856597021222115,0.04736165702342987,-0.020328707993030548
1772702893320710700,1.358710693359375,-0.026073146611452103,0.05144667997956276,-0.022793995216488838
1772702893330760700,1.3687607421875,-0.023315176367759705,0.050196323543787,-0.024623854085803032
1772702893340810500,1.378810546875,-0.0245484858751297,0.053166281431913376,-0.026819629594683647
1772702893350860500,1.388860595703125,-0.02238067239522934,0.0538557730615139,-0.025675268843770027
1772702893360910600,1.39891064453125,-0.023840084671974182,0.058568503707647324,-0.027585554867982864
1772702893370961700,1.408961669921875,-0.026091787964105606,0.05860019475221634,-0.028915004804730415
1772702893381011700,1.41901171875,-0.023059779778122902,0.05607099086046219,-0.03380989655852318
1772702893391061500,1.4290615234375,-0.02369813807308674,0.0506698340177536,-0.03207218274474144
1772702893401111600,1.439111572265625,-0.025286447256803513,0.05130473151803017,-0.03518861532211304
1772702893411161600,1.44916162109375,-0.024154871702194214,0.04050268605351448,-0.032940372824668884
1772702893421212700,1.459212646484375,-0.027396736666560173,0.03955353423953056,-0.036263465881347656
1772702893431262700,1.4692626953125,-0.023189742118120193,0.03959401324391365,-0.03129400685429573
1772702893441312500,1.4793125,-0.027211647480726242,0.037765488028526306,-0.029146699234843254
1772702893451362600,1.489362548828125,-0.0232296884059906,0.03797534480690956,-0.02598819136619568
1772702893461412600,1.49941259765625,-0.026028670370578766,0.03909840062260628,-0.02485102042555809
1772702893471463700,1.509463623046875,-0.02490455098450184,0.040949296206235886,-0.006556968670338392
1772702893481513700,1.519513671875,-0.02147839404642582,0.040397755801677704,0.014605041593313217
1772702893491563500,1.5295634765625,-0.02473277598619461,0.03734284266829491,0.022582540288567543
1772702893501613600,1.539613525390625,-0.02490801364183426,0.02913365140557289,0.019098859280347824
1772702893511663600,1.54966357421875,-0.025843581184744835,0.020388362929224968,0.014286793768405914
1772702893521714700,1.559714599609375,-0.029901172965765,0.015733156353235245,0.012149606831371784
1772702893531764700,1.5697646484375,-0.027631361037492752,0.00794554129242897,0.012941631488502026
1772702893541814500,1.579814453125,-0.029625536873936653,0.008947156369686127,0.012813267298042774
1772702893551864600,1.589864501953125,-0.028726186603307724,-0.0015475628897547722,0.011271563358604908
1772702893561914600,1.59991455078125,-0.024109330028295517,0.0054397727362811565,0.010053698904812336
1772702893571965700,1.609965576171875,-0.02311677113175392,0.002243446884676814,0.007415838539600372
1772702893582015500,1.620015380859375,-0.01708684116601944,-0.00155288923997432,0.004238420631736517
1772702893592065500,1.6300654296875,-0.014576545916497707,-0.002828276949003339,0.0068051754496991634
1772702893602115600,1.640115478515625,-0.009547166526317596,-0.006104497704654932,0.004846686962991953
1772702893612165600,1.65016552734375,-0.010963701643049717,-0.005705822724848986,0.005261873826384544
1772702893622216700,1.660216796875,-0.010517622344195843,-0.007103449665009975,0.0002844255941454321
1772702893632266500,1.6702666015625,-0.009762349538505077,-0.004040548112243414,-0.003988349810242653
1772702893642316500,1.680316650390625,-0.009986587800085545,-0.006128199864178896,0.003350256709381938
1772702893652366600,1.69036669921875,-0.012885438278317451,-0.00806431844830513,0.004487426485866308
1772702893662416600,1.700416748046875,-0.011468636803328991,-0.008147141896188259,0.007610515225678682
1772702893672467700,1.7104677734375,-0.013582387939095497,-0.010097907856106758,0.007299458142369986
1772702893682517500,1.720517578125,-0.014622884802520275,-0.011124290525913239,0.004362790379673243
1772702893692567600,1.730567626953125,-0.014958975836634636,-0.006457100156694651,0.004430967383086681
1772702893702617600,1.74061767578125,-0.01678350754082203,-0.0024000408593565226,0.007555121555924416
1772702893712667600,1.750667724609375,-0.015476960688829422,0.0056741307489573956,0.013333648443222046
1772702893722718700,1.76071875,-0.015461248345673084,0.00686136819422245,0.01389743946492672
1772702893732768500,1.7707685546875,-0.015923839062452316,0.0024799355305731297,0.013856693170964718
1772702893742818600,1.780818603515625,-0.01564340852200985,0.0015387744642794132,0.01854066178202629
1772702893752868600,1.79086865234375,-0.014146711677312851,0.002995789982378483,0.02780819498002529
1772702893762918700,1.800918701171875,-0.015917181968688965,0.004608600400388241,0.024769527837634087
1772702893772968400,1.810968505859375,-0.01555232796818018,0.007218764163553715,0.027589017525315285
1772702893783019500,1.82101953125,-0.014542990364134312,0.012770390138030052,0.02906547300517559
1772702893793069600,1.831069580078125,-0.014289190992712975,0.012547483667731285,0.03304849565029144
1772702893803119600,1.84111962890625,-0.014247379265725613,0.011484349146485329,0.03309829905629158
1772702893813169700,1.851169677734375,-0.013013004325330257,0.005240035708993673,0.03344663977622986
1772702893823219500,1.861219482421875,-0.010951983742415905,-0.00021758026559837162,0.029634591192007065
1772702893833270500,1.8712705078125,-0.009977266192436218,-0.005315669346600771,0.032533708959817886
1772702893843320600,1.881320556640625,-0.010374343954026699,-0.004471980035305023,0.03303385153412819
1772702893853370600,1.89137060546875,-0.009589243680238724,0.002728408435359597,0.03790104389190674
1772702893863420700,1.901420654296875,-0.011454521678388119,-0.0007408913807012141,0.03175686299800873
1772702893873470500,1.911470458984375,-0.005082376766949892,-0.00427277572453022,0.02893577702343464
1772702893883521500,1.921521484375,-0.005051483865827322,-0.003242931328713894,0.022828349843621254
1772702893893571600,1.931571533203125,-0.001374457380734384,-0.00723580876365304,0.026621490716934204
1772702893903621600,1.94162158203125,0.0012876383261755109,-0.005329251755028963,0.028322450816631317
1772702893913671700,1.951671630859375,0.0004993426846340299,0.00472418125718832,0.02508910745382309
1772702893923721500,1.961721435546875,-0.0009843043517321348,0.005898102652281523,0.018848787993192673
1772702893933772500,1.9717724609375,-0.0022128205746412277,0.005874933209270239,0.013699300587177277
1772702893943822600,1.981822509765625,-0.004811266902834177,0.004854942671954632,0.021737253293395042
1772702893953872600,1.99187255859375,-0.005950034596025944,0.0013006879016757011,0.021373465657234192
1772702893963922700,2.001922607421875,-0.005772135220468044,0.005314604379236698,0.018199777230620384
1772702893973972500,2.011972412109375,-0.0041494714096188545,0.009192433208227158,0.01768898218870163
1772702893984023600,2.0220234375,-0.006698382552713156,0.008461927995085716,0.0151986600831151
1772702893994073600,2.032073486328125,-0.0038458709605038166,0.009751697070896626,0.015207981690764427
1772702894004123600,2.04212353515625,-0.0044320328161120415,0.00703846849501133,0.018545188009738922
1772702894014173700,2.052173583984375,-0.003819771809503436,0.0012157330056652427,0.018608039245009422
1772702894024223500,2.062223388671875,-0.002532133599743247,-0.0003779025573749095,0.019783025607466698
1772702894034273500,2.0722734375,0.0035262915771454573,-0.001734516816213727,0.021085577085614204
1772702894044324600,2.08232470703125,-0.001558748190291226,-0.0028972530271857977,0.018336929380893707
1772702894054374700,2.092374755859375,-0.0010554107138887048,0.007443535141646862,0.016949955374002457
1772702894064424400,2.102424560546875,-0.002189118415117264,0.00558198569342494,0.01762559823691845
1772702894074474500,2.112474609375,-0.0004183826094958931,0.004818723537027836,0.015691878274083138
1772702894084524500,2.122524658203125,0.002712962217628956,0.008694421499967575,0.016867930069565773
1772702894094574800,2.132574951171875,0.0016056197928264737,0.012281167320907116,0.012722719460725784
1772702894104625000,2.142625,0.005389971658587456,0.008071508258581161,0.011553059332072735
1772702894114674700,2.1526748046875,0.0052078114822506905,0.003686081152409315,0.008097341284155846
1772702894124725000,2.16272509765625,0.002894589677453041,0.006636330857872963,0.007463242392987013
1772702894134775000,2.172775146484375,-0.0003217098710592836,0.008713330142199993,0.00929256808012724
1772702894144825900,2.182825927734375,0.0002937466779258102,0.011707255616784096,0.011515774764120579
1772702894154876000,2.1928759765625,0.00253399764187634,0.011380752548575401,-0.0007773766992613673
1772702894164925700,2.20292578125,-0.0010705908061936498,0.00980309583246708,-0.0018570221727713943
1772702894174976000,2.21297607421875,-0.0009632653673179448,0.006563093978911638,-0.002832005498930812
1772702894185026000,2.223026123046875,0.00008948221511673182,0.0049095372669398785,-0.0012897689593955874
1772702894195076900,2.233076904296875,0.0007225155713967979,0.010602043941617012,-0.001213868847116828
1772702894205127000,2.243126953125,-0.0009361011325381696,0.014212491922080517,-0.00316010694950819
1772702894215176700,2.2531767578125,0.0017816547770053148,0.015506255440413952,-0.006719687953591347
1772702894225226800,2.263226806640625,0.0025449167005717754,0.020687434822320938,-0.004908205941319466
1772702894235277000,2.273277099609375,0.000036218989407643676,0.01865144819021225,-0.005136971361935139
1772702894245328000,2.283327880859375,-0.00006764429417671636,0.009461412206292152,-0.009561014361679554
1772702894255377700,2.293377685546875,0.001041295938193798,0.006086920853704214,-0.004013650119304657
1772702894265427700,2.303427734375,-0.0011464908020570874,0.002685531508177519,-0.00101146858651191
1772702894275477800,2.313477783203125,0.0006705839768983424,0.0016857809387147427,-0.0005126585019752383
1772702894285528000,2.323528076171875,0.0012412993237376213,0.004929777234792709,-0.003683684393763542
1772702894295577900,2.333577880859375,0.002293247962370515,0.008836368098855019,-0.002838397165760398
1772702894305628700,2.343628662109375,0.0018959043081849813,0.008109858259558678,0.00010173275222769007
1772702894315678700,2.3536787109375,0.003154247999191284,0.010155431926250458,0.0025190841406583786
1772702894325728800,2.363728759765625,0.0017845842521637678,0.012357600033283234,0.005116198677569628
1772702894335779000,2.373779052734375,0.0010484865633770823,0.006405967753380537,0.003578489413484931
1772702894345828900,2.383828857421875,0.0034876756835728884,-0.004145210143178701,-0.002263420494273305
1772702894355879700,2.393879638671875,0.004619785584509373,-0.01182390283793211,-0.005742307752370834
1772702894365929700,2.4039296875,-0.0002511360798962414,-0.01254269015043974,-0.0031667647417634726
1772702894375979800,2.413979736328125,-0.00042450788896530867,-0.009135441854596138,0.0028213527984917164
1772702894386030000,2.424030029296875,0.0052237906493246555,-0.015105183236300945,0.0036647759843617678
1772702894396079900,2.434079833984375,0.003468234557658434,-0.007918110117316246,-0.00555269094184041
1772702894406130700,2.444130615234375,0.006975085008889437,-0.009995642118155956,-0.010550112463533878
1772702894416180700,2.4541806640625,0.00603339122608304,-0.011064635589718819,-0.012974654324352741
1772702894426230800,2.464230712890625,0.007983624003827572,-0.009376724250614643,-0.006906908005475998
1772702894436281000,2.474281005859375,0.005601426586508751,-0.009408148936927319,-0.005342567339539528
1772702894446331000,2.484330810546875,0.00740198977291584,-0.004670652095228434,-0.006188387516885996
1772702894456381700,2.494381591796875,0.010566091164946556,-0.0006095975404605269,-0.0032557144295424223
1772702894466431700,2.504431640625,0.011258513666689396,-0.003010969841852784,-0.005256813485175371
1772702894476481800,2.514481689453125,0.008332232013344765,-0.003221625927835703,-0.00854608416557312
1772702894486532000,2.524531982421875,0.009593771770596504,0.00017097493400797248,-0.007963650859892368
1772702894496582000,2.534581787109375,0.011024953797459602,0.0036693033762276173,-0.008618255145847797
1772702894506632000,2.5446318359375,0.011438010260462761,0.0012370382901281118,-0.009158877655863762
1772702894516682800,2.554682861328125,0.009602027013897896,0.003090332029387355,-0.011896872892975807
1772702894526732800,2.56473291015625,0.01028566062450409,0.0007025419035926461,-0.011411645449697971
1772702894536783000,2.574783203125,0.009118929505348206,0.0037169738207012415,-0.010069145821034908
1772702894546833000,2.5848330078125,0.010546650737524033,0.008462727069854736,-0.013488378375768661
1772702894556883000,2.594883056640625,0.007290669716894627,0.01309050153940916,-0.015324095264077187
1772702894566933800,2.604933837890625,0.005026982631534338,0.005283445119857788,-0.015980830416083336
1772702894576983800,2.61498388671875,0.00615270109847188,0.0036456012167036533,-0.014407169073820114
1772702894587034000,2.6250341796875,0.007003314793109894,-0.0015584818320348859,-0.019824039191007614
1772702894597084000,2.635083984375,0.007666974328458309,-0.001743571599945426,-0.016749951988458633
1772702894607134000,2.645134033203125,0.007190534844994545,-0.0013915016315877438,-0.015991216525435448
1772702894617184800,2.655184814453125,0.010665693320333958,0.00004207794336252846,-0.014870825223624706
1772702894627234800,2.66523486328125,0.011494203470647335,0.0010450243717059493,-0.011866779066622257
1772702894637285000,2.67528515625,0.004294081125408411,0.007667240686714649,-0.013113937340676785
1772702894647335000,2.6853349609375,0.0015576828736811876,0.011110708117485046,-0.010430004447698593
1772702894657385000,2.695385009765625,0.003054911969229579,0.01375069934874773,-0.004822185728698969
1772702894667435800,2.705435791015625,0.0009408948244526982,0.005251220893114805,-0.008920257911086082
1772702894677485800,2.71548583984375,-0.00025220136740244925,-0.0019832560792565346,-0.0109474565833807
1772702894687536000,2.7255361328125,-0.0014266553334891796,-0.006725014187395573,-0.004630970768630505
1772702894697586000,2.7355859375,-0.0015225291717797518,-0.012073440477252007,-0.0014282532501965761
1772702894707636000,2.745635986328125,0.0001661812566453591,-0.011947739869356155,0.00018269284919369966
1772702894717686000,2.75568603515625,0.0007262440049089491,-0.0063210129737854,-0.0013137373607605696
1772702894727736800,2.76573681640625,0.0041374871507287025,-0.003239469137042761,-0.0033694314770400524
1772702894737787000,2.775786865234375,0.005313006229698658,-0.0024053670931607485,-0.0014176006661728024
1772702894747837000,2.7858369140625,0.008301871828734875,-0.006588927004486322,-0.000147272803587839
1772702894757887000,2.795886962890625,0.010231598280370235,-0.003368099918588996,-0.0015787219163030386
1772702894767937000,2.80593701171875,0.009210809133946896,-0.007928497157990932,-0.001416002749465406
1772702894777987800,2.81598779296875,0.006645651999861002,-0.007812915369868279,-0.004927114117890596
1772702894788038000,2.826037841796875,0.007129282224923372,-0.00839934404939413,-0.0015694007743149996
1772702894798088000,2.836087890625,0.0038061898667365313,-0.01513074990361929,-0.0035683694295585155
1772702894808138000,2.846137939453125,0.008480570279061794,-0.0234624482691288,-0.007820905186235905
1772702894818188000,2.85618798828125,0.013082512654364109,-0.023260315880179405,-0.008275240659713745
1772702894828238800,2.86623876953125,0.010872621089220047,-0.01787886582314968,-0.00609411159530282
1772702894838289000,2.876288818359375,0.010763431899249554,-0.015682822093367577,-0.0036189695820212364
1772702894848339000,2.8863388671875,0.013187707401812077,-0.017043698579072952,-0.0011150655336678028
1772702894858389000,2.896388916015625,0.009609217755496502,-0.019091403111815453,-0.0033904702868312597
1772702894868439000,2.90643896484375,0.0052413675002753735,-0.018260229378938675,-0.006674946751445532
1772702894878488800,2.91648876953125,0.0034080471377819777,-0.017722271382808685,-0.004649080336093903
1772702894888540000,2.926539794921875,0.005419000051915646,-0.019424565136432648,-0.00708667142316699
1772702894898590000,2.93658984375,0.0013749900972470641,-0.02058490365743637,-0.007911453023552895
1772702894908640000,2.946639892578125,-0.0014652712270617485,-0.015664713457226753,-0.008370582014322281
1772702894918690000,2.95668994140625,-0.0008847020799294114,-0.015440208837389946,-0.003864779369905591
1772702894928739800,2.96673974609375,-0.0008833705214783549,-0.017255419865250587,-0.004898618441075087
1772702894938791000,2.976791015625,-0.0005134574603289366,-0.016199477016925812,-0.0037230991292744875
1772702894948841000,2.986841064453125,-0.0021664814557880163,-0.014510765671730042,0.0005006743012927473
1772702894958891000,2.99689111328125,0.000005060006060375599,-0.01209874078631401,0.0006785734440200031
1772702894968941000,3.006941162109375,0.003433879930526018,-0.007318633142858744,0.007719704881310463
1772702894978990800,3.016990966796875,0.00013502225920092314,-0.007284544408321381,0.011200989596545696
1772702894989042000,3.0270419921875,0.00012064119800925255,-0.003424026072025299,0.012092881835997105
1772702894999092000,3.037092041015625,-0.001115598133765161,0.0012796488590538502,0.013947773724794388
1772702895009142000,3.04714208984375,-0.001163268811069429,-0.0028306739404797554,0.012438826262950897
1772702895019192000,3.057192138671875,0.002686863299459219,-0.004630970768630505,0.010430269874632359
1772702895029241900,3.067241943359375,0.0005685848882421851,-0.005653624422848225,0.013531255535781384
1772702895039293000,3.07729296875,-0.00007776429993100464,-0.003260508179664612,0.0187196247279644
1772702895049343000,3.087343017578125,-0.000222373942960985,-0.006589192897081375,0.018127072602510452
1772702895059393000,3.09739306640625,0.0013784521725028753,-0.003340935567393899,0.013761884532868862
1772702895069443000,3.107443115234375,0.00042317630141042173,-0.0021145499777048826,0.01575579307973385
1772702895079492900,3.117492919921875,-0.00015526228526141495,0.001008539111353457,0.01677871309220791
1772702895089543000,3.12754296875,-0.0012002866715192795,0.003087668912485242,0.01883121207356453
1772702895099593500,3.137593505859375,-0.0015342470724135637,-0.0027292075101286173,0.015864450484514236
1772702895109643500,3.1476435546875,-0.003922037314623594,-0.0052144695073366165,0.017356619238853455
1772702895119693600,3.157693603515625,-0.004002464935183525,-0.003820038167759776,0.013043363578617573
1772702895129743600,3.16774365234375,-0.006825681775808334,-0.008861135691404343,0.007157511543482542
1772702895139793400,3.17779345703125,-0.006842725910246372,-0.005232844967395067,0.010883539915084839
1772702895149844500,3.187844482421875,-0.00523657351732254,-0.005622998345643282,0.010786334984004498
1772702895159894500,3.19789453125,-0.004192614462226629,-0.005627791862934828,0.010153301991522312
1772702895169944600,3.207944580078125,-0.003638144349679351,-0.006400907412171364,0.00812184251844883
1772702895179994600,3.21799462890625,-0.0033417344093322754,-0.00848536379635334,0.010142382234334946
1772702895190044400,3.22804443359375,-0.006134058814495802,-0.005287440028041601,0.00510021997615695
1772702895200095500,3.238095458984375,-0.003918575122952461,-0.005230181850492954,0.005435245577245951
1772702895210145500,3.2481455078125,-0.006515423767268658,-0.00669438811019063,0.005633650813251734
1772702895220195600,3.258195556640625,-0.007731689140200615,-0.005651760380715132,0.005234709475189447
1772702895230245600,3.26824560546875,-0.013288907706737518,0.0009363674325868487,0.004278101958334446
1772702895240295400,3.27829541015625,-0.008902947418391705,0.000660463934764266,0.005260542035102844
1772702895250345500,3.288345458984375,-0.009703760035336018,0.0003147856332361698,0.0068419273011386395
1772702895260396500,3.298396484375,-0.009180182591080666,-0.0003933488915208727,0.005006742663681507
1772702895270446600,3.308446533203125,-0.004088218789547682,0.0005619269795715809,0.006481867749243975
1772702895280496600,3.31849658203125,-0.005062669049948454,0.0017222663154825568,0.009387110359966755
1772702895290546400,3.32854638671875,-0.0069503178820014,0.009319731965661049,0.012073174118995667
1772702895300596500,3.338596435546875,-0.006110356654971838,0.011898204684257507,0.008992696180939674
1772702895310647600,3.3486474609375,-0.004810467828065157,0.014792261645197868,0.0070858728140592575
1772702895320697600,3.358697509765625,-0.004860801622271538,0.012864133343100548,0.00276089902035892
1772702895330747600,3.36874755859375,-0.00740198977291584,0.008737298659980297,-0.00044048685231246054
1772702895340797400,3.37879736328125,-0.010250773280858994,-0.000984836951829493,0.0004069310089107603
1772702895350847500,3.388847412109375,-0.010308030992746353,-0.003192863892763853,0.0002889529860112816
1772702895360898600,3.398898681640625,-0.012407135218381882,-0.009212672710418701,0.0021736719645559788
1772702895370948600,3.408948486328125,-0.008656605146825314,-0.008779110386967659,0.0014620753936469555
1772702895380998700,3.41899853515625,-0.010494719259440899,-0.014298778027296066,0.00008309062832267955
1772702895391048400,3.42904833984375,-0.010456635616719723,-0.012954946607351303,0.0025750105269253254
1772702895401098500,3.439098388671875,-0.007982292212545872,-0.007675496395677328,0.0008349010022357106
1772702895411148500,3.4491484375,-0.005799033213406801,-0.01137036643922329,-0.003766508772969246
1772702895421199600,3.45919970703125,-0.0037531929556280375,-0.019657591357827187,-0.007300789933651686
1772702895431249700,3.469249755859375,-0.0007070692372508347,-0.0249658040702343,-0.008489624597132206
1772702895441299500,3.479299560546875,-0.0030365362763404846,-0.020862137898802757,-0.004867459647357464
1772702895451349500,3.489349609375,-0.0004577973741106689,-0.016282299533486366,-0.0012434299569576979
1772702895461399600,3.499399658203125,0.00467651104554534,-0.012144014239311218,-0.0006311691831797361
1772702895471450600,3.50945068359375,0.004430701024830341,-0.009045959450304508,0.0002948119363281876
1772702895481500700,3.519500732421875,0.0075487298890948296,-0.012404471635818481,-0.0031041805632412434
1772702895491550500,3.529550537109375,0.008637696504592896,-0.015852998942136765,-0.00026498452643863857
1772702895501600500,3.5396005859375,0.00869122613221407,-0.018789399415254593,-0.001582982949912548
1772702895511650600,3.549650634765625,0.01104732509702444,-0.019232816994190216,-0.008734103292226791
1772702895521701600,3.55970166015625,0.005968144163489342,-0.02640630677342415,-0.011663580313324928
1772702895531751400,3.56975146484375,0.004267981741577387,-0.03749837353825569,-0.013756291940808296
1772702895541801500,3.579801513671875,0.003230414353311062,-0.0382525809109211,-0.009288307279348373
1772702895551851500,3.5898515625,0.0037894118577241898,-0.03954154998064041,-0.009866212494671345
1772702895561901600,3.599901611328125,0.0062821307219564915,-0.03051263466477394,-0.011035873554646969
1772702895571951400,3.609951416015625,0.006372944451868534,-0.02539031207561493,-0.008359129540622234
1772702895582002400,3.62000244140625,0.00412390474230051,-0.019268503412604332,-0.006776413414627314
1772702895592052500,3.630052490234375,0.007102384231984615,-0.01008219551295042,-0.0029230855870991945
1772702895602102500,3.6401025390625,0.00983425509184599,-0.009395365603268147,0.0010812433902174234
1772702895612152600,3.650152587890625,0.011750931851565838,-0.005931125953793526,0.0029430591966956854
1772702895622202400,3.660202392578125,0.011169563978910446,-0.0015523566398769617,0.001413339632563293
1772702895632253400,3.67025341796875,0.010017480701208115,0.00036671728594228625,0.00006364954606397077
1772702895642303500,3.680303466796875,0.007984156720340252,0.0004964132094755769,-0.0023361248895525932
1772702895652353500,3.690353515625,0.007385744713246822,-0.0046541402116417885,-0.003900199430063367
1772702895662403600,3.700403564453125,0.007653392385691404,-0.007672833278775215,-0.0030415961518883705
1772702895672453400,3.710453369140625,0.0057199373841285706,-0.006698648910969496,-0.0013986921403557062
1772702895682504400,3.72050439453125,0.0037265613209456205,-0.0073175677098333836,0.0006815029191784561
1772702895692554500,3.730554443359375,0.004780640359967947,-0.010468886233866215,0.0005328985280357301
1772702895702604500,3.7406044921875,0.007474960293620825,-0.005087436642497778,0.0021438447292894125
1772702895712654600,3.750654541015625,0.0034964641090482473,-0.0014511564513668418,0.0027920580469071865
1772702895722704400,3.760704345703125,0.0018170748371630907,0.003043460426852107,0.004833370912820101
1772702895732754400,3.77075439453125,0.0013100089272484183,0.004258128348737955,0.0019925772212445736
1772702895742805500,3.780805419921875,0.0005241101025603712,0.009206281043589115,0.002810966456308961
1772702895752855600,3.79085546875,-0.00011771172285079956,0.01571185141801834,0.004114849958568811
1772702895762905600,3.800905517578125,0.0016993631143122911,0.01618163287639618,0.004370247479528189
1772702895772955400,3.810955322265625,-0.0007408913807012141,0.016352342441678047,0.002968359272927046
1772702895783005400,3.82100537109375,-0.0004463458026293665,0.016596287488937378,0.003922836389392614
1772702895793056500,3.831056396484375,-0.004412325099110603,0.017948107793927193,0.0037404096219688654
1772702895803106600,3.8411064453125,-0.004739094991236925,0.018685802817344666,0.0007510114228352904
1772702895813156600,3.851156494140625,-0.006537261418998241,0.02297802083194256,-0.0010250506456941366
1772702895823206400,3.861206298828125,-0.0057284594513475895,0.02455168217420578,-0.0010101370280608535
1772702895833256400,3.87125634765625,-0.006085323169827461,0.02586941421031952,-0.0030360035598278046
1772702895843306500,3.881306396484375,-0.0051803807727992535,0.029998645186424255,-0.004172108136117458
1772702895853357600,3.891357666015625,-0.006449909880757332,0.03136751055717468,-0.007443801499903202
1772702895863407600,3.90140771484375,-0.006523945834487677,0.032108135521411896,-0.013514476828277111
1772702895873457400,3.91145751953125,-0.009125853888690472,0.03206099569797516,-0.013771738857030869
1772702895883507500,3.921507568359375,-0.010360761545598507,0.02997494302690029,-0.016340358182787895
1772702895893557500,3.9315576171875,-0.012532569468021393,0.02323048748075962,-0.02183659002184868
1772702895903608600,3.941608642578125,-0.009829461574554443,0.021752167493104935,-0.024111993610858917
1772702895913658600,3.95165869140625,-0.017044497653841972,0.019870378077030182,-0.023427827283740044
1772702895923708400,3.96170849609375,-0.015223161317408085,0.013320598751306534,-0.0276180449873209
1772702895933758500,3.971758544921875,-0.017316672950983047,0.00774740194901824,-0.029197033494710922
1772702895943808500,3.98180859375,-0.016053535044193268,0.010595652274787426,-0.026433471590280533
1772702895953859600,3.991859619140625,-0.014275342226028442,0.014301175251603127,-0.027102191001176834
1772702895963909600,4.00190966796875,-0.018199510872364044,0.015537414699792862,-0.026809243485331535
1772702895973959400,4.01195947265625,-0.014210094697773457,0.02033376693725586,-0.02317855693399906
1772702895984009500,4.022009521484375,-0.01437920518219471,0.018794460222125053,-0.02245177887380123
1772702895994059500,4.0320595703125,-0.010909905657172203,0.016977917402982712,-0.022166555747389793
1772702896004110600,4.042110595703125,-0.010182064026594162,0.00806005671620369,-0.01732625998556614
1772702896014160400,4.052160400390625,-0.006150304339826107,0.006539658177644014,-0.018732141703367233
1772702896024210400,4.06221044921875,-0.006918360013514757,0.006999586243182421,-0.01263856329023838
1772702896034260500,4.072260498046875,-0.004345746245235205,0.011935755610466003,-0.005922071170061827
1772702896044310500,4.082310546875,-0.00461552431806922,0.015357118099927902,-0.0010466222884133458
1772702896054360300,4.0923603515625,-0.007552458439022303,0.01907009817659855,0.006076801102608442
1772702896064411400,4.102411376953125,-0.008221977390348911,0.016939036548137665,0.014810903929173946
1772702896074461400,4.11246142578125,-0.005302353762090206,0.011786085553467274,0.018439993262290955
1772702896084511500,4.122511474609375,-0.004110855516046286,0.005961486138403416,0.023145798593759537
1772702896094562300,4.132562255859375,-0.004540956113487482,-0.0023457121569663286,0.024464063346385956
1772702896104612400,4.1426123046875,-0.006364955101162195,0.002123870886862278,0.02834855020046234
1772702896114663400,4.152663330078125,-0.0038362834602594376,0.006262955721467733,0.03411030024290085
1772702896124713200,4.162713134765625,-0.005745503585785627,0.016518522053956985,0.034634675830602646
1772702896134763300,4.17276318359375,-0.007638478651642799,0.02213805913925171,0.032710008323192596
1772702896144813300,4.182813232421875,-0.009154083207249641,0.023142337799072266,0.028015920892357826
1772702896154863400,4.19286328125,-0.002168345730751753,0.017185378819704056,0.026030002161860466
1772702896164913400,4.202913330078125,-0.007690942846238613,0.02105282060801983,0.021706894040107727
1772702896174964200,4.212964111328125,-0.017837852239608765,0.02539856731891632,0.016879647970199585
1772702896185014300,4.22301416015625,-0.015858326107263565,0.01936624012887478,0.019467974081635475
1772702896195064300,4.233064208984375,-0.017128121107816696,0.012297945097088814,0.014182398095726967
1772702896205114400,4.2431142578125,-0.01528521254658699,0.008115983568131924,0.006889065261930227
1772702896215164200,4.2531640625,-0.015916116535663605,0.0006141249323263764,0.003439472522586584
1772702896225215200,4.26321533203125,-0.013104083947837353,0.00026551715563982725,0.002153964713215828
1772702896235265300,4.273265380859375,-0.01386894378811121,-0.0017771273851394653,-0.00041811628034338355
1772702896245315300,4.2833154296875,-0.013163206167519093,0.007518103811889887,-0.001985120354220271
1772702896255365400,4.293365478515625,-0.010282731615006924,0.012887835502624512,0.00041199102997779846
1772702896265415200,4.303415283203125,-0.011383947916328907,0.01786954514682293,-0.004311125259846449
1772702896275466200,4.31346630859375,-0.010408698581159115,0.02046452835202217,0.0012367720482870936
1772702896285516300,4.323516357421875,-0.013725931756198406,0.02310105785727501,-0.000984570593573153
1772702896295566300,4.33356640625,-0.011006046086549759,0.028501681983470917,-0.0027049726340919733
1772702896305616400,4.343616455078125,-0.014473214745521545,0.028556810691952705,-0.00538384635001421
1772702896315666200,4.353666259765625,-0.017168333753943443,0.03098561242222786,-0.009581787511706352
1772702896325716200,4.36371630859375,-0.014211692847311497,0.030891869217157364,-0.013593040406703949
1772702896335767300,4.373767333984375,-0.014304370619356632,0.03924673795700073,-0.017055416479706764
1772702896345817300,4.3838173828125,-0.00948138628154993,0.040164198726415634,-0.02056732587516308
1772702896355867400,4.393867431640625,-0.009577792137861252,0.036972131580114365,-0.01684316247701645
1772702896365917200,4.403917236328125,-0.009622267447412014,0.037452567368745804,-0.01769963465631008
1772702896375967200,4.41396728515625,-0.008206264115869999,0.040698692202568054,-0.009181514382362366
1772702896386018300,4.424018310546875,-0.007766576483845711,0.03905365988612175,-0.004544417839497328
1772702896396068400,4.434068359375,-0.003932157531380653,0.04198606684803963,-0.003254915354773402
1772702896406118400,4.444118408203125,-0.0024437166284769773,0.04134797304868698,-0.003291134489700198
1772702896416168200,4.454168212890625,-0.002130528911948204,0.037402231246232986,0.003069559345021844
1772702896426218200,4.46421826171875,-0.0018881811993196607,0.025524800643324852,0.007367368787527084
1772702896436268300,4.474268310546875,-0.0007379619055427611,0.02160329557955265,0.015354189090430737
1772702896446319400,4.4843193359375,-0.004899417515844107,0.018865566700696945,0.013610350899398327
1772702896456369400,4.494369384765625,-0.0025691515766084194,0.008290420286357403,0.014626612886786461
1772702896466419200,4.504419189453125,-0.003962250892072916,0.0013699301052838564,0.014624216593801975
1772702896476469200,4.51446923828125,-0.006886668037623167,0.0009882990270853043,0.014848454855382442
1772702896486519300,4.524519287109375,-0.0068147629499435425,-0.002231462625786662,0.018066884949803352
1772702896496570400,4.5345703125,-0.0027478495612740517,-0.00307568465359509,0.019651731476187706
1772702896506620400,4.544620361328125,-0.0017001620726659894,0.0005691175465472043,0.018810972571372986
1772702896516670200,4.554670166015625,-0.0002740392810665071,0.005138303153216839,0.013657488860189915
1772702896526720300,4.56472021484375,0.003963849041610956,0.003139067906886339,0.009702161885797977
1772702896536770300,4.574770263671875,0.00019334549142513424,0.008261125534772873,0.011775699444115162
1772702896546820400,4.5848203125,0.0019321233266964555,0.002993126632645726,0.007634750101715326
1772702896556871400,4.594871337890625,0.006654973141849041,-0.0004370247188489884,0.005520466715097427
1772702896566921200,4.604921142578125,0.007196127437055111,-0.008669921196997166,0.0037830201908946037
1772702896576971300,4.61497119140625,0.005200620740652084,-0.013252422213554382,0.006687996443361044
1772702896587021300,4.625021240234375,0.00441019469872117,-0.008749016560614109,0.011475294828414917
1772702896597071400,4.6350712890625,0.006237655878067017,-0.009674731642007828,0.013310212641954422
1772702896607122200,4.6451220703125,0.0068214209750294685,-0.008256598375737667,0.008845689706504345
1772702896617172200,4.655172119140625,0.004865861497819424,-0.005940447095781565,0.0041582598350942135
1772702896627222300,4.66522216796875,0.009276854805648327,-0.0029286781791597605,0.0038426751270890236
1772702896637272300,4.675272216796875,0.010484864935278893,0.004761732183396816,0.00823955424129963
1772702896647322400,4.685322265625,0.006581469904631376,0.003959321416914463,0.0030780816450715065
1772702896657373200,4.695373291015625,0.007896006107330322,0.008065915666520596,0.0036426717415452003
1772702896667423200,4.70542333984375,0.008266451768577099,0.005073321983218193,0.0008676578872837126
1772702896677473300,4.715473388671875,0.009037436917424202,0.005175853613764048,-0.0011984225129708648
1772702896687523300,4.7255234375,0.01047288067638874,0.006631270982325077,0.0015150723047554493
1772702896697573000,4.735572998046875,0.011553059332072735,0.013970943167805672,-0.0035872780717909336
1772702896707623200,4.745623046875,0.007984423078596592,0.013801299966871738,-0.006791327148675919
1772702896717674200,4.75567431640625,0.00492098880931735,0.018005365505814552,-0.008044078014791012
1772702896727724300,4.765724365234375,0.003147856332361698,0.01600266806781292,-0.008237956091761589
1772702896737774300,4.7757744140625,0.005030977539718151,0.015339274890720844,-0.009088569320738316
1772702896747824000,4.78582421875,0.006090649403631687,0.022459769621491432,-0.012063320726156235
1772702896757874200,4.795874267578125,0.005428587552160025,0.01774490810930729,-0.010934673249721527
1772702896767925200,4.80592529296875,0.006146043073385954,0.02040940150618553,-0.014535533264279366
1772702896777975300,4.815975341796875,0.00698041170835495,0.023391874507069588,-0.015797605738043785
1772702896788025300,4.826025390625,0.007768440991640091,0.022909043356776237,-0.01643303595483303
1772702896798075100,4.8360751953125,0.006607835181057453,0.017602428793907166,-0.013095562346279621
1772702896808125200,4.846125244140625,0.0029023129027336836,0.009400160051882267,-0.016259130090475082
1772702896818175200,4.85617529296875,0.0025800704024732113,0.005280782002955675,-0.02076173759996891
1772702896828226300,4.866226318359375,0.0019006980583071709,0.001859685406088829,-0.023901337757706642
1772702896838276400,4.8762763671875,0.007123423274606466,-0.0035167040769010782,-0.021640580147504807
1772702896848326100,4.886326171875,0.005842975340783596,0.0022530341520905495,-0.021026987582445145
1772702896858376200,4.896376220703125,0.006323409732431173,0.007407316006720066,-0.022005166858434677
1772702896868426200,4.90642626953125,0.005412076134234667,0.013737649656832218,-0.02232581190764904
1772702896878477300,4.916477294921875,0.007798534352332354,0.009899768978357315,-0.020562799647450447
1772702896888527400,4.92652734375,0.0035984632559120655,0.011197793297469616,-0.02486087568104267
1772702896898577200,4.9365771484375,0.0033896714448928833,0.008006260730326176,-0.01835477165877819
1772702896908627200,4.946627197265625,0.00007190534961409867,0.003079146845266223,-0.018969962373375893
1772702896918677200,4.95667724609375,0.0020501012913882732,0.003492735791951418,-0.021576398983597755
1772702896928727300,4.966727294921875,-0.0007014766451902688,0.0037465349305421114,-0.018084993585944176
1772702896938778400,4.9767783203125,0.0009092031978070736,0.009379653260111809,-0.014405038207769394
1772702896948828200,4.986828125,-0.00029401297797448933,0.013189838267862797,-0.008258462883532047
1772702896958878200,4.996878173828125,0.001448759576305747,0.028085963800549507,-0.0032770195975899696
1772702896968928300,5.00692822265625,0.005918608978390694,0.039983902126550674,-0.0032858080230653286
1772702896978978300,5.016978271484375,0.002749181119725108,0.036605414003133774,-0.004596349783241749
1772702896989029400,5.027029296875,0.0026407905388623476,0.03098800964653492,-0.00282082031480968
1772702896999079200,5.0370791015625,0.005546565633267164,0.025716815143823624,-0.005307946354150772
1772702897009129200,5.047129150390625,0.004194744862616062,0.024100009351968765,-0.0016937704058364034
1772702897019179300,5.05717919921875,0.003406449221074581,0.025963157415390015,-0.00019520970818120986
1772702897029229300,5.067229248046875,0.0026202842127531767,0.02203552797436714,0.003457848448306322
1772702897039280400,5.0772802734375,0.003370496677234769,0.022839535027742386,0.00044581317342817783
1772702897049330200,5.087330078125,0.005636047571897507,0.022912239655852318,-0.0008258462767116725
1772702897059380200,5.097380126953125,0.006074936594814062,0.01683783531188965,-0.0004170510219410062
1772702897069430300,5.10743017578125,0.006043777801096439,0.013482785783708096,0.002293780678883195
1772702897079480300,5.117480224609375,0.008017712272703648,0.011685151606798172,-0.00013076121103949845
1772702897089530000,5.127530029296875,0.009485913440585136,0.007258179131895304,-0.0022362563759088516
1772702897099581000,5.137580810546875,0.00520647969096899,0.009468070231378078,-0.0018519621808081865
1772702897109631000,5.147630859375,0.0059540290385484695,0.012473447248339653,-0.005854426883161068
1772702897119681000,5.157680908203125,0.0006913566030561924,0.012021775357425213,-0.010441722348332405
1772702897129730800,5.167730712890625,-0.0009329052991233766,0.006298642139881849,-0.017851168289780617
1772702897139781000,5.177781005859375,-0.0008884305134415627,0.008865396492183208,-0.022848058491945267
1772702897149832000,5.18783203125,-0.0015241270884871483,0.007709585130214691,-0.02593040093779564
1772702897159882000,5.197882080078125,-0.00333161442540586,0.005613144487142563,-0.023134613409638405
1772702897169932000,5.20793212890625,-0.0032708945218473673,0.007348726503551006,-0.02166827768087387
1772702897179981800,5.21798193359375,-0.0021915151737630367,0.011506187729537487,-0.024297349154949188
1772702897190032100,5.2280322265625,-0.004722317215055227,0.0049129994586110115,-0.019771574065089226
1772702897200082200,5.238082275390625,-0.0025092302821576595,0.009827064350247383,-0.019639480859041214
1772702897210133000,5.248133056640625,-0.003568103304132819,0.011152519844472408,-0.014565893448889256
1772702897220183000,5.25818310546875,-0.0026756778825074434,0.013994911685585976,-0.0031435952987521887
1772702897230232800,5.26823291015625,0.00037444045301526785,0.016835704445838928,0.002267415402457118
1772702897240283100,5.278283203125,-0.0036360137164592743,0.025787655264139175,0.0071164988912642
1772702897250333200,5.288333251953125,-0.0049494849517941475,0.026395387947559357,0.008326106704771519
1772702897260384000,5.298384033203125,-0.00746004655957222,0.02556421607732773,0.007288006599992514
1772702897270434000,5.30843408203125,-0.008961803279817104,0.027571173384785652,0.011877698823809624
1772702897280483000,5.318483154296875,-0.0075665730983018875,0.024468591436743736,0.01392939779907465
1772702897290533000,5.328533203125,-0.008154598996043205,0.02527020312845707,0.01629961095750332
1772702897300583200,5.338583251953125,-0.007760184817016125,0.019159846007823944,0.014366422779858112
1772702897310634200,5.34863427734375,-0.007671235594898462,0.013875601813197136,0.015355786308646202
1772702897320684000,5.35868408203125,0.001398159540258348,0.009387110359966755,0.01350755337625742
1772702897330734000,5.368734130859375,-0.002438656520098448,0.021274928003549576,0.016824252903461456
1772702897340784000,5.3787841796875,-0.006810768041759729,0.021407287567853928,0.013258813880383968
1772702897350834200,5.388834228515625,-0.004806472919881344,0.0236430112272501,0.012366654351353645
1772702897360885200,5.39888525390625,-0.0012170645641162992,0.01679708994925022,0.011619904078543186
1772702897370935000,5.40893505859375,-0.0022125542163848877,0.01793399266898632,0.010245713405311108
1772702897380985000,5.418985107421875,-0.003263970138505101,0.016094546765089035,0.003915112931281328
1772702897391035100,5.42903515625,-0.0037060549948364496,0.0164807066321373,0.002410160843282938
1772702897401085200,5.439085205078125,-0.0009246495319530368,0.016824519261717796,0.0032921996898949146
1772702897411135000,5.449135009765625,-0.004253600724041462,0.023812122642993927,0.006433132104575634
1772702897421186000,5.45918603515625,-0.008945291861891747,0.021885057911276817,0.002697782125324011
1772702897431236000,5.469236083984375,-0.010657171718776226,0.02202806994318962,0.003552923211827874
1772702897441286100,5.4792861328125,-0.00923317950218916,0.02676929533481598,-0.0004013383586425334
1772702897451336200,5.489336181640625,-0.01152775902301073,0.026546921581029892,0.0015518239233642817
1772702897461386000,5.499385986328125,-0.012239355593919754,0.02371092140674591,0.0008085357258096337
1772702897471437000,5.50943701171875,-0.011373561806976795,0.026338396593928337,-0.004416053649038076
1772702897481487000,5.519487060546875,-0.00817910023033619,0.022759906947612762,-0.002176867797970772
1772702897491537200,5.529537109375,-0.006365487817674875,0.02028157003223896,0.002017610939219594
1772702897501587200,5.539587158203125,-0.006481335032731295,0.020842431113123894,0.0044232443906366825
1772702897511637000,5.549636962890625,-0.003425091505050659,0.022606775164604187,0.005630987696349621
1772702897521687000,5.55968701171875,-0.0023515713401138783,0.028780782595276833,0.008790828287601471
1772702897531738000,5.569738037109375,-0.00007297061529243365,0.025799106806516647,0.005362008698284626
1772702897541788200,5.5797880859375,0.002805640222504735,0.020799821242690086,0.0037912761326879263
1772702897551838200,5.589838134765625,0.010270747356116772,0.02051832526922226,0.008713330142199993
1772702897561888000,5.599887939453125,0.0052173989824950695,0.022161761298775673,0.01079592201858759
1772702897571938000,5.60993798828125,-0.0020154803059995174,0.020556673407554626,0.010159959085285664
1772702897581989000,5.619989013671875,-0.0007792409160174429,0.011144796386361122,0.0027385284192860126
1772702897592039200,5.6300390625,-0.0012093414552509785,0.0029816750902682543,0.0023995081428438425
1772702897602089200,5.640089111328125,-0.0022125542163848877,-0.005853894166648388,0.0014809839194640517
1772702897612139000,5.650138916015625,0.0019153454340994358,-0.004421912599354982,-0.00022849922243040055
1772702897622189000,5.66018896484375,0.0037028591614216566,-0.005304217804223299,-0.001401355373673141
1772702897632240000,5.670240234375,0.003133208956569433,0.0014620753936469555,-0.0006514092092402279
1772702897642290200,5.680290283203125,0.0031531827989965677,0.004018976353108883,0.0016341155860573053
1772702897652341200,5.69034130859375,0.005281314719468355,0.006656304933130741,0.002746251644566655
1772702897662391000,5.70039111328125,0.008464591577649117,0.005044293589890003,0.0032413334120064974
1772702897672441000,5.710441162109375,0.007334079127758741,-0.000015978966985130683,0.00007057376933516935
1772702897682491100,5.7204912109375,0.005405418109148741,0.0006476807757280767,0.0001227717293659225
1772702897692541200,5.730541259765625,0.005169461946934462,-0.000922519015148282,-0.0016636766958981752
1772702897702592300,5.74059228515625,0.0068115671165287495,-0.005715409759432077,-0.0027198863681405783
1772702897712642000,5.75064208984375,0.0041497377678751945,-0.0062371231615543365,-0.005067196674644947
1772702897722692000,5.760692138671875,0.00341523764654994,-0.0065199509263038635,-0.004346545320004225
1772702897732742100,5.7707421875,0.0037787591572850943,-0.0034413367975503206,-0.003108974313363433
1772702897742792200,5.780792236328125,0.002968891989439726,-0.0007054713787510991,-0.00042823629337362945
1772702897752843300,5.79084326171875,0.006592122372239828,0.001615207176655531,-0.002709500025957823
1772702897762893000,5.80089306640625,0.009223858825862408,0.004518318921327591,-0.0010921623324975371
1772702897772943000,5.810943115234375,0.013605823740363121,0.006219279952347279,0.0023971113841980696
1772702897782993200,5.8209931640625,0.017797373235225677,0.003099919529631734,0.00010253170330543071
1772702897793043200,5.831043212890625,0.019831495359539986,0.004800081718713045,-0.0013409015955403447
1772702897803093000,5.841093017578125,0.032649822533130646,0.003349990351125598,0.0024700819049030542
1772702897813144000,5.85114404296875,0.022343387827277184,0.0020823257509618998,-0.003477822057902813
1772702897823194000,5.861194091796875,0.01697205938398838,0.0025632926262915134,-0.015400794334709644
1772702897833244200,5.871244140625,0.015296398662030697,0.000988032785244286,-0.015801599249243736
1772702897843294200,5.881294189453125,0.010513094253838062,-0.002770486520603299,-0.015536615625023842
1772702897853344000,5.891343994140625,0.011334147304296494,-0.010783405043184757,-0.016769392415881157
1772702897863395000,5.90139501953125,0.009037703275680542,-0.015358716249465942,-0.019333217293024063
1772702897873445000,5.911445068359375,0.009710684418678284,-0.015416506677865982,-0.02136813849210739
1772702897883495200,5.9214951171875,0.009898703545331955,-0.020055733621120453,-0.02377776801586151
1772702897893545200,5.931545166015625,0.006518353242427111,-0.019032813608646393,-0.026016952469944954
1772702897903595000,5.941594970703125,0.005616073962301016,-0.020894363522529602,-0.028436435386538506
1772702897913645000,5.95164501953125,0.003946272190660238,-0.01805649884045124,-0.023786023259162903
1772702897923696000,5.961696044921875,0.002698581200093031,-0.018502844497561455,-0.01836462691426277
1772702897933746200,5.97174609375,0.003946804907172918,-0.015105982311069965,-0.017908159643411636
1772702897943796200,5.981796142578125,0.002788329729810357,-0.015777098014950752,-0.01209980621933937
1772702897953846000,5.991845947265625,0.002764627570286393,-0.012556804344058037,-0.010300574824213982
1772702897963896000,6.00189599609375,0.0012471582740545273,-0.010805776342749596,-0.00310524576343596
1772702897973947100,6.011947021484375,0.002728142309933901,-0.018486598506569862,-0.0017036241479218006
1772702897983997200,6.0219970703125,0.001719603082165122,-0.019175026565790176,-0.0006697850185446441
1772702897994047200,6.032047119140625,-0.00026738137239590287,-0.009008674882352352,-0.0006492786924354732
1772702898004097000,6.042096923828125,-0.0011057445080950856,-0.002734267385676503,-0.0035031221341341734
1772702898014147000,6.05214697265625,0.0015683355741202831,-0.0060022324323654175,0.000934236915782094
1772702898024197000,6.062197021484375,-0.0017238641157746315,-0.0062421830371022224,-0.00043569316039793193
1772702898034248200,6.072248291015625,0.0013225257862359285,-0.007940481416881084,0.0005728459218516946
1772702898044298000,6.082298095703125,-0.0011105381418019533,-0.010759703814983368,0.0005941512063145638
1772702898054348000,6.09234814453125,-0.005694637540727854,-0.006418484263122082,0.0027321369852870703
1772702898064398000,6.102398193359375,-0.005421929527074099,-0.0005411543534137309,0.012313923798501492
1772702898074448100,6.1124482421875,-0.005418733693659306,-0.0019326560432091355,0.01549347210675478
1772702898084499200,6.122499267578125,-0.006006759591400623,-0.004337224178016186,0.007272293791174889
1772702898094549200,6.13254931640625,-0.00475400872528553,-0.0017230651574209332,0.00944782979786396
1772702898104599300,6.142599365234375,-0.001975532853975892,-0.005594768561422825,0.017466608434915543
1772702898114649000,6.152649169921875,-0.00523737259209156,0.001386441639624536,0.020718861371278763
1772702898124699100,6.16269921875,-0.005873335525393486,0.008788165636360645,0.02636582776904106
1772702898134749200,6.172749267578125,-0.007366836071014404,0.011952799744904041,0.026986876502633095
1772702898144800300,6.18280029296875,-0.008274175226688385,0.014897190034389496,0.03062049299478531
1772702898154850300,6.192850341796875,-0.01266652625054121,0.013224459253251553,0.02899942733347416
1772702898164900000,6.202900146484375,-0.01197170838713646,0.009225189685821533,0.030224481597542763
1772702898174950100,6.2129501953125,-0.013281184248626232,0.004691690672188997,0.023729031905531883
1772702898185000200,6.223000244140625,-0.014153103344142437,0.0026783409994095564,0.024099476635456085
1772702898195051300,6.23305126953125,-0.012072907760739326,0.0028724854346364737,0.023568175733089447
1772702898205101300,6.243101318359375,-0.009521866217255592,0.0012096078135073185,0.022456573322415352
1772702898215151000,6.253151123046875,-0.012011389248073101,0.011609784327447414,0.017597636207938194
1772702898225201200,6.263201171875,-0.010698450729250908,0.011440940201282501,0.012508600950241089
1772702898235251200,6.273251220703125,-0.009828129783272743,0.006322344299405813,0.015242336317896843
1772702898245302300,6.28330224609375,-0.008103466592729092,0.007366569712758064,0.007844340987503529
1772702898255352000,6.29335205078125,-0.006244047544896603,0.0015169365797191858,0.0027134947013109922
1772702898265402000,6.303402099609375,-0.005087703000754118,0.00022317290131468326,-0.0019057580502703786
1772702898275452200,6.3134521484375,-0.00440939562395215,-0.004355067387223244,-0.0065196845680475235
1772702898285502200,6.323502197265625,-0.0036754286848008633,-0.002086320426315069,-0.006171077024191618
1772702898295552000,6.333552001953125,-0.0041193775832653046,-0.0012082761386409402,-0.006416886579245329
1772702898305603000,6.34360302734375,-0.0017869811272248626,-0.00404534162953496,-0.003707120195031166
1772702898315653000,6.353653076171875,-0.001678057829849422,-0.0015909724170342088,-0.006777212489396334
1772702898325703200,6.363703125,0.0006649913266301155,0.0041547976434230804,-0.0019038938917219639
1772702898335753200,6.373753173828125,-0.0012431635987013578,0.004608866758644581,0.0010764497565105557
1772702898345803000,6.383802978515625,0.001272990950383246,0.002002430846914649,-0.0001512675517005846
1772702898355854000,6.39385400390625,-0.0013480921043083072,0.007880560122430325,0.0035473306197673082
1772702898365904100,6.403904052734375,0.0003808320325333625,0.014143249951303005,0.0080296965315938
1772702898375954200,6.4139541015625,0.0024881914723664522,0.013888385146856308,0.007677893154323101
1772702898386004200,6.424004150390625,0.002142513170838356,0.011988752521574497,0.0010548781137913465
1772702898396054000,6.434053955078125,-0.002697515767067671,0.019155584275722504,0.004471180960536003
1772702898406104000,6.44410400390625,-0.002347310073673725,0.017586451023817062,0.005897836294025183
1772702898416155100,6.454155029296875,-0.0036557212006300688,0.015368036925792694,0.008892294950783253
1772702898426205200,6.464205078125,-0.0037681066896766424,0.010297378525137901,0.006816360633820295
1772702898436255200,6.474255126953125,-0.00008921589324017987,0.012440957129001617,0.0032437301706522703
1772702898446305000,6.484304931640625,-0.0041702440939843655,0.008520517498254776,0.000594950164668262
1772702898456355000,6.49435498046875,-0.004322044085711241,-0.0002769687562249601,0.0007709851488471031
1772702898466406100,6.50440625,-0.0016698020044714212,0.007669637445360422,0.0003920173039659858
1772702898476456200,6.514456298828125,-0.0008016114588826895,0.02046612650156021,0.0012801815755665302
1772702898486506200,6.52450634765625,-0.003129746997728944,0.022487731650471687,0.005900233518332243
1772702898496556000,6.53455615234375,-0.0038285604678094387,0.02486060932278633,0.0031284152064472437
1772702898506606000,6.544606201171875,-0.0030298782512545586,0.034870367497205734,0.005634982604533434
1772702898516656000,6.55465625,-0.0019883159548044205,0.03217897564172745,0.008347411639988422
1772702898526707200,6.564707275390625,-0.004294081125408411,0.0276862233877182,0.0023790018167346716
1772702898536757200,6.57475732421875,-0.007396929897367954,0.018252773210406303,-0.005505552981048822
1772702898546807000,6.58480712890625,-0.008674981072545052,0.0031457259319722652,-0.0037835529074072838
1772702898556857000,6.594857177734375,-0.010750914923846722,-0.010232663713395596,-0.00812264159321785
1772702898566907100,6.6049072265625,-0.013058810494840145,-0.001529187080450356,-0.010235060937702656
1772702898576958200,6.614958251953125,-0.0070581757463514805,0.014575480483472347,-0.006295446306467056
1772702898587008300,6.62500830078125,0.0008793757879175246,0.08356732875108719,0.14704351127147675
1772702898597058000,6.63505810546875,-0.023016102612018585,0.051468249410390854,0.17121382057666779
1772702898607108000,6.645108154296875,-0.0051873051561415195,0.01306200586259365,-0.016079368069767952
1772702898617158100,6.655158203125,0.003172357566654682,-0.015577095560729504,-0.09984830021858215
1772702898627208200,6.665208251953125,-0.004436559975147247,-0.01655101403594017,-0.03188815712928772
1772702898637259300,6.67525927734375,-0.022405972704291344,-0.04874996095895767,-0.0008998821140266955
1772702898647309000,6.68530908203125,-0.01452621165663004,-0.029561087489128113,-0.052267998456954956
1772702898657359000,6.695359130859375,0.003882356220856309,0.03569700941443443,-0.07011677324771881
1772702898667409200,6.7054091796875,0.0022096247412264347,0.06344235688447952,-0.01600000448524952
1772702898677459200,6.715459228515625,-0.006332730874419212,0.023388413712382317,0.03404638543725014
1772702898687510000,6.725510009765625,-0.009365006349980831,-0.011348527856171131,0.006385727785527706
1772702898697560000,6.73556005859375,-0.0047031426802277565,-0.006924485322088003,-0.03253716975450516
1772702898707610000,6.745610107421875,-0.005805158521980047,0.0017627463676035404,-0.02028157003223896
1772702898717660200,6.75566015625,-0.01323830708861351,-0.00814980547875166,0.001710548298433423
1772702898727710200,6.765710205078125,-0.016213323920965195,-0.0037947380915284157,0.003136138431727886
1772702898737760000,6.775760009765625,-0.01022813655436039,0.00894129741936922,-0.0007680556736886501
1772702898747811000,6.78581103515625,-0.009975668974220753,0.02141927182674408,0.0009257147903554142
1772702898757861000,6.795861083984375,-0.00996315199881792,0.028500083833932877,0.004433630499988794
1772702898767911200,6.8059111328125,-0.007726096548140049,0.023482423275709152,0.0032780850306153297
1772702898777961000,6.8159609375,-0.006564425770193338,0.02008955553174019,0.005929261911660433
1772702898788011000,6.826010986328125,-0.006010754499584436,0.018033595755696297,0.00498144282028079
1772702898798062000,6.83606201171875,-0.008302138186991215,0.020503943786025047,0.004886900540441275
1772702898808112000,6.846112060546875,-0.008445150218904018,0.015201057307422161,0.005101551301777363
1772702898818162200,6.856162109375,-0.009513077326118946,0.023141006007790565,0.004054929129779339
1772702898828212000,6.8662119140625,-0.011490740813314915,0.026373816654086113,0.006679740734398365
1772702898838262000,6.876261962890625,-0.010625479742884636,0.01938301883637905,0.006351905409246683
1772702898848312000,6.88631201171875,-0.01296506728976965,0.013557620346546173,0.005195028148591518
1772702898858363100,6.896363037109375,-0.011347996070981026,0.013046293519437313,0.0007723167072981596
1772702898868413200,6.9064130859375,-0.012375709600746632,0.016211725771427155,0.002234125742688775
1772702898878463000,6.916462890625,-0.012930446304380894,0.015778962522745132,0.0035353463608771563
1772702898888513000,6.926512939453125,-0.011845740489661694,0.019390475004911423,0.005086371209472418
1772702898898563000,6.93656298828125,-0.0112222945317626,0.026339195668697357,0.0073298183269798756
1772702898908614100,6.9466142578125,-0.006573214195668697,0.034325215965509415,0.004172640852630138
1772702898918664200,6.956664306640625,-0.006328735966235399,0.027765318751335144,0.005871205125004053
1772702898928714000,6.9667138671875,-0.005961752496659756,0.019000057131052017,0.0001579254458192736
1772702898938764000,6.976763916015625,-0.007466704584658146,0.010756507515907288,-0.002243180526420474
1772702898948814000,6.98681396484375,-0.007162305526435375,0.006715693045407534,-0.005690376274287701
1772702898958864100,6.996864013671875,-0.005886118393391371,0.006278135813772678,-0.008717059157788754
1772702898968915200,7.006915283203125,-0.005151086021214724,0.005108475685119629,-0.00746271014213562
1772702898978965000,7.016965087890625,-0.005269064102321863,0.0085439532995224,-0.008953015320003033
1772702898989015000,7.02701513671875,-0.0007070692372508347,0.006662430241703987,-0.01503966934978962
1772702898999065000,7.037065185546875,-0.0005850964807905257,0.008754342794418335,-0.016352076083421707
1772702899009115100,7.047115234375,0.0008705873624421656,0.0082102594897151,-0.011725631542503834
1772702899019166200,7.057166259765625,-0.001454884884878993,0.002823749789968133,-0.011679026298224926
1772702899029216000,7.067216064453125,-0.00046924897469580173,0.004069043789058924,-0.013391438871622086
1772702899039266000,7.07726611328125,0.0013393036788329482,0.007191067561507225,-0.01221565343439579
1772702899049316000,7.087316162109375,-0.00031798143754713237,0.00965928565710783,-0.00717642018571496
1772702899059366100,7.0973662109375,0.002805906580761075,0.0097463708370924,-0.005893575493246317
1772702899069416000,7.107416015625,0.00561128044500947,0.007842476479709148,-0.00270657055079937
1772702899079467000,7.117467041015625,0.003937217406928539,0.010065949521958828,-0.006874683778733015
1772702899089517000,7.12751708984375,0.003406449221074581,0.013952833600342274,-0.0019827233627438545
1772702899099566800,7.13756689453125,0.0017084177816286683,0.01829751394689083,-0.0006146575906313956
1772702899109617000,7.147616943359375,0.0007717840489931405,0.01263776421546936,0.002582201035693288
1772702899119666700,7.157666748046875,-0.003665308468043804,0.01254215743392706,0.00296250032261014
1772702899129717800,7.1677177734375,-0.00043569316039793193,0.0059657469391822815,0.0008961536805145442
1772702899139767800,7.177767822265625,-0.0013105415273457766,0.00552366254851222,0.00041199102997779846
1772702899149817900,7.18781787109375,-0.0022540995851159096,0.006025934591889381,-0.002040780382230878
1772702899159868000,7.197867919921875,-0.0028663603588938713,0.0073628416284918785,-0.0010847054654732347
1772702899169917700,7.207917724609375,0.0005075985100120306,0.009381517767906189,-0.0012650014832615852
1772702899179968000,7.217968017578125,0.001306280493736267,0.01691187173128128,-0.003907922655344009
1772702899190018800,7.228018798828125,0.001939580193720758,0.017729463055729866,-0.005586512852460146
1772702899200068900,7.23806884765625,0.005550027824938297,0.01540425606071949,-0.005914614535868168
1772702899210118700,7.24811865234375,0.0019374496769160032,0.014991998672485352,-0.006942860782146454
1772702899220168700,7.258168701171875,0.003772367723286152,0.014485998079180717,-0.00993092730641365
1772702899230219000,7.268218994140625,0.00669252360239625,0.01769697107374668,-0.007986021228134632
1772702899240269800,7.278269775390625,0.0038922098465263844,0.01810576766729355,-0.007869374938309193
1772702899250320000,7.28831982421875,0.0028823392931371927,0.010367153212428093,-0.00953837763518095
1772702899260369700,7.29836962890625,0.00475400872528553,0.00926487147808075,-0.012614062055945396
1772702899270419700,7.308419677734375,0.0037947380915284157,0.009497364982962608,-0.01133734267205
1772702899280470000,7.318469970703125,0.002323341788724065,0.016168583184480667,-0.00436145905405283
1772702899290520000,7.32852001953125,0.0034322820138186216,0.013012471608817577,-0.0065172878094017506
1772702899300571000,7.33857080078125,0.0031039142049849033,0.016930779442191124,-0.007760184817016125
1772702899310620700,7.34862060546875,0.005568669643253088,0.013007943518459797,-0.00902891531586647
1772702899320670700,7.358670654296875,0.005649097263813019,0.011859855614602566,-0.012291020713746548
1772702899330721000,7.368720947265625,0.004804608877748251,0.009673399850726128,-0.010212157852947712
1772702899340771000,7.37877099609375,0.005629390012472868,0.01588602177798748,-0.009888583794236183
1772702899350822000,7.38882177734375,0.0038219024427235126,0.029709693044424057,-0.005504487548023462
1772702899360871700,7.39887158203125,0.0025358619168400764,0.03230467811226845,-0.00014274542627390474
1772702899370921700,7.408921630859375,0.0013499563792720437,0.03187564015388489,0.0013627394801005721
1772702899380972000,7.418971923828125,0.004219778813421726,0.027298199012875557,-0.00358860963024199
1772702899391022000,7.42902197265625,0.001517202821560204,0.024658741429448128,-0.005636047571897507
1772702899401071900,7.43907177734375,-0.0020905814599245787,0.015086807310581207,-0.009811085648834705
1772702899411122700,7.449122802734375,-0.001888980157673359,0.018011225387454033,-0.00794287770986557
1772702899421172700,7.4591728515625,0.0009033442474901676,0.030818099156022072,0.0017251957906410098
1772702899431223000,7.46922314453125,-0.0005030711181461811,0.04360393434762955,0.003981692250818014
1772702899441273000,7.479273193359375,0.004503405187278986,0.09278639405965805,0.10212743282318115
1772702899451323000,7.489322998046875,-0.003982224967330694,0.048102013766765594,0.12869645655155182
1772702899461373700,7.499373779296875,-0.00526533555239439,0.019184613600373268,-0.016160061582922935
1772702899471423700,7.509423828125,-0.0019236012594774365,0.010839331895112991,-0.07990388572216034
1772702899481474000,7.51947412109375,-0.0037651772145181894,0.008112520910799503,-0.019645873457193375
1772702899491524000,7.529524169921875,-0.01323883980512619,-0.023497069254517555,0.015616510063409805
1772702899501574000,7.539573974609375,-0.007661381736397743,-0.014766962267458439,-0.020686369389295578
1772702899511624000,7.5496240234375,0.0009121326729655266,0.039503201842308044,-0.04946501925587654
1772702899521674800,7.5596748046875,0.004618453793227673,0.053580403327941895,-0.0348258912563324
1772702899531725000,7.56972509765625,0.0011222560424357653,0.044318728148937225,0.002034388715401292
1772702899541775000,7.579775146484375,-0.001511343871243298,0.021873340010643005,0.01041322574019432
