time,seconds_elapsed,z,y,x
1772702155802650000,0.064650146484375,0.01628010367155075,0.007733991785533726,0.009812846169492694
1772702155812700200,0.0747001953125,-0.007669511714577674,0.011367927841097115,-0.004788647632196079
1772702155822749200,0.084749267578125,0.0045966801404953,0.0017714483856223523,0.0062568958371412
1772702155832799200,0.09479931640625,-0.004684942945837974,0.016322792035806923,0.006992690165247768
1772702155842848000,0.104847900390625,0.00040273558199405667,0.028284027861244974,-0.00115183691624552
1772702155852898000,0.11489794921875,0.004894786304235458,0.018149386408459395,0.0049087919967016206
1772702155862947300,0.124947265625,0.01656593487560749,0.015315679086185991,0.004504106486216187
1772702155872997400,0.134997314453125,0.012077391284704208,-0.009268270414415747,0.0065668888014974065
1772702155883046100,0.145046142578125,0.012381342667341231,-0.010042926315031946,-0.01065819953600876
1772702155893096200,0.15509619140625,0.007443886265158653,-0.002850804587546736,0.0024550147695699704
1772702155903145000,0.16514501953125,0.011935936987400054,-0.0058098370562307535,0.008920619170658756
1772702155913195000,0.175195068359375,0.009093407037854193,-0.009579436989128588,0.02889494228422409
1772702155923244300,0.185244384765625,-0.001977437552809715,-0.006827891524974257,-0.0010709400000283493
1772702155933294300,0.19529443359375,0.001011222869157791,-0.00593760988805443,0.009478604679869022
1772702155943343000,0.205343017578125,0.0029576807618141173,0.012727690153289586,0.017749749249138403
1772702155953393200,0.21539306640625,0.01073883615732193,-0.0011918036004528402,0.02667656754843192
1772702155963443200,0.225443115234375,0.01492635097503662,0.0025203305241651834,0.0123129536062479
1772702155973492200,0.2354921875,0.015974398723244666,0.009376881888043136,-0.0028375318307313135
1772702155983542300,0.245542236328125,0.009086977297067641,-0.0048107064836658536,-0.0156922664467711
1772702155993591000,0.255591064453125,0.005794950014352798,-0.011426306964829564,0.00530586730617797
1772702156003641000,0.26564111328125,0.012827917391061781,-0.0051456923253834245,-0.01801058072596788
1772702156013690000,0.275690185546875,-0.002889291700720787,0.008539115889649838,0.0019159851225791498
1772702156023740400,0.285740478515625,0.0032476036190986633,0.012195391641184687,-0.01702668425515294
1772702156033789200,0.2957890625,0.00429214423596859,-0.0020647139774635434,0.004681801140680909
1772702156043839200,0.305839111328125,0.0036930092990398403,0.0030404454081319273,0.004422163823805749
1772702156053888000,0.315887939453125,-0.0028916297882795334,0.019374927881732583,0.017594990228977984
1772702156063938000,0.32593798828125,0.003394318613409996,0.004673106377571821,0.007862764697778038
1772702156073987300,0.3359873046875,-0.009028525108098984,-0.0067461680582724505,0.012475761218834668
1772702156084037000,0.346037109375,0.003685410514473915,-0.011760781349893659,-0.009380950708384624
1772702156094086100,0.356086181640625,-0.0008013795107603073,0.005493007925711572,-0.004209457221464254
1772702156104136200,0.36613623046875,0.01236614509820938,0.016896299341134725,0.004755816224962473
1772702156114185200,0.376185302734375,0.002335164949297905,-0.007608958900067955,-0.0012046448157168924
1772702156124235300,0.3862353515625,-0.004697217905521392,0.008208239967469125,-0.019579912401922046
1772702156134284300,0.3962841796875,-0.008592471778392792,0.008392766221519559,0.016460908165131696
1772702156144334000,0.406333984375,-0.0014098667979240416,0.006441138963401317,-0.00003961505775805563
1772702156154383000,0.416383056640625,-0.0009615385085344314,-0.0011426306964829563,-0.004507956110849045
1772702156164433200,0.42643310546875,0.0029296237111091613,0.000045026451814919705,-0.01354683364960365
1772702156174482200,0.436482177734375,-0.0053021980613470075,0.0019229126202873884,-0.0012230983544373884
1772702156184532200,0.4465322265625,0.006667056673765182,0.00868791324319318,-0.005702120631746947
1772702156194581200,0.456581298828125,-0.007697568765282631,-0.011098097923770546,0.007046717340848409
1772702156204631000,0.466631103515625,0.014895955836772917,-0.003680752605665475,-0.006964107958157546
1772702156214680300,0.476680419921875,0.016838906598091126,0.0038871253653429447,0.0008429947293596342
1772702156224730400,0.48673046875,0.012198971837759018,-0.00128010293841362,0.00723149932322558
1772702156234779100,0.496779052734375,0.010556465327739715,-0.004553827379457653,-0.0043226581052411344
1772702156244829200,0.5068291015625,0.0027729718446731564,0.014722261503990738,-0.007970179728162474
1772702156254878200,0.516878173828125,-0.00022211831808090208,0.0078001888895407314,-0.009738605039636604
1772702156264928000,0.526927978515625,-0.002021276694536209,0.00958741936618462,-0.0023429783629951998
1772702156274977300,0.536977294921875,0.010844050097465514,-0.0031334391875192523,0.00024556769232731313
1772702156285027300,0.54702734375,0.008297288224101066,0.006131652889121323,0.008893532517622224
1772702156295076000,0.557076171875,-0.003076338705420494,0.004967066089157015,-0.0019135465703206136
1772702156305126100,0.567126220703125,-0.00038169279396533964,0.008182502738013863,0.004690043812640942
1772702156315175200,0.577175048828125,-0.006517419070005416,0.013145550239179283,-0.0028970640152227133
1772702156325225200,0.58722509765625,-0.01220189444720745,0.015294216173049062,-0.006255183370667509
1772702156335274200,0.597274169921875,0.007850713500380515,-0.00197429574765265,0.007041776304249651
1772702156345324300,0.60732421875,0.008001520147919654,-0.0015991422923281788,0.013340488289389758
1772702156355373000,0.617373046875,0.0015653496205806732,0.004297770259156823,-0.011191653392161242
1772702156365423000,0.627423095703125,-0.007114800441265106,-0.007622603832930326,-0.016951646257564425
1772702156375472000,0.63747216796875,-0.0023258125990629195,0.015129307934921234,-0.003395355226448737
1772702156385522200,0.647522216796875,-0.006963993793725967,0.02078463028287515,0.0023675282823620364
1772702156395571200,0.6575712890625,-0.0036713819891214367,0.018211181331984697,0.0005994911299552769
1772702156405621200,0.667621337890625,0.004409633135795593,0.01009041871856898,-0.004669087789580226
1772702156415670300,0.677670166015625,0.022515198668837545,0.0018848638985306024,0.014548256643954663
1772702156425720300,0.68772021484375,0.016380056914687156,0.0017246683681383728,0.016452341266185975
1772702156435769000,0.69776904296875,0.0012649053692817688,0.00330105083938688,0.0012050969068659468
1772702156445819100,0.707819091796875,-0.008020809370279311,-0.006864095349516719,-0.005127078956458717
1772702156455868200,0.7178681640625,0.0006546645164489745,0.009595511341094971,-0.008301768036396243
1772702156465918000,0.72791796875,0.0002069207489490509,0.01925292720356956,0.001192625584360212
1772702156475967200,0.73796728515625,0.003351648515462875,0.015108393011055887,0.00014708945364691315
1772702156486017300,0.748017333984375,0.004251812225580215,0.008727806862164289,0.0132275203010533
1772702156496066000,0.758066162109375,0.0026069676280021667,0.014039594735763966,0.005699650113447569
1772702156506116000,0.7681162109375,0.01397825646996498,-0.014060509659629314,0.0005943902631523087
1772702156516165400,0.778165283203125,-0.0032312370061874387,-0.008783208577521144,0.003953212871495634
1772702156526215200,0.788215087890625,0.007393617382645607,-0.016874489368125797,0.00478956779751461
1772702156536265200,0.79826513671875,0.010537176105380058,0.0002940693094395101,-0.005518516826303676
1772702156546314200,0.808314208984375,-0.0008329436928033829,0.009627623512409627,-0.030041899812663902
1772702156556364000,0.818364013671875,-0.0012836100697517395,-0.0016762626491487024,-0.005417558936169371
1772702156566412300,0.828412353515625,0.008445172262191773,0.0008971315028145909,0.005263546551391482
1772702156576462300,0.83846240234375,-0.0035240824729204177,0.005632251999620348,0.00905596567087341
1772702156586511000,0.848510986328125,-0.0006838906109333038,-0.005333853574935346,0.006283244987949728
1772702156596561200,0.85856103515625,0.017424597531557083,-0.016205887657869605,0.013810868580383247
1772702156606610200,0.868610107421875,-0.002179097604751587,0.006150083594955504,-0.006347405398497358
1772702156616660200,0.87866015625,0.0006622633010149001,0.007419482476264238,0.004875268753012642
1772702156626709200,0.888709228515625,-0.009516600885987282,0.015167265325132757,0.003487933447305113
1772702156636759300,0.89875927734375,-0.0009895955592393875,0.0012315693552605808,-0.0077449013386154545
1772702156646808000,0.90880810546875,-0.0030880291432142256,0.016659001720231024,-0.00607052011929918
1772702156656858000,0.918858154296875,0.0031909049957990644,0.001954659465420991,-0.011823672251962125
1772702156666907100,0.9289072265625,0.0010942249774932862,0.01759613643987104,0.007901694768946617
1772702156676957200,0.938957275390625,-0.00025017536878585813,-0.00016015899777412413,0.0038391671709250654
1772702156687006200,0.949006103515625,0.007380757901072501,-0.009594451895169913,-0.0044011575683951375
1772702156697056300,0.95905615234375,0.0004962590843439102,-0.004169997427333146,-0.0023580389348091557
1772702156707105300,0.969105224609375,0.005880874732136726,-0.0013795995238237082,0.013991134217847138
1772702156717155300,0.9791552734375,0.003939677536487579,-0.010213880701456218,0.0198135202283971
1772702156727204000,0.9892041015625,-0.007281973701715469,0.0022875629479065535,-0.0033707094089593737
1772702156737254100,0.999254150390625,-0.014312602990865706,0.0018919146938249467,0.0007736147210001945
1772702156747303200,1.00930322265625,0.011722001975774764,-0.003704973731469363,-0.011089165698643773
1772702156757353000,1.01935302734375,0.007382511466741562,0.0014112367711029946,-0.0010904301517875865
1772702156767402200,1.02940234375,0.0018453356057405472,0.0066826195690780875,-0.009308063568687066
1772702156777452300,1.039452392578125,0.0034913492470979688,0.0053237705723382526,0.0020855832355562596
1772702156787501000,1.0495009765625,0.0007996259450912475,0.006766863786429166,-0.0001246903921710327
1772702156797551000,1.059551025390625,-0.009675590839982031,0.006934530237223953,0.0022856815180741247
1772702156807600400,1.069600341796875,-0.000398059406876564,-0.009229892899096011,0.013022837174963206
1772702156817650200,1.079650146484375,0.012618074032664298,-0.008076886939071118,0.003909428528696298
1772702156827699200,1.08969921875,-0.0030967969715595244,-0.0018454269372858107,0.002502909031906165
1772702156837749200,1.099749267578125,-0.005935819789767265,-0.0043795302584767335,0.0036319039286812765
1772702156847798000,1.109798095703125,-0.00997545056939125,-0.003971259984839708,-0.006776293768477625
1772702156857848000,1.11984814453125,0.019354688811302184,-0.005379555880185217,-0.009824274029093794
1772702156867897300,1.1298974609375,0.00708323625922203,0.004397906165383756,-0.006412894683028571
1772702156877947100,1.139947021484375,-0.0048871875196695325,0.0133130888258107,-0.004418574494076893
1772702156887996200,1.14999609375,-0.00039922845065593716,-0.0034051322683691975,-0.0008061835500411689
1772702156898046200,1.160046142578125,-0.0030927053183317185,-0.0008526895728893577,-0.0067590869053499765
1772702156908095200,1.17009521484375,0.0009469254612922668,-0.013838866265583782,0.005280561618274077
1772702156918145300,1.180145263671875,0.007528641939163207,-0.0047628122213296585,0.015820381771889516
1772702156928194300,1.1901943359375,0.00289221431016922,-0.005265044388733804,-0.0045101800339762115
1772702156938244000,1.200244140625,-0.004289221626520156,0.0024796514539048072,-0.005928892292059026
1772702156948293000,1.210293212890625,0.01561257967352867,0.01923820455847308,0.0035703784332145002
1772702156958343200,1.22034326171875,0.009775544083118438,-0.00522694086804986,0.010006713357334955
1772702156968392200,1.23039208984375,0.00573123712837696,0.013516721639130263,-0.0018035514237824827
1772702156978442200,1.240442138671875,0.007525134807825088,0.006982862890977412,0.0068716987006599076
1772702156988491000,1.250490966796875,-0.005792027404904365,-0.01012139837872237,0.0010816531902877614
1772702156998541000,1.260541015625,0.0004921674311161041,-0.01310205815732479,0.007566352734202518
1772702157008590300,1.27059033203125,0.0021375965505838392,-0.006059427903126925,-0.00927506091480609
1772702157018640400,1.280640380859375,0.002439209845662117,0.007928491444326937,-0.00448576711192727
1772702157028689200,1.290689208984375,-0.007143442013859748,0.013245192955061793,-0.009970765261119232
1772702157038739200,1.3007392578125,0.004830488896369934,-0.0009381393666379153,-0.008915981811448
1772702157048788000,1.3107880859375,-0.0029506664991378784,-0.006300214389059693,-0.014542639753920956
1772702157058838000,1.320838134765625,-0.005644727888703346,-0.003145860277675092,-0.010258039503591134
1772702157068887300,1.33088720703125,0.007225859600305556,-0.008185608010552823,0.015519668092532083
1772702157078937300,1.340937255859375,0.006175473764538765,0.00045090383896604177,-0.005806074196565896
1772702157088986000,1.350986083984375,0.005276479098200798,-0.007264419778715819,-0.000875161699601449
1772702157099036200,1.3610361328125,0.006622048488259315,0.0026442856973968444,0.006513587711681612
1772702157109085200,1.371085205078125,0.0031809681236743925,0.0034979981835931537,0.000012147095520049333
1772702157119135200,1.38113525390625,0.013957213681936264,0.017751911523472517,-0.010188942623022012
1772702157129184300,1.391184326171875,0.0006388824254274368,0.020904512069188058,-0.0025564384505851194
1772702157139234000,1.401234130859375,0.010066635984182358,0.021776490864437073,0.0077699901140993455
1772702157149283000,1.411282958984375,0.0022831425011157988,-0.008508775550313293,0.013909771510749123
1772702157159333000,1.4213330078125,-0.003249357184767723,-0.020341690554656087,0.004561060837842524
1772702157169383200,1.431383056640625,-0.0034019173979759213,-0.01692318734806031,-0.021907026475504972
1772702157179432200,1.44143212890625,-0.00116027595102787,-0.01754670780757442,-0.012528025695611723
1772702157189482200,1.451482177734375,0.005419686961174011,-0.003754256233293563,-0.0041265601444058116
1772702157199531000,1.461531005859375,0.008563245683908462,0.00786046770941466,0.0034822571917669846
1772702157209581000,1.4715810546875,0.012606968116760254,0.0065159212326630946,0.003803958860225975
1772702157219630300,1.48163037109375,-0.0002601122409105301,0.0016781440789811312,0.011945348703139461
1772702157229680000,1.49168017578125,0.0021375965505838392,0.004947849932033568,-0.0075973871932830655
1772702157239729200,1.501729248046875,0.00917290201485157,0.004874510701186954,-0.009940370122855528
1772702157249779200,1.511779296875,-0.005493921241164207,-0.003405588926095515,-0.012445795338833703
1772702157259828000,1.521827880859375,0.0009375731110572815,-0.005504460901487618,-0.016451231587911022
1772702157269878300,1.531878173828125,0.003333528336882591,0.01175018689064309,0.015008878159336745
1772702157279927300,1.54192724609375,0.010366495713591575,0.0036368951976299283,-0.02037588508520275
1772702157289977000,1.55197705078125,-0.010135025045275688,0.019557170847151428,-0.005069489850592799
1772702157300026000,1.562026123046875,-0.0028039515048265454,0.0007593487336300313,-0.008386249715765006
1772702157310076200,1.572076171875,-0.012080313894152641,-0.0048153826587833464,-0.006080178430210799
1772702157320125200,1.582125244140625,-0.010282324561476706,-0.00041818887945264575,0.012350550236855632
1772702157330175200,1.59217529296875,-0.0016068506747484207,-0.0005661459827795625,0.0020742444242117927
1772702157340224300,1.602224365234375,-0.00699088180065155,-0.005037738438881933,0.0002471020622877404
1772702157350274000,1.612274169921875,-0.0017529811471700667,-0.0037377800225280224,0.0038779830776620654
1772702157360323000,1.622322998046875,-0.007138765838742255,-0.0167914872597903,-0.021224597169295884
1772702157370373400,1.632373291015625,-0.008033668851852416,-0.0007973061238415539,0.007234641128382645
1772702157380422100,1.642422119140625,0.009773205995559692,-0.008007584562525153,0.014494407564867287
1772702157390472200,1.65247216796875,0.002744330272078514,-0.005452548051159829,0.004071742950938642
1772702157400521200,1.662521240234375,-0.00623100334405899,-0.003490326333791017,0.0018612866601208223
1772702157410571000,1.672571044921875,-0.008922726646065712,-0.004007061950583011,-0.005452283189678564
1772702157420620300,1.682620361328125,0.0012555530190467834,-0.0009700323422439396,0.008066004785452968
1772702157430670300,1.69267041015625,0.0008078092515468597,0.0044957039840519426,0.009447412673872896
1772702157440719000,1.702718994140625,0.0036520927667617795,0.019752455957233905,0.00229290584330447
1772702157450769200,1.71276904296875,0.002007248169183731,0.008023074392601847,0.004879100111336447
1772702157460818200,1.722818115234375,-0.005174187767505645,0.003919675928074866,0.014547494025551713
1772702157470868200,1.7328681640625,0.010531915408372878,0.01174404941080138,0.003197106407722458
1772702157480917200,1.742917236328125,0.00992927334010601,0.00309022110030055,-0.013731647598021663
1772702157490967300,1.75296728515625,0.006788637226819992,0.0025938341517932713,-0.006720928585738874
1772702157501016000,1.76301611328125,0.010830606094002724,-0.002574490130506456,-0.017679051783238538
1772702157511066000,1.773066162109375,0.02055997294783592,-0.007323273826483637,-0.01040884158455301
1772702157521115100,1.783115234375,0.015021043521165846,0.009985149979498236,0.010230151416244917
1772702157531165200,1.793165283203125,0.01187865384221077,0.005800082847196609,0.01863164893349167
1772702157541214200,1.803214111328125,0.0009568623334169388,-0.006695113724470138,-0.006351040393998846
1772702157551264300,1.81326416015625,-0.009216156634688376,0.004314575263485312,-0.008646900812792591
1772702157561313800,1.823313720703125,-0.00697217710018158,0.012863536693714558,-0.013715408849273808
1772702157571363600,1.833363525390625,-0.002333995905518532,0.004644702266994863,-0.0026226035885512826
1772702157581412900,1.843412841796875,-0.009968436306715012,-0.011090919264312833,0.0009824579989770427
1772702157591463000,1.853462890625,0.007238134559988975,0.015919563263468443,0.01442182638584636
1772702157601511700,1.86351171875,0.009479776006937026,0.009462057687155901,0.019959751165518538
1772702157611561700,1.873561767578125,0.006187748724222183,0.023672369347326454,-0.012652789153018965
1772702157621610800,1.88361083984375,0.013969488641619681,0.010493574425671249,-0.005076102254469879
1772702157631660800,1.893660888671875,0.0015513210952281952,0.00115804746132344,-0.006842294509662315
1772702157641709800,1.903709716796875,0.00139817636013031,0.007307546534389257,-0.01512165435142815
1772702157651759900,1.913759765625,0.0043897593915462494,0.009741166889481246,0.008784236057405359
1772702157661808600,1.92380859375,-0.005785013142228126,0.008820197853352875,-0.009025063642533495
1772702157671858700,1.933858642578125,-0.0006961655706167221,0.004990081638563424,-0.004251067873486318
1772702157681908000,1.943907958984375,0.016211130088567734,0.0075967752719298,-0.005548231544555165
1772702157691957800,1.953957763671875,0.007381342422962189,-0.0011794738418422638,0.016822608483838847
1772702157702006800,1.9640068359375,-0.00608545739352703,-0.004052618125360459,0.00044815475945360957
1772702157712056800,1.974056884765625,-0.014317863687872886,0.006209503898303955,0.008193964846944436
1772702157722105900,1.98410595703125,-0.004143091154098511,0.0006029160629026591,-0.000090482161892578
1772702157732156000,1.994156005859375,-0.005790858361124992,-0.010253189798537642,-0.013887322216923348
1772702157742205000,2.004204833984375,0.007526303851604461,0.011476283586397766,0.007423802458355203
1772702157752254700,2.014254638671875,0.008128361397981643,0.008032317144982516,-0.009187231934303416
1772702157762303700,2.0243037109375,0.008577858731150627,0.001580127064604312,-0.008829988595005124
1772702157772353800,2.034353759765625,0.013216039925813675,0.009110504303127527,0.017066746837482785
1772702157782402800,2.04440283203125,-0.002949497455358505,0.0022848230015486476,-0.010126380514516494
1772702157792452900,2.054452880859375,0.014709493353962898,0.0014605740718543528,0.00003870174230542034
1772702157802502000,2.064501953125,0.0036398178070783612,0.013435162569209933,0.0002670945375459269
1772702157812551700,2.0745517578125,0.01650923625230789,0.0068289327045902605,0.002803449181327596
1772702157822601000,2.08460107421875,0.010526654711365699,0.0065323974434286355,-0.004477131714322604
1772702157832651000,2.094651123046875,0.00783785401880741,-0.008780706093180924,0.004504928470123559
1772702157842699800,2.10469970703125,-0.003231821528077125,-0.009793335468135773,-0.0016904738375917076
1772702157852749800,2.114749755859375,0.004844517421722412,-0.00023289544042199848,-0.012553466097544878
1772702157862798600,2.124798583984375,0.012772387811541556,-0.009682038847077638,0.002107484540110454
1772702157872848600,2.1348486328125,0.010080079987645148,0.0006163052674382925,0.011300958985532633
1772702157882898000,2.14489794921875,-0.0036877486020326614,0.0019952472041361033,0.0013827413289807737
1772702157892948000,2.154947998046875,0.004694879817962646,0.010851612349413335,0.0025588815694209187
1772702157902996700,2.164996826171875,-0.0008440496087074279,0.005852909012977033,-0.004687847288977354
1772702157913046800,2.175046875,-0.0006949965268373489,0.012442132943868636,0.00006668116119690239
1772702157923095800,2.185095703125,-0.005333762243390083,0.012608082361612469,-0.010589714576792903
1772702157933145900,2.195145751953125,0.00275017549097538,0.000649549949914217,0.005799626189470291
1772702157943195000,2.20519482421875,0.0015536591827869414,0.008534585845004767,0.007350728088989854
1772702157953244700,2.21524462890625,-0.0038280338555574415,0.01085650772023946,-0.00703746088873595
1772702157963293700,2.225293701171875,-0.0015817162334918974,0.0049562341678887605,-0.0008138645329978316
1772702157973343700,2.23534375,-0.004274608579277992,0.009867387085035442,-0.002451589836622588
1772702157983392800,2.245392822265625,0.0008089782953262329,0.010772245236579329,0.012806404245574958
1772702157993442800,2.25544287109375,0.0029021511822938917,-0.0005406096827238798,0.00971919251969084
1772702158003491800,2.265491943359375,0.0006581716477870941,-0.00371204279307276,0.013523699369188397
1772702158013541600,2.275541748046875,-0.00009060089290142059,0.00021526845218613742,0.006311311171809211
1772702158023591000,2.2855908203125,0.003201426389813423,0.010538217284996062,-0.012082017227471806
1772702158033641000,2.295640869140625,0.015476970595121382,0.00974586133090779,-0.001497535948222503
1772702158043689700,2.305689697265625,0.00964168857038021,-0.0032945662996731696,-0.008803986504068597
1772702158053739800,2.31573974609375,-0.007117138528823852,-0.007048311076313257,0.01490871028706897
1772702158063788800,2.325788818359375,0.00021627309918403624,0.014933054710458964,0.010828669865243137
1772702158073838600,2.335838623046875,0.012337503525614737,0.003810680861957371,0.010118516868469304
1772702158083887900,2.345887939453125,-0.0008335282146930694,0.00405917573031038,0.009806998667307198
1772702158093938000,2.35593798828125,0.004255319356918335,-0.003328304172493517,-0.0061039702977519475
1772702158103987700,2.36598779296875,0.008445756784081458,0.002226754405070096,0.005218447034340352
1772702158114036700,2.37603662109375,0.018173370072245596,-0.005329761921707541,-0.002545090506086126
1772702158124086800,2.386086669921875,0.011438508859276771,-0.006648826897330581,-0.002063750429661013
1772702158134135800,2.3961357421875,0.015481646770238876,0.013570625517144799,0.0011586730824084952
1772702158144185900,2.406185791015625,0.006655950757861137,0.0038702290294691916,-0.006319727373705245
1772702158154235000,2.41623486328125,0.0017184943556785583,-0.007950063955318182,-0.007235645775380544
1772702158164284700,2.42628466796875,0.002617489022016525,0.005443688891269266,0.010976302741584367
1772702158174333700,2.436333740234375,0.005164250895380974,0.01551043447330594,0.002367267987458035
1772702158184383700,2.4463837890625,-0.005310965889692306,-0.006033215749636292,-0.019298309848411008
1772702158194432800,2.456432861328125,0.0020230302602052687,0.008260024953633547,-0.008246421119966544
1772702158204482800,2.46648291015625,0.0048655602097511285,0.008724336263444274,-0.000492783919046633
1772702158214531800,2.47653173828125,0.0023211364239454266,0.005896309763286262,0.006205941968038677
1772702158224581600,2.48658154296875,-0.005903086563944816,-0.00467485994324088,0.009164645643159747
1772702158234631000,2.496630859375,0.0009814122527837753,-0.0005493592447601258,0.008551445648260414
1772702158244681000,2.506680908203125,0.0042740240573883054,0.011985676146950572,-0.010060425439104436
1772702158254729700,2.516729736328125,0.011603344032168388,0.021981986841280013,-0.002700646393978968
1772702158264779800,2.52677978515625,0.013842647391557692,-0.002190020857565105,-0.0033985381308011707
1772702158274828800,2.536828857421875,-0.0006762918263673782,0.015799937205482274,-0.003616852490021847
1772702158284878800,2.54687890625,-0.002765373060107231,0.0031639439236372706,0.015583517975825816
1772702158294928000,2.556927978515625,-0.0014174655824899672,0.01732104582553729,0.004650766681600362
1772702158304978000,2.56697802734375,0.003220131090283394,0.013784067338425665,-0.009358885007048956
1772702158315026700,2.577026611328125,-0.003665536770224571,-0.0016991320680826902,-0.0007834648281568661
1772702158325076700,2.58707666015625,0.01907820995748043,0.0053739663896150884,-0.008448843790311366
1772702158335125800,2.597125732421875,0.010106383472681045,-0.0030951530037447808,0.0002898817580891773
1772702158345175800,2.60717578125,0.001129296290874481,-0.013792250644881278,-0.008023471684823744
1772702158355224800,2.617224853515625,-0.01248947921693325,0.0014108897112309932,0.01355310356018599
1772702158365275000,2.62727490234375,0.016539046868681906,0.002335585074406117,0.01439357753889635
1772702158375323600,2.63732373046875,-0.000820084211230278,-0.004204173691570758,-0.0014878776373108847
1772702158385374000,2.6473740234375,0.011600421422719954,0.004629011507518589,-0.004223293950571678
1772702158395422700,2.657422607421875,0.005614332750439643,0.013499423444457351,-0.0007477176613407209
1772702158405472800,2.66747265625,-0.004559270739555359,0.008640585236437619,-0.0032919222514377904
1772702158415521800,2.677521728515625,0.00651332741677761,0.02811393199134618,0.006756972580077126
1772702158425571800,2.68757177734375,-0.005010521638393402,0.002884432862512767,0.014259968621330336
1772702158435620900,2.697620849609375,0.0014256488889455795,-0.014229947942402213,0.004267105692834593
1772702158445671000,2.7076708984375,0.002621580675244331,-0.007447776988986879,0.0007232453737873583
1772702158455719700,2.7177197265625,0.001273088675737381,0.006685122053418308,-0.00193790926001966
1772702158465769700,2.727769775390625,0.005457096362113952,0.001979099786933511,-0.001139986648247577
1772702158475818800,2.73781884765625,-0.0026209961533546445,-0.000676054364349693,-0.01620363633527886
1772702158485868800,2.747868896484375,0.002018354085087776,0.006942183820717036,0.0014704333121655507
1772702158495917800,2.757917724609375,0.0138379712164402,0.006251772137451916,0.01369466745534446
1772702158505967900,2.7679677734375,-0.0008288520395755767,-0.001136822010204196,0.015191879176581278
1772702158516016600,2.7780166015625,-0.008162848189473151,0.0011998773090541363,-0.0016463013357250018
1772702158526066700,2.788066650390625,0.004555179086327552,-0.002631261819042265,0.003538686387008056
1772702158536116000,2.798115966796875,-0.0032236382216215133,0.014776402844022958,0.005938144177594222
1772702158546165800,2.808165771484375,-0.002620411631464958,0.015352156905364244,-0.0056858864495763555
1772702158556214800,2.81821484375,-0.0012689970225095747,0.004975760852266102,-0.008992513079801574
1772702158566264800,2.828264892578125,0.0035188217759132383,0.006937525911908596,-0.017139665943221187
1772702158576313900,2.83831396484375,0.013391981014609335,0.006288542217575013,-0.010169740165630355
1772702158586364000,2.848364013671875,0.0009743979901075362,-0.0014480981827713548,-0.010526284818607382
1772702158596413000,2.858412841796875,0.008453940090537071,-0.015553999620396643,-0.00444802891742438
1772702158606463000,2.868462890625,0.007852467066049576,-0.01602466760575771,0.01800553009151481
1772702158616511700,2.87851171875,-0.00621054507791996,-0.009255630128551275,0.0063047398671275
1772702158626561800,2.888561767578125,0.012197218272089957,-0.007132007304392755,0.021400784853263757
1772702158636610800,2.89861083984375,-0.0003705868780612945,0.005692202025931328,0.005909767466480843
1772702158646660900,2.908660888671875,-0.0038099136769771573,0.0005015380476601422,-0.018491861436888576
1772702158656710000,2.9187099609375,0.005915361523628235,-0.0018420111374929547,-0.008967990559898316
1772702158666759700,2.928759765625,-0.009195698368549346,0.008722162572667003,-0.0003471375038148835
1772702158676809000,2.93880908203125,0.007112462353706359,0.003289214271120727,0.004046334515046328
1772702158686859000,2.94885888671875,0.010701426756381988,0.004851677814871072,0.007098356196540407
1772702158696907800,2.95890771484375,-0.003063479223847389,-0.020492004011850803,-0.002435287155793048
1772702158706957800,2.968957763671875,0.008757891473174094,-0.014976692922785877,0.007154173470428213
1772702158717006800,2.9790068359375,-0.00022270283997058866,-0.001589132354967296,0.009767493207403458
1772702158727056600,2.989056640625,0.000824175864458084,-0.009008834026940166,0.001937525667529553
1772702158737106000,2.99910595703125,0.013094459372758865,-0.003620966976135969,0.009611882520583457
1772702158747156000,3.009156005859375,0.005315642064809799,0.016643329227063804,0.012546182406810111
1772702158757204700,3.019204833984375,0.0062134676873683925,0.016201412412151693,-0.012733718035276979
1772702158767254800,3.0292548828125,0.013250526717305183,-0.0028142719694413242,-0.0071172709595644845
1772702158777303800,3.0393037109375,0.01878887162208557,-0.011103011560905724,0.015036821045610122
1772702158787353900,3.049353759765625,0.006219897428154945,-0.005881934178061783,-0.00797767804802861
1772702158797403000,3.05940283203125,-0.004852700728178024,-0.004553151526022702,0.0029148508336627856
1772702158807453000,3.069452880859375,0.0057721536606550215,-0.0036796018281951546,0.005549953144183382
1772702158817501700,3.079501708984375,0.00008709376156330108,0.014086685280501842,0.007816176476539111
1772702158827551700,3.0895517578125,0.0029319617986679077,0.008786880105640738,-0.0038993637924082574
1772702158837601000,3.09960107421875,0.008318915534019469,-0.004864939155243337,0.009714721840550191
1772702158847650800,3.10965087890625,-0.000360065484046936,0.00860509379794821,-0.0114403902891092
1772702158857699800,3.119699951171875,0.011909633502364158,0.02301100109545514,-0.006906267690542154
1772702158867750000,3.12975,0.0005342530071735382,-0.005445259793847799,-0.009290884105022996
1772702158877799000,3.139798828125,-0.003955459627509117,-0.00004130012476816773,0.006709050918277353
1772702158887849000,3.149848876953125,-0.0033551556468009946,0.02952697712704539,0.0025355691924924028
1772702158897898000,3.15989794921875,0.007571312037110328,0.009210329682100563,0.009617179750208742
1772702158907947800,3.16994775390625,0.006226911690831184,-0.00121596992732957,0.003906665749452077
1772702158917996800,3.179996826171875,0.008019640326499938,-0.015020513798203319,-0.010370856794877908
1772702158928046800,3.190046875,-0.003202595433592796,0.004695975796505808,-0.007580495423986576
1772702158938095900,3.200095947265625,0.011912556111812592,0.0062836651130579405,-0.0015781771361129356
1772702158948146000,3.21014599609375,0.006225158125162124,0.004209872779995203,0.005121055641048588
1772702158958194700,3.220194580078125,0.005026888251304626,-0.004998812934290617,0.005424217005819082
1772702158968244700,3.23024462890625,0.009214403069019318,0.0040728389294818045,-0.008069301854236982
1772702158978294000,3.2402939453125,0.0005377601385116576,0.00619900077059865,-0.0008041514231590553
1772702158988344000,3.250343994140625,0.010866261929273605,0.00783345183832571,0.0081372707902221
1772702158998392800,3.260392822265625,0.009670330142974854,0.010774126666411758,0.0129893047981197
1772702159008443000,3.27044287109375,-0.0008060556858777999,-0.00040903745861724017,0.02004882225503679
1772702159018491600,3.28049169921875,0.0014379238486289978,0.020271511395275593,0.01600473906258121
1772702159028541700,3.290541748046875,-0.00305471139550209,0.00724566027931869,0.009041539853299037
1772702159038591000,3.300591064453125,-0.009790157130360603,0.007289152361173183,-0.0021122885793913157
1772702159048640800,3.310640869140625,0.01669745230078697,-0.007727726441528648,0.0020975613677175716
1772702159058689800,3.320689697265625,0.003829787421226501,-0.006306370135210454,0.008985265921684913
1772702159068739800,3.33073974609375,0.00023790040910243987,0.004786211363226175,0.00031331286602653564
1772702159078788900,3.340788818359375,0.0021849428236484524,0.010844652885664254,-0.013619830387155524
1772702159088839000,3.3508388671875,-0.0026040450185537338,0.007580956648290157,-0.011107409174810163
1772702159098888000,3.360887939453125,0.004583236137032509,0.016235113752353935,-0.013678022281220182
1772702159108937700,3.370937744140625,-0.005742927566170692,0.01254166606189683,-0.0107912102319533
1772702159118986800,3.38098681640625,-0.011726678150892258,0.0037896928728558123,-0.01037712670546025
1772702159129036800,3.391036865234375,-0.008135960182547568,-0.006960541461315006,-0.005242914755316451
1772702159139085800,3.4010859375,-0.0006534954726696014,-0.000834112736582756,0.009012852614931762
1772702159149136000,3.411135986328125,0.0012929624199867248,-0.005064169788081199,0.005289571475214324
1772702159159185000,3.421184814453125,0.004883095866441726,-0.017903668019082396,-0.004587999077118002
1772702159169234700,3.431234619140625,0.009824059399962424,-0.015317852776963263,-0.0026233981729950756
1772702159179284000,3.441283935546875,0.008177461236715316,0.007458901171199977,0.012673608178761788
1772702159189334000,3.451333984375,0.01146948851943016,0.010019782901462167,0.0010817308221012353
1772702159199382800,3.4613828125,0.008474982878565789,-0.004440357067622244,-0.00027773466256912795
1772702159209432800,3.471432861328125,-0.0012514613658189773,0.008594444539770483,0.02383282973919995
1772702159219481900,3.48148193359375,-0.002299509114027023,-0.00019590616459026932,-0.007099475007969885
1772702159229531600,3.49153173828125,0.0017436287969350814,0.001602046635467559,-0.009708461063122377
1772702159239581000,3.501580810546875,0.0021919570863246918,-0.0018039258831180631,-0.007619128667633049
1772702159249631000,3.511630859375,-0.0017027122646570204,-0.00046918841432780025,0.0072353215483948585
1772702159259679700,3.5216796875,0.0023375030368566513,-0.01050681749973446,0.021204426597524435
1772702159269729800,3.531729736328125,0.001886252138018608,0.0035080081209540367,0.020172708929609505
1772702159279779000,3.541779052734375,-0.006197101074457168,-0.010751238981168717,0.033577937584859316
1772702159289828900,3.551828857421875,-0.0024555764585733413,-0.004797025018185377,-0.006177446525916457
1772702159299878000,3.5618779296875,0.0008364508241415023,0.012718027275800705,0.0000987202672753483
1772702159309928000,3.571927978515625,-0.014876082092523574,0.001813113836571574,0.001568815652723424
1772702159319976700,3.581976806640625,-0.009787819042801857,0.0038540998785756525,0.00103735739083495
1772702159330026800,3.59202685546875,-0.004402034351229668,0.00211438007177785,-0.006564354351116344
1772702159340075800,3.60207568359375,0.0014338321954011917,0.0021185630565509197,0.006053427420603111
1772702159350125800,3.612125732421875,0.0006856441766023635,0.014693766061868518,0.0021722340391250325
1772702159360174800,3.6221748046875,-0.012636194211244582,0.011284067216236144,-0.018231794861750677
1772702159370225000,3.632224853515625,0.008610591956973076,-0.0035852198093198236,0.0022073053525062275
1772702159380274000,3.64227392578125,-0.0035077158600091934,-0.006783376529812812,0.013600381334591656
1772702159390324000,3.652323974609375,-0.0011135141998529433,-0.005728424116782844,0.0019130762128625064
1772702159400372700,3.662372802734375,0.006366027900576591,-0.0017549356422387062,0.0048082998974481594
1772702159410422800,3.6724228515625,-0.0005184709161520004,-0.003956135480944067,-0.005730419711046852
1772702159420471800,3.682471923828125,-0.0009673837274312972,0.00187222361266613,-0.0032565815099980682
1772702159430521600,3.692521484375,0.0020271219134330746,-0.0055187086225487285,-0.00631540739161428
1772702159440571000,3.70257080078125,0.014295651856064795,0.00607100874306634,0.005646001963759772
1772702159450621000,3.712620849609375,0.008161094623804092,-0.002507306645810604,0.007483341492712498
1772702159460669700,3.722669677734375,-0.003362169909477234,0.002930116901453584,0.00015982563763391225
1772702159470719700,3.7327197265625,-0.004112111493945122,0.0023873335279524324,-0.01036421699153725
1772702159480769000,3.74276904296875,-0.0009732289463281631,0.02365255040200427,-0.030718100307486017
1772702159490818800,3.75281884765625,-0.0020189386069774627,0.011608915256429464,-0.0034352397122653197
1772702159500868900,3.762868896484375,0.011297054561972617,0.005834606171306223,-0.005546651508822106
1772702159510918000,3.77291796875,0.005610825619101524,0.011087412132974714,-0.005154227258288301
1772702159520966700,3.782966552734375,0.010848726272583008,-0.006868369665835052,-0.00042377380344551054
1772702159531016700,3.7930166015625,0.017285481321811676,0.0014201324636116622,0.004348335969191976
1772702159541067000,3.80306689453125,0.007558452555537223,0.023747042018733917,-0.015034724986646323
1772702159551115800,3.81311572265625,0.012046411624550819,0.017369469810836015,-0.014567755928868427
1772702159561165600,3.82316552734375,-0.00471475356221199,-0.0003682670568116009,-0.018420093108620493
1772702159571214600,3.833214599609375,0.01009878468811512,-0.012187080470565706,-0.012715547624346799
1772702159581264600,3.8432646484375,0.02520809101462364,0.015492423892579972,0.00032124957730993625
1772702159591313700,3.853313720703125,0.021765257084369657,0.012265516001638024,-0.006795395761169493
1772702159601363700,3.86336376953125,-0.0005295768320560455,0.023258016392774878,-0.0006330554728396237
1772702159611412700,3.873412841796875,-0.0012795184165239333,-0.0022583368534222245,-0.006670335476240143
1772702159621462500,3.883462646484375,0.014434768065810203,-0.006383527024649083,0.004424026987329125
1772702159631511800,3.89351171875,-0.0021750059515237806,0.003932535409647971,-0.015439355698204598
1772702159641561900,3.903561767578125,0.0033580782562494275,0.006898216814827173,-0.019759917744481936
1772702159651610600,3.913610595703125,-0.0020259528696537016,0.005597710409201681,-0.013115990784554742
1772702159661660700,3.92366064453125,-0.007411153039336204,-0.006897066037356853,0.0031593819129513575
1772702159671709700,3.933709716796875,-0.00322246917784214,0.008414831922855227,-0.006216075202985666
1772702159681759500,3.943759521484375,0.012937222984433174,0.012207538736704736,-0.005766765099484473
1772702159691808800,3.953808837890625,0.005752279916405678,-0.007608538774959743,0.008279693201906047
1772702159701858800,3.96385888671875,-0.0002326397120952606,0.011388934096507727,-0.002789260825770907
1772702159711907600,3.973907470703125,-0.0003822773158550262,-0.0023908223929814993,0.00937306422945112
1772702159721957600,3.98395751953125,-0.005918284133076667,-0.008960958030913025,-0.00861889399443753
1772702159732007000,3.9940068359375,0.001267243456840515,0.005868490174598991,-0.010090108191315084
1772702159742056700,4.004056640625,0.014883096355199812,-0.006503098283708095,0.010764925013226456
1772702159752105700,4.014105712890625,0.01712882945537567,0.0015111717479303478,-0.013806521198828704
1772702159762155800,4.02415576171875,0.009799509480595587,-0.0026295082533732057,-0.011229199790419078
1772702159772204500,4.03420458984375,-0.0005266542226076126,-0.009632993807271123,-0.003047171976440586
1772702159782254600,4.044254638671875,0.0008206687331199646,0.0017153708168305456,-0.0050597767407540226
1772702159792303600,4.0543037109375,0.006804419317841529,-0.015439232400618492,-0.0031867494104895738
1772702159802353700,4.064353759765625,0.0012684125006198882,0.0034112880145199596,-0.008919292579963803
1772702159812402700,4.074402587890625,-0.002923193970322609,0.017544771578814834,0.013771965908678248
1772702159822452700,4.08445263671875,0.00006955810487270355,0.012185929693095385,-0.01076557803377509
1772702159832501800,4.094501708984375,0.005309212324023246,0.010160104687605052,-0.012134879925870336
1772702159842551800,4.1045517578125,0.005906593695282936,0.014253054823353886,0.016831778170983306
1772702159852600600,4.1146005859375,0.0005202244818210602,0.012568700199294834,0.020641906477091833
1772702159862650600,4.124650634765625,0.011291793864965437,0.018809713480714706,-0.009145589316240512
1772702159872699600,4.13469970703125,0.014134323814511298,0.004775050648394972,-0.008149550316482781
1772702159882749700,4.144749755859375,-0.004866144731640816,-0.0041901086336001755,-0.0068551813906989984
1772702159892798700,4.154798828125,0.006506313154101371,0.00823264375636354,0.009553019339661113
1772702159902848800,4.164848876953125,0.006956395009160041,0.0026647074309177694,0.01528120142784901
1772702159912897500,4.1748974609375,0.0020171850413084028,0.003589293196238577,0.016315535744535734
1772702159922947600,4.184947509765625,-0.0005284077882766723,0.009658329177927225,0.0018933394659310578
1772702159932996900,4.194996826171875,0.00994797804057598,0.010291494248621165,-0.019790038888109845
1772702159943046700,4.205046630859375,0.005759294179081917,-0.0009721695004031062,-0.01545896914754994
1772702159953095700,4.215095703125,0.00949789618551731,0.007199775310978293,-0.014726152227818964
1772702159963145700,4.225145751953125,0.0023129531174898147,-0.012463796786405145,0.002659496966260485
1772702159973194500,4.235194580078125,-0.0018763152658939361,-0.006656297817733138,0.012066372133768164
1772702159983244500,4.24524462890625,0.006653612670302391,-0.007746686870325356,0.014058399900933726
1772702159993293800,4.2552939453125,0.0020136779099702833,-0.018343758203089235,0.016435933554079383
1772702160003343600,4.265343505859375,0.0030658173114061354,-0.006565422930195927,-0.015626096742227674
1772702160013392600,4.275392578125,0.005011690682172775,-0.007336498634237795,-0.003344296326069161
1772702160023442700,4.285442626953125,0.0066571198016405105,-0.004140241609886288,-0.01339675765442662
1772702160033491700,4.29549169921875,0.010252513945102692,0.001969875300861895,0.00011456629037857055
1772702160043541800,4.305541748046875,0.008303133442997932,0.02143671924974769,-0.006617956835031509
1772702160053590800,4.3155908203125,0.003960720324516296,0.00960462622931227,-0.009183259012084454
1772702160063640600,4.325640625,0.009797755914926529,0.005963310584891587,-0.016205083940271287
1772702160073689600,4.335689697265625,0.009048983374238014,0.0017917787875980137,-0.0077672912669368085
1772702160083739600,4.34573974609375,0.015780921977758405,-0.009205142050329596,-0.00008058638896327465
1772702160093788700,4.35578857421875,0.011293547430634498,-0.0006436499320901929,-0.0033731342614861204
1772702160103838700,4.365838623046875,0.006056815820932388,0.005319423190783709,-0.002622480290965177
1772702160113887700,4.3758876953125,0.007104863569140434,0.0018771007171832024,-0.0030479071953799573
1772702160123937500,4.3859375,0.004260580053925514,0.009245656723808497,-0.012949342680489643
1772702160133986800,4.39598681640625,0.0005202244818210602,0.00008504793494939804,0.0010961931722937152
1772702160144036900,4.406036865234375,0.004261749097704887,0.00426797790909186,-0.011876343154115601
1772702160154085600,4.416085693359375,0.004563362392783165,0.011189210273325442,-0.014150160704459994
1772702160164135700,4.4261357421875,0.0027688801914453505,0.002871609913557768,-0.0102794110851828
1772702160174184400,4.436184326171875,0.012494155392050742,0.006659019497781991,-0.0073361515743657945
1772702160184234500,4.446234375,0.009653963530063628,-0.022801413465384394,0.015529974857415071
1772702160194283800,4.45628369140625,-0.003964811977744102,0.006640186933148652,0.01341757668016944
1772702160204333800,4.466333740234375,0.0027671266257762906,-0.011266202765982598,0.009759428631956689
1772702160214382600,4.476382568359375,0.013543956705927849,-0.014701273514889179,-0.002176174995303154
1772702160224432600,4.4864326171875,0.006512158372998237,0.004709602463059127,0.007882282249000854
1772702160234481700,4.496481689453125,-0.005009352594614029,0.0038185171085409818,0.003795314329466782
1772702160244531700,4.50653173828125,0.002619242587685585,-0.0028140893063507972,-0.011668865282740443
1772702160254580700,4.516580810546875,0.01234744039773941,0.015689462568331508,-0.0036630068864207713
1772702160264630800,4.526630859375,0.011150339567661285,0.009271978475153446,0.008999385778582654
1772702160274679600,4.536679443359375,0.005913023436069489,-0.0065994347976520654,0.009789339713030493
1772702160284729600,4.5467294921875,0.004863806644082069,-0.003842354641854763,-0.00043272429488133636
1772702160294778600,4.556778564453125,0.0005225625693798065,-0.0026993586191907523,-0.0008125676250550895
1772702160304828700,4.56682861328125,-0.005315642064809799,0.002178275620844215,-0.009032772024953737
1772702160314877700,4.576877685546875,0.010845803663134574,-0.008780870489962398,-0.008793679739185609
1772702160324927500,4.586927490234375,0.020723639076948165,0.011516359868459404,-0.013103213501372373
1772702160334976800,4.596976806640625,0.0005254851788282394,0.006031626580748707,-0.003100441100215539
1772702160345026800,4.60702685546875,-0.00022270283997058866,0.021570593028794972,0.0019176701895892618
1772702160355075600,4.61707568359375,0.0038151743739843367,0.014200466119591146,0.012463034168002195
1772702160365125600,4.627125732421875,-0.005163666373491287,0.007802910569589584,0.0053100206081988285
1772702160375174700,4.637174560546875,0.0045651159584522245,0.0087488131175749,-0.015114854717883281
1772702160385224700,4.647224609375,0.01129997717142105,0.005706687209010124,-0.006684551231260411
1772702160395273700,4.657273681640625,-0.00037000235617160797,-0.005278360528033227,-0.025117526654340326
1772702160405323800,4.66732373046875,0.00935761093199253,-0.009472213754989207,-0.007754112124955281
1772702160415372500,4.67737255859375,0.015792027893662453,-0.0031655513588339087,0.00902540156925097
1772702160425422600,4.687422607421875,0.006214052209258079,-0.010897113725263625,0.01570605751010589
1772702160435472000,4.697471923828125,0.00367255103290081,0.014291468871291726,-0.0015797708715777844
1772702160445521700,4.707521728515625,-0.00022036475241184232,0.021417685755714774,-0.0022445914558600634
1772702160455570700,4.71757080078125,0.005164250895380974,0.016126666675508022,-0.022779991651442833
1772702160465620700,4.727620849609375,-0.003063479223847389,0.007337247552908956,-0.006265467302664183
1772702160475669500,4.73766943359375,-0.011889759758114814,0.006680829470790922,-0.007361212950386106
1772702160485719800,4.7477197265625,0.014294482812285422,0.005986581862624734,-0.0061573764188447965
1772702160495768800,4.757768798828125,0.0033715222597122192,0.003871525937411934,0.0014073871464701368
1772702160505818600,4.767818603515625,-0.003358662778139114,-0.00511487706201151,-0.01404906125043053
1772702160515867600,4.77786767578125,0.005621347013115882,-0.018522640167642383,0.005496286728186532
1772702160525917700,4.787917724609375,0.009366378760337829,0.007063855705317109,-0.002529513911041431
1772702160535966700,4.797966796875,-0.0064963762819767,0.0013017485146410762,0.006613837782340124
1772702160546016800,4.808016845703125,0.018644494715332985,-0.0026454730074852704,-0.00034827458155341445
1772702160556065500,4.8180654296875,0.003980009546875953,0.02010536104813218,0.00007253551324829458
1772702160566115000,4.828114990234375,-0.008738017728924751,0.01066701303012669,-0.012078222401766106
1772702160576164400,4.838164306640625,0.016850597035884856,0.006282934460695833,-0.011075607530749402
1772702160586214400,4.84821435546875,0.005173603245615959,-0.015352229970600454,-0.010323492255504243
1772702160596263200,4.85826318359375,0.01489712488055229,0.0021130466312170026,0.0140662407140946
1772702160606313200,4.868313232421875,0.01549625981748104,0.0047781193883158265,0.004125701627880334
1772702160616362200,4.8783623046875,-0.013082768934965133,-0.006832512901164591,0.005086719546606764
1772702160626412000,4.888412109375,-0.00485328525006771,0.0021443002860061823,-0.026988544690608976
1772702160636461300,4.89846142578125,-0.010090601381659507,0.013546915847994386,-0.014516770093725062
1772702160646511400,4.908511474609375,0.010262450817227363,-0.004179934299457818,0.0003764092640718445
1772702160656560000,4.91856005859375,0.002335164949297905,-0.0022202881316654385,-0.0026239141962258144
1772702160666610200,4.928610107421875,-0.0030541268736124037,-0.0021426563181914386,-0.0019235930402996017
1772702160676659200,4.9386591796875,0.007870002722740172,-0.0036619931062683462,0.01946354231352452
1772702160686709200,4.948709228515625,0.01086860001683235,0.010625530242267995,0.02986062496162485
1772702160696758300,4.95875830078125,-0.0009539397239685058,0.001984524880722165,0.0017188733815914018
1772702160706808300,4.968808349609375,0.005178863942623138,-0.004056344452407211,0.0004064299429999664
1772702160716857000,4.978857177734375,0.009068857118487358,-0.004437726719118655,-0.010068270818842574
1772702160726907100,4.9889072265625,-0.0005102876096963882,0.0019226751582697033,-0.0015946761797647922
1772702160736956200,4.9989560546875,0.009966682741045951,0.01619134767586365,-0.000903424246283248
1772702160747006200,5.009006103515625,0.0011368950754404067,0.009968618969805538,0.004148452315805479
1772702160757055200,5.01905517578125,0.00023731588721275328,0.0013578991486690938,0.008302042031032034
1772702160767105000,5.02910498046875,0.006073182433843612,0.005366038811486214,-0.011642443066695705
1772702160777154300,5.039154296875,0.007868249157071114,-0.005101067732367665,0.002488565412722528
1772702160787204400,5.049204345703125,0.005470540365576744,-0.012442078144941478,-0.0036167291924357413
1772702160797253000,5.059253173828125,0.0183387897670269,0.001957034085597843,0.004291938739991746
1772702160807303200,5.06930322265625,0.004273439535498619,0.007310633540619164,-0.010764267426100559
1772702160817352200,5.079352294921875,-0.0014145429730415343,0.013981471340358256,0.008674665602552704
1772702160827402200,5.08940234375,-0.003362169909477234,0.005391684709396213,0.01461124801072292
1772702160837451300,5.099451171875,0.005166004461050033,-0.005926522238459438,-0.0062993695722660045
1772702160847501300,5.109501220703125,0.012197218272089957,-0.009302008287236095,0.010082404375472106
1772702160857550000,5.119550048828125,0.015489830076694487,-0.009051230130251496,-0.003624999263859354
1772702160867600100,5.12960009765625,0.018933248528838157,-0.005662482741102576,-0.007637267112522385
1772702160877649400,5.1396494140625,0.0018739771783351897,-0.0029900303951464592,-0.00267721528604161
1772702160887699200,5.14969921875,0.003821604114770889,-0.008167743560299277,-0.017401901642559094
1772702160897748200,5.159748291015625,-0.0012625672817230223,-0.0027810272869654,0.000720596758974716
1772702160907798300,5.16979833984375,0.00876373669207096,0.011713069750647991,-0.0055022461115149775
1772702160917847000,5.179846923828125,0.003523497951030731,0.008978000497259199,-0.0019826571506215258
1772702160927897000,5.18989697265625,0.02102934402525425,0.010863540249224752,-0.008276565096480771
1772702160937946400,5.1999462890625,0.009207973328232765,0.001739555410016328,0.013855210045608692
1772702160947996200,5.20999609375,0.005319149196147919,0.0057358950371854,0.012306048941425979
1772702160958045200,5.220045166015625,0.00502455016374588,0.0037678646335378286,-0.011511053505679592
1772702160968095200,5.23009521484375,-0.0008083937734365463,-0.00636568084070459,0.002138258704287
1772702160978144300,5.240144287109375,-0.0009551087677478789,-0.007235814738739282,-0.005878655375586822
1772702160988194300,5.2501943359375,-0.008585457515716552,0.00438827982051298,0.004802148717874661
1772702160998243300,5.260243408203125,0.004579729005694389,0.006916117797698825,0.0071431360531831155
1772702161008293000,5.270293212890625,0.006523264288902282,-0.0007722995467483996,-0.003145284888939932
1772702161018342100,5.280342041015625,-0.0003618190497159958,0.0016631474392488597,-0.006103847000165842
1772702161028392200,5.29039208984375,0.016097148320078847,0.0018743425045162439,-0.0003486125082708895
1772702161038441200,5.300441162109375,-0.0033580782562494275,0.001362045600824058,-0.006879662811406888
1772702161048491300,5.3104912109375,0.008160510101914405,-0.0019389139070175587,-0.01424490804951638
1772702161058540000,5.3205400390625,0.023873627540469167,0.004754318387620151,0.013825837820651941
1772702161068590000,5.330590087890625,0.024471008911728858,0.0014058482099324463,0.01847115200900007
1772702161078639400,5.340639404296875,-0.004708908343315124,0.014905655246879904,-0.010173466492677107
1772702161088689400,5.350689453125,0.0036702129453420637,0.017029150206875055,-0.017196492430684156
1772702161098738200,5.36073828125,0.01698854420185089,0.007397471573855728,-0.010055749263986944
1772702161108788200,5.370788330078125,-0.0026151509344577786,0.009991031731013207,0.008961948978179134
1772702161118837000,5.3808369140625,0.006965747359395026,0.0036387035622261464,0.0008833358729025348
1772702161128887300,5.39088720703125,0.0009802432090044021,-0.011036631793808191,-0.005704732713941485
1772702161138936300,5.400936279296875,-0.00680091218650341,-0.003276994110364467,0.00048719442847650497
1772702161148986000,5.410986083984375,0.00845744722187519,-0.002598492060601711,0.005664998925174586
1772702161159035100,5.42103515625,-0.0048608840346336364,-0.009634308981522918,-0.0057635136964730915
1772702161169085200,5.431085205078125,0.01624094070494175,-0.00239312394792214,-0.0029046627997886387
1772702161179134200,5.44113427734375,0.007714519900083541,0.0015474851703271269,0.010052109701908193
1772702161189184300,5.451184326171875,0.01818973668515682,-0.005511803957726806,0.0013246088004205375
1772702161199233300,5.4612333984375,0.0011316343784332275,0.0007345430859364569,-0.005760618486488238
1772702161209283000,5.471282958984375,0.02073474499285221,-0.002288220535032451,-0.015615205455454997
1772702161219332000,5.48133203125,0.011307575955986976,0.006691149935405701,-0.010210784562071785
1772702161229382400,5.49138232421875,-0.0027542671442031858,0.003964830244053155,-0.006093001379165798
1772702161239431200,5.50143115234375,0.008471475747227668,-0.0009499576685950159,0.008145855955476872
1772702161249481200,5.511481201171875,0.011918985852599144,-0.0010731091242283581,0.02254500928521156
1772702161259530200,5.5215302734375,0.00428337640762329,-0.007190806553233414,-0.0004047266096808016
1772702161269580000,5.531580078125,0.003534603866934776,0.011537694917432962,0.0073531529415166
1772702161279629300,5.54162939453125,0.006976853275299072,-0.0009223207429982721,0.007761688076634891
1772702161289679400,5.551679443359375,0.001743044275045395,0.008660130187124013,0.0078287528303219
1772702161299728100,5.56172802734375,-0.0018470891714096069,0.011463442371133715,-0.00015058288525324315
1772702161309778200,5.571778076171875,0.014915829581022262,0.015503968199901281,0.00606935564209707
1772702161319827200,5.5818271484375,0.011926000115275382,-0.006033033086545765,0.01138410722434055
1772702161329877200,5.591877197265625,-0.002291325807571411,0.0021429851117543875,-0.008811950614815578
1772702161339926300,5.60192626953125,0.0006985036581754684,0.0023986769058741628,-0.022587779847858473
1772702161349976300,5.611976318359375,0.011923077505826949,-0.004710132186021655,0.008537517587607726
1772702161360025000,5.622025146484375,0.0060930561780929565,-0.003157221921905875,0.01973952341042459
1772702161370075100,5.6320751953125,0.00010404489636421203,-0.003468370230309665,0.003876444141124375
1772702161380124400,5.64212451171875,0.0014519523739814758,0.006226089706923813,0.000004338248400017619
1772702161390174200,5.65217431640625,0.0063935004293918605,0.005155830126907676,0.0016833088778657839
1772702161400223200,5.66222314453125,-0.006174304720759392,-0.0112409039279446,-0.01821700371799525
1772702161410273300,5.672273193359375,0.00041091888844966884,0.002900288018770516,-0.010029126118542626
1772702161420322300,5.682322265625,0.0043014965862035745,0.007685476468689739,0.004178011770430021
1772702161430372400,5.692372314453125,-0.0033300212055444715,0.0015393931954167783,-0.006511149159423075
1772702161440421000,5.702421142578125,-0.014399696752429008,0.00020228110644966363,0.0033268931001191955
1772702161450471200,5.71247119140625,0.005507949766516685,0.002954886016529053,-0.0026920931947650387
1772702161460520200,5.722520263671875,0.009549918633699417,-0.0005584010677412152,0.0022562544941902157
1772702161470570200,5.7325703125,0.009701894325017928,-0.0028916845872066915,-0.022693149051629006
1772702161480619300,5.742619384765625,0.00027647885382175443,0.005588010999094694,-0.012018569202977232
1772702161490669300,5.75266943359375,0.007459083834290504,0.007534103565569966,0.006141174202715046
1772702161500718000,5.762718017578125,-0.0006242693781852722,-0.00641631504939869,0.0027983620142564176
1772702161510768000,5.77276806640625,0.010744681376218795,-0.0021004976768977937,0.014649894954101182
1772702161520817200,5.782817138671875,0.0037082068681716916,-0.004497055690921843,-0.0070093536056810984
1772702161530867200,5.7928671875,0.005955109012126922,0.0007923559540882706,0.005296768400981091
1772702161540916200,5.802916259765625,0.008649754923582076,-0.002260967201925814,-0.0033664305260637773
1772702161550966300,5.81296630859375,-0.00286649534702301,-0.006092453389894217,-0.0016610742131713777
1772702161561015000,5.82301513671875,0.0028220716834068296,-0.00885912335794419,-0.003716810299735516
1772702161571066000,5.833066162109375,-0.0018190321207046509,0.019798487056046723,-0.0028251404233276844
1772702161581115000,5.843114990234375,0.006706219640374184,0.014151019220985472,-0.008522178454580717
1772702161591165200,5.853165283203125,0.006701543465256691,0.002044365309178829,-0.008887203241535462
1772702161601214200,5.863214111328125,0.010892565414309502,0.002165544003434479,-0.009574436587025411
1772702161611264000,5.873263916015625,0.0004138414978981018,0.00323023235918954,0.005066453076712787
1772702161621313000,5.88331298828125,-0.0013806407034397125,-0.014179953054524958,-0.002248692242242396
1772702161631363000,5.893363037109375,0.0014618892461061477,-0.01730274298386648,0.008399259894387796
1772702161641412000,5.903412109375,0.004755085572600365,0.005821271765697747,-0.003952126026106998
1772702161651462100,5.913462158203125,0.01478255859017372,0.008749178443755954,-0.00822265208531171
1772702161661511000,5.923510986328125,0.0041594577670097345,0.012154201114270836,0.010129526886250823
1772702161671561000,5.93356103515625,0.01972293760180473,-0.001056048391573131,0.0030102740321541204
1772702161681610000,5.94360986328125,0.0011678747355937957,0.001803560556937009,0.015258998729195445
1772702161691660300,5.953660400390625,0.01194178220629692,-0.0004712342409417033,-0.012663511476432904
1772702161701709000,5.963708984375,0.003711713999509811,-0.010341690065898001,-0.005745462016551755
1772702161711759000,5.973759033203125,0.0005699088424444198,-0.01621151368105784,-0.00011559377026278525
1772702161721808000,5.983807861328125,0.0053583121627569195,-0.012461458698846399,-0.01708515471043065
1772702161731858000,5.99385791015625,0.011942951250076293,-0.02113211027998477,0.015167196826473809
1772702161741907200,6.0039072265625,0.0037099604338407515,-0.004114979304466396,0.020109996124054303
1772702161751957000,6.01395703125,-0.004669745376706123,0.010999405055958778,0.017589537735725753
1772702161762006000,6.024006103515625,-0.0003308393895626068,0.00621965996613726,-0.006316708866134286
1772702161772056000,6.03405615234375,0.006101824006438255,0.007955963973142206,-0.00627922183338087
1772702161782105000,6.04410498046875,0.005499766460061073,0.01152430571289733,0.0013160327683202921
1772702161792155100,6.054155029296875,0.02495090138316154,-0.004526300051715225,0.006065442085382528
1772702161802204200,6.0642041015625,0.012680033352971076,-0.00752002024129033,0.0016454519523540511
1772702161812254000,6.07425390625,-0.01111351468861103,0.005705938290338963,-0.011735021287552081
1772702161822303000,6.084302978515625,-0.008720482072234153,0.017569668558053673,-0.0010387684632092713
1772702161832353000,6.09435302734375,0.010582184290885924,-0.000959017757885158,-0.012868199169100262
1772702161842402000,6.104402099609375,0.010432546687126159,0.007422825210820883,-0.0065418045925907786
1772702161852452000,6.1144521484375,-0.0006423895567655563,-0.011631656811200082,-0.010037482954934238
1772702161862501000,6.124501220703125,0.003253448837995529,0.005205971145257353,-0.010687201868207194
1772702161872551000,6.134551025390625,-0.010215689066052436,0.003166409875359386,-0.0002372702214401215
1772702161882600200,6.14460009765625,-0.012160977914929389,-0.0035509522135369477,-0.0018278045156272127
1772702161892650200,6.154650146484375,-0.0003384381741285324,-0.0009128953275270759,0.00950607492539566
1772702161902699000,6.164698974609375,0.014626491245627402,-0.0038005430604331194,0.007001709155342541
1772702161912749000,6.1747490234375,0.00684182871878147,-0.00276084301546216,0.008941563777276314
1772702161922798000,6.184798095703125,0.005044423907995223,-0.011484722621180117,0.002791877474542707
1772702161932847900,6.194847900390625,0.012376666492223739,0.0034785080318339165,0.0019507870079018175
1772702161942897200,6.204897216796875,0.006091302612423896,0.006816621212288737,-0.0040469007706269615
1772702161952947200,6.214947265625,0.01132569613456726,0.011275500317290424,0.0015107196567812934
1772702161962996000,6.224995849609375,0.004143675675988197,0.0007906754536554217,-0.0009766584458528085
1772702161973046000,6.2350458984375,0.005340776506066322,0.002135897783841938,-0.01099699390316382
1772702161983095300,6.24509521484375,0.0035480478703975677,0.006798245305381715,-0.0020101205462822688
1772702161993145000,6.25514501953125,0.009238952988386154,-0.005547039667889476,0.004461532286391593
1772702162003194000,6.265194091796875,-0.0022813889354467392,-0.008917703411076217,0.012408860861929133
1772702162013244200,6.275244140625,0.005499181938171387,-0.004410820445884019,-0.006461624629003927
1772702162023293000,6.28529296875,0.00011047463715076445,0.006154029117710888,0.0029709877679590132
1772702162033343000,6.295343017578125,0.007744330516457557,0.0006563267505727708,0.008463625800912268
1772702162043392000,6.30539208984375,0.002356207737326622,0.011760616953112184,-0.001380110980477184
1772702162053442000,6.315442138671875,0.000862169787287712,0.000752042210008949,0.010310874802526087
1772702162063491000,6.325490966796875,0.014029694396257399,0.0022626294360496104,0.0015830268411664292
1772702162073541000,6.335541015625,0.009089899906516074,0.0055956280499696726,-0.0027336581810144707
1772702162083590100,6.345590087890625,-0.006027589726448059,0.00800338331144303,0.0028608099583303554
1772702162093640200,6.35564013671875,0.007886369335651398,-0.004338248400017619,-0.010981599971209653
1772702162103689000,6.36568896484375,0.0017523966252803802,-0.007663063707482069,0.009557996908877976
1772702162113739000,6.375739013671875,0.002053425398468971,0.011223459602799265,0.005524325512582436
1772702162123788000,6.3857880859375,0.01552022521495819,0.0015368724447675048,-0.002854329985193908
1772702162133837800,6.395837890625,0.004296235889196396,-0.004408409293089062,-0.0022529528588289393
1772702162143887000,6.40588720703125,0.0026467151165008545,-0.003950746919773518,-0.01278369465684518
1772702162153937200,6.415937255859375,0.00923427681326866,0.005795881596114486,0.000970274370838888
1772702162163986000,6.42598583984375,-0.002434533670544624,0.003075041797477752,-0.0035519568605348467
1772702162174036000,6.436035888671875,-0.0009369885891675948,0.018028499975148587,-0.0060024004862643775
1772702162184085200,6.446085205078125,-0.009916413858532905,0.0030898375078104437,-0.005291927829082123
1772702162194135000,6.456135009765625,0.013428805893659591,0.00809438606314361,-0.0012969490419374777
1772702162204184000,6.46618408203125,0.009690788409113884,0.0018294439168646932,0.0005955227743135765
1772702162214234000,6.476234130859375,0.010439560949802399,-0.009710607354436069,0.0031551669621374457
1772702162224283000,6.486282958984375,0.006698036333918571,-0.0010115151301026343,0.019763301578233947
1772702162234333000,6.4963330078125,-0.0007826748102903366,0.009246113381534814,-0.00610631751846522
1772702162244382200,6.50638232421875,0.009240706554055213,0.022081812220253048,0.0015646098350640385
1772702162254432000,6.516431884765625,0.01342705232799053,0.0020450046299956737,0.014183030927600338
1772702162264481000,6.52648095703125,-0.006774608701467514,0.00031673779897391794,0.0027244565278291702
1772702162274531000,6.536531005859375,0.001309329032897949,-0.0029631241219118237,-0.0004626171096460894
1772702162284580000,6.546580078125,0.015075404056906699,0.00006427914155647158,-0.011389998109010048
1772702162294630100,6.556630126953125,0.0035562311768531796,0.0008454743808135389,-0.005285973012330941
1772702162304679200,6.56667919921875,-0.010507365489006042,-0.003476553536765277,0.013465338511765002
1772702162314729000,6.57672900390625,0.004457563930749893,0.003207636934891343,0.015295284752128645
1772702162324778000,6.586778076171875,-0.003322422420978546,0.0004943411218933761,0.0052378367213997985
1772702162334828000,6.596828125,0.012988076388835906,-0.005181494291126728,0.0025794220339506865
1772702162344877000,6.606876953125,0.005203998383879661,0.0010772373100742696,-0.004912495490862056
1772702162354927000,6.616927001953125,-0.0012298340559005736,-0.0021010091335512695,0.0030165393761591983
1772702162364976000,6.62697607421875,0.008349310672283172,-0.0005437332215718925,0.005113580154068768
1772702162375026000,6.63702587890625,0.00625321517586708,-0.02084662613580003,0.005303595433989539
1772702162385075200,6.6470751953125,0.00430734180510044,0.005789671051036566,0.007264250815357081
1772702162395125200,6.657125244140625,-0.004373977300524711,0.0003749525259248912,0.008854250820004381
1772702162405174000,6.667174072265625,-0.0028758476972579957,0.015730159904900936,0.011402483131247572
1772702162415224000,6.67722412109375,-0.006166705936193466,0.00282011718833819,0.005541020919056609
1772702162425272800,6.68727294921875,0.0029606033712625502,-0.001503335501346737,-0.013846296086790971
1772702162435323000,6.697322998046875,-0.002426350364089012,-0.022474683995358645,-0.017931971664959565
1772702162445372200,6.7073720703125,0.001319265905022621,-0.025681352815870195,0.0011536909466143698
1772702162455422200,6.717422119140625,0.0007224690556526184,-0.004515504663065076,0.01723800718458369
1772702162465471000,6.727470947265625,0.009852700972557067,0.014246771213039754,0.0029266600024653597
1772702162475521000,6.73752099609375,0.011647767695784569,0.005162442530784755,0.007453366479557007
1772702162485570000,6.747570068359375,0.0091062665194273,0.012834785523265599,0.0007170622281730175
1772702162495620000,6.7576201171875,0.0007259761869907379,-0.0013675620261579752,-0.007792156280134804
1772702162505669000,6.767669189453125,0.003571428745985031,-0.011038129631150513,-0.004732544947229325
1772702162515719000,6.777718994140625,0.00790975021123886,-0.011411675651278347,0.002859892076300457
1772702162525768000,6.787767822265625,-0.0037619828820228576,-0.014986867256928235,-0.0022903805260779337
1772702162535818000,6.79781787109375,-0.0019639935493469237,0.003463346995320171,-0.019375284074759108
1772702162545867000,6.807866943359375,0.008213701593875885,0.014876849277503788,0.003975643899012357
1772702162555917000,6.8179169921875,0.015244330883026121,0.014519651603978126,-0.0017683750791242345
1772702162565966000,6.827966064453125,-0.00031856442987918853,-0.00026632278598845004,0.0023169671389041465
1772702162576016100,6.83801611328125,0.00012976385951042174,0.0005327917024493217,0.004290984325343743
1772702162586065400,6.8480654296875,-0.0006178396373987198,-0.004145812834147364,-0.020593861517705953
1772702162596115200,6.858115234375,0.010004092141985893,0.0056642728393897415,-0.01199648523533251
1772702162606164200,6.868164306640625,0.0053664954692125314,0.0020254048803821207,-0.0015017919982317834
1772702162616214300,6.87821435546875,0.015988427248597146,0.0021133206258527933,0.015406754903122781
1772702162626263000,6.888262939453125,0.005810732105374336,0.0010110584723763167,-0.0034882165750954298
1772702162636313000,6.89831298828125,-0.0033154081583023068,0.0067893313465639945,0.0018997235409449786
1772702162646362400,6.9083623046875,-0.005714285993576049,-0.008453921824228019,0.007328041333146393
1772702162656412200,6.918412109375,0.003114332628250122,-0.023268720449879765,-0.023315486767631954
1772702162666461200,6.928461181640625,0.002364391043782234,-0.020175595006439832,-0.010641380831948481
1772702162676511200,6.93851123046875,0.004757423660159111,-0.007423902923054993,-0.004023629492893815
1772702162686560300,6.948560302734375,-0.000481061515212059,0.002784680548775941,-0.003172154629556462
1772702162696610300,6.9586103515625,0.004161795854568481,0.021938348628953098,0.0003092257793759927
1772702162706659300,6.968659423828125,-0.0075075991511344906,0.001521601810399443,-0.0018507241669110952
1772702162716709000,6.978709228515625,-0.002719195830821991,-0.002673128199391067,0.009203890808159485
1772702162726758100,6.988758056640625,0.002970540243387222,-0.015086729168519377,0.005123110600817017
1772702162736808200,6.99880810546875,0.00761047500371933,-0.003898322612792253,0.015040666103665716
1772702162746857200,7.008857177734375,0.01135141509771347,0.0022549758525565265,0.005080604899651371
1772702162756907300,7.0189072265625,0.002675356689095497,-0.007601086120866239,0.010753800831013358
1772702162766956300,7.028956298828125,0.003574351355433464,0.005215012968238443,-0.0023451977195451034
1772702162777006000,7.039006103515625,-0.01722644461095333,0.012154310712125152,-0.002603560961363837
1772702162787055400,7.049055419921875,0.0035720132678747174,-0.0023563173351809383,-0.01130903269413393
1772702162797105400,7.05910546875,-0.010492167919874191,-0.00932237522182986,-0.012556283675716259
1772702162807154200,7.069154296875,-0.0036070845812559127,0.016790994069445876,0.0004673069844953716
1772702162817204200,7.079204345703125,0.012555530190467833,0.011645594005007295,-0.0008015713070053606
1772702162827253000,7.0892529296875,-0.0010632453173398972,0.0002209675406105816,0.004500485190446489
1772702162837303000,7.099302978515625,0.009862053322792053,-0.0010425861218012868,-0.0021948066305369136
1772702162847352300,7.109352294921875,0.0061240358382463455,0.0009441124496981501,0.0012520321879768744
1772702162857402400,7.11940234375,0.0011865794360637664,0.0003093034111894667,-0.004463052956620231
1772702162867451100,7.129451171875,0.010765139642357825,0.02569160021524876,-0.012419921112060545
1772702162877501200,7.139501220703125,0.006577040302753448,0.01396954344054684,0.0009301021906547248
1772702162887550200,7.14955029296875,0.00867138223350048,-0.004262370152212679,-0.003851081371004693
1772702162897600300,7.159600341796875,0.015553542962670325,-0.0011860679794102906,-0.010682082735095173
1772702162907649300,7.169649169921875,0.006722586253285407,-0.014558595374878495,-0.015441497422941028
1772702162917699300,7.17969921875,0.0034323125362396237,-0.0022123422872275113,-0.001052997917961329
1772702162927748000,7.189748046875,0.0013385551273822783,0.004763396743219346,-0.004236043834290467
1772702162937798100,7.199798095703125,0.0037321722656488416,0.0008938070345669984,-0.00639107101028785
1772702162947847200,7.20984716796875,0.004628828844428062,0.00005790419969707727,0.0027715196731034663
1772702162957897200,7.219897216796875,0.005525485423207283,-0.011136548504326492,-0.003928873014682904
1772702162967946200,7.2299462890625,0.0016349077254533767,0.0012813267811201511,0.0006124556428054348
1772702162977996000,7.23999609375,0.0031318682849407193,-0.0054536074970848855,0.019569792866706848
1772702162988045300,7.25004541015625,0.0034317280143499372,0.003666596216149628,0.015298522455408237
1772702162998095400,7.260095458984375,0.0064268181771039955,-0.0009246222979389131,0.010190970183326863
1772702163008144100,7.27014404296875,-0.0007505261063575744,-0.007126125552877783,-0.010317733801575376
1772702163018194200,7.280194091796875,0.0017938976794481276,-0.005487473234068602,-0.003422713590832427
1772702163028243200,7.2902431640625,0.0044815293282270425,-0.005623118845093995,0.006405528793903067
1772702163038293200,7.300293212890625,-0.028166356298327443,0.0025089506136253474,-0.002877697161049582
1772702163048342300,7.31034228515625,-0.01713584371805191,-0.0033383323761634527,-0.020460814289143307
1772702163058392300,7.320392333984375,-0.012558452799916266,0.007484766264818608,0.0001702100343303755
1772702163068441000,7.330441162109375,-0.013034253618121147,-0.008018252087011932,-0.004608722204738297
1772702163078491100,7.3404912109375,0.12992460303008554,-0.030000695586018263,0.024616130170575342
1772702163088540400,7.35054052734375,0.09483283138275146,-0.02475821008896455,0.028802064952556973
1772702163098590200,7.360590087890625,-0.07589666024446487,0.010667159160599111,-0.01103481886263471
1772702163108639200,7.37063916015625,-0.06734802760779857,0.010946962482668458,-0.026720194344315676
1772702163118689300,7.380689208984375,0.055963879284262656,0.01551812458941713,0.03907687749443575
1772702163128738000,7.390738037109375,-0.04908464116454124,0.018607980363536624,-0.017777050531306304
1772702163138788000,7.4007880859375,0.03337152372598648,0.0049161761521361765,0.00894700713737402
