time,seconds_elapsed,z,y,x
1772702155795114200,0.0571142578125,-0.9974212646484375,-0.024169921875,0.00543212890625
1772702155805163300,0.067163330078125,-1.000152587890625,-0.0230560302734375,0.003875732421875
1772702155815213300,0.07721337890625,-0.998687744140625,-0.023681640625,0.0039520263671875
1772702155825262000,0.087261962890625,-0.999755859375,-0.023040771484375,0.0047149658203125
1772702155835312000,0.09731201171875,-0.9990997314453125,-0.021087646484375,0.004058837890625
1772702155845361200,0.107361083984375,-0.9994354248046875,-0.0216217041015625,0.0037078857421875
1772702155855411200,0.1174111328125,-0.9987335205078125,-0.022369384765625,0.005035400390625
1772702155865460200,0.127460205078125,-0.9981231689453125,-0.0231475830078125,0.0041961669921875
1772702155875510300,0.13751025390625,-0.998626708984375,-0.0251922607421875,0.003753662109375
1772702155885559000,0.14755908203125,-0.9994354248046875,-0.0243072509765625,0.0027313232421875
1772702155895609000,0.157609130859375,-0.9986419677734375,-0.024505615234375,0.005035400390625
1772702155905658400,0.167658447265625,-0.99945068359375,-0.024444580078125,0.0061492919921875
1772702155915708200,0.177708251953125,-0.999053955078125,-0.024505615234375,0.00537109375
1772702155925757200,0.187757080078125,-0.9995880126953125,-0.0251922607421875,0.0041351318359375
1772702155935807200,0.19780712890625,-0.999725341796875,-0.0234832763671875,0.0049896240234375
1772702155945856000,0.20785595703125,-0.9991302490234375,-0.0228271484375,0.0059967041015625
1772702155955906000,0.217906005859375,-0.9984588623046875,-0.0243682861328125,0.0059356689453125
1772702155965955300,0.227955322265625,-0.9990234375,-0.022216796875,0.004180908203125
1772702155976005000,0.238005126953125,-0.9979705810546875,-0.024139404296875,0.00244140625
1772702155986054100,0.24805419921875,-0.99932861328125,-0.0252838134765625,0.00372314453125
1772702155996104200,0.258104248046875,-0.9981231689453125,-0.0245819091796875,0.0032958984375
1772702156006153200,0.2681533203125,-0.99951171875,-0.0239105224609375,0.0037689208984375
1772702156016203300,0.278203369140625,-0.9996795654296875,-0.02227783203125,0.0028076171875
1772702156026252300,0.288252197265625,-0.999542236328125,-0.0237884521484375,0.0037078857421875
1772702156036302000,0.298302001953125,-0.9987335205078125,-0.024078369140625,0.0047149658203125
1772702156046351000,0.30835107421875,-0.9991607666015625,-0.0224456787109375,0.0046844482421875
1772702156056401200,0.318401123046875,-0.9995574951171875,-0.02337646484375,0.0047149658203125
1772702156066450200,0.3284501953125,-1.00030517578125,-0.02484130859375,0.0051422119140625
1772702156076500200,0.338500244140625,-0.9997406005859375,-0.0245513916015625,0.0040435791015625
1772702156086549200,0.34854931640625,-0.999542236328125,-0.02423095703125,0.0028839111328125
1772702156096599000,0.35859912109375,-0.9992218017578125,-0.0231781005859375,0.0050048828125
1772702156106648300,0.3686484375,-0.9992218017578125,-0.0230712890625,0.00506591796875
1772702156116698400,0.378698486328125,-1.0000762939453125,-0.02410888671875,0.0022735595703125
1772702156126747100,0.3887470703125,-1.000152587890625,-0.02252197265625,0.00421142578125
1772702156136797200,0.398797119140625,-0.999725341796875,-0.02349853515625,0.00518798828125
1772702156146846200,0.40884619140625,-1.0004425048828125,-0.0238189697265625,0.0044097900390625
1772702156156896000,0.41889599609375,-0.999603271484375,-0.02374267578125,0.002349853515625
1772702156166945300,0.4289453125,-0.999969482421875,-0.0236358642578125,0.0039520263671875
1772702156176995300,0.438995361328125,-0.9994964599609375,-0.02349853515625,0.0038299560546875
1772702156187044000,0.449044189453125,-1.0001983642578125,-0.02471923828125,0.0036773681640625
1772702156197094100,0.45909423828125,-0.9999542236328125,-0.0238037109375,0.003997802734375
1772702156207143200,0.46914306640625,-0.9978179931640625,-0.0243682861328125,0.0029449462890625
1772702156217193200,0.479193115234375,-0.999298095703125,-0.0236053466796875,0.004913330078125
1772702156227242200,0.4892421875,-0.9985198974609375,-0.025238037109375,0.0041961669921875
1772702156237292300,0.499292236328125,-0.9990234375,-0.02301025390625,0.0040283203125
1772702156247341000,0.509341064453125,-1.000518798828125,-0.023223876953125,0.0031585693359375
1772702156257391000,0.51939111328125,-0.999603271484375,-0.0228424072265625,0.0041961669921875
1772702156267441200,0.529441162109375,-0.999603271484375,-0.0245361328125,0.00274658203125
1772702156277490200,0.539490234375,-0.998291015625,-0.02447509765625,0.0046844482421875
1772702156287540200,0.549540283203125,-1.000274658203125,-0.02294921875,0.005126953125
1772702156297589000,0.559589111328125,-1.0001220703125,-0.0228271484375,0.003814697265625
1772702156307639000,0.56963916015625,-1.0001220703125,-0.023468017578125,0.0046234130859375
1772702156317688300,0.579688232421875,-1.0003814697265625,-0.023406982421875,0.003570556640625
1772702156327738400,0.58973828125,-1.0001983642578125,-0.0229644775390625,0.0044097900390625
1772702156337787100,0.599787109375,-0.9991302490234375,-0.0249786376953125,0.0058746337890625
1772702156347837200,0.609837158203125,-0.9986419677734375,-0.023040771484375,0.0035858154296875
1772702156357886000,0.619885986328125,-1.000579833984375,-0.0245513916015625,0.0024871826171875
1772702156367936300,0.629936279296875,-0.9998779296875,-0.02313232421875,0.003326416015625
1772702156377985300,0.6399853515625,-1.00006103515625,-0.0220184326171875,0.0041351318359375
1772702156388035000,0.65003515625,-1.000457763671875,-0.0229644775390625,0.00408935546875
1772702156398084000,0.660083984375,-1.00048828125,-0.0229034423828125,0.0034332275390625
1772702156408134100,0.670134033203125,-0.99725341796875,-0.0247344970703125,0.0040740966796875
1772702156418183200,0.68018310546875,-0.9983978271484375,-0.0238037109375,0.005523681640625
1772702156428233200,0.690233154296875,-0.9987945556640625,-0.02398681640625,0.0049591064453125
1772702156438282200,0.7002822265625,-1.000091552734375,-0.0240325927734375,0.0038909912109375
1772702156448332000,0.71033203125,-0.999664306640625,-0.023956298828125,0.0025634765625
1772702156458381000,0.720381103515625,-1.0000152587890625,-0.0221405029296875,0.0044403076171875
1772702156468431400,0.730431396484375,-0.9991607666015625,-0.0222015380859375,0.0049285888671875
1772702156478480100,0.740480224609375,-0.9996795654296875,-0.022918701171875,0.0047454833984375
1772702156488530200,0.7505302734375,-0.999420166015625,-0.022857666015625,0.0056304931640625
1772702156498579200,0.7605791015625,-0.9990081787109375,-0.02410888671875,0.0034637451171875
1772702156508629000,0.77062890625,-0.9998321533203125,-0.0251617431640625,0.00384521484375
1772702156518678300,0.78067822265625,-1.00054931640625,-0.0250701904296875,0.0048828125
1772702156528728300,0.790728271484375,-0.9984588623046875,-0.02447509765625,0.003631591796875
1772702156538777000,0.800777099609375,-0.9993896484375,-0.0236358642578125,0.0016326904296875
1772702156548827100,0.8108271484375,-0.99932861328125,-0.023406982421875,0.0022735595703125
1772702156558875100,0.820875244140625,-0.9998779296875,-0.0245513916015625,0.0044097900390625
1772702156568925200,0.83092529296875,-0.999481201171875,-0.0234222412109375,0.0048370361328125
1772702156578974200,0.84097412109375,-1.000457763671875,-0.02398681640625,0.0046844482421875
1772702156589024000,0.85102392578125,-0.9993743896484375,-0.0259552001953125,0.0053863525390625
1772702156599073300,0.8610732421875,-0.9985809326171875,-0.024169921875,0.00469970703125
1772702156609123300,0.871123291015625,-0.999176025390625,-0.0233001708984375,0.0044403076171875
1772702156619172000,0.881172119140625,-0.999542236328125,-0.0219879150390625,0.0043487548828125
1772702156629222100,0.89122216796875,-1.0004119873046875,-0.023712158203125,0.0036468505859375
1772702156639271200,0.901271240234375,-0.9993896484375,-0.023590087890625,0.0041656494140625
1772702156649321000,0.911321044921875,-1.0001983642578125,-0.023345947265625,0.0029754638671875
1772702156659370200,0.921370361328125,-0.99896240234375,-0.0232696533203125,0.004364013671875
1772702156669420300,0.931420166015625,-0.99951171875,-0.0240325927734375,0.0052642822265625
1772702156679469000,0.941468994140625,-0.9986724853515625,-0.024871826171875,0.0044097900390625
1772702156689519000,0.95151904296875,-0.9997100830078125,-0.024200439453125,0.0045166015625
1772702156699568400,0.961568359375,-0.999298095703125,-0.0234527587890625,0.00506591796875
1772702156709618200,0.9716181640625,-0.99908447265625,-0.0255584716796875,0.0061492919921875
1772702156719667200,0.981667236328125,-0.999847412109375,-0.024993896484375,0.005035400390625
1772702156729717200,0.99171728515625,-1.000762939453125,-0.024017333984375,0.0043487548828125
1772702156739766000,1.00176611328125,-0.9993896484375,-0.0245361328125,0.0034332275390625
1772702156749816000,1.011816162109375,-0.9987030029296875,-0.0246734619140625,0.003082275390625
1772702156759865300,1.021865234375,-0.99920654296875,-0.0236663818359375,0.0034942626953125
1772702156769915100,1.0319150390625,-0.9985504150390625,-0.0227813720703125,0.003326416015625
1772702156779964200,1.041964111328125,-0.9989013671875,-0.0233001708984375,0.00469970703125
1772702156790014200,1.05201416015625,-0.999847412109375,-0.02313232421875,0.00390625
1772702156800063200,1.062063232421875,-1.0007476806640625,-0.02410888671875,0.005126953125
1772702156810113300,1.07211328125,-0.9983978271484375,-0.0245513916015625,0.004791259765625
1772702156820163300,1.082163330078125,-0.9993133544921875,-0.025299072265625,0.004852294921875
1772702156830212000,1.092212158203125,-1.0006256103515625,-0.0247344970703125,0.00421142578125
1772702156840262100,1.10226220703125,-1.0000152587890625,-0.02545166015625,0.0044403076171875
1772702156850311200,1.112311279296875,-0.9993896484375,-0.0249786376953125,0.0024261474609375
1772702156860361200,1.122361328125,-0.998016357421875,-0.0245208740234375,0.00347900390625
1772702156870410200,1.13241015625,-0.9999542236328125,-0.0231781005859375,0.0035858154296875
1772702156880460300,1.142460205078125,-0.9997711181640625,-0.0243377685546875,0.0033416748046875
1772702156890509000,1.152509033203125,-0.9998016357421875,-0.024383544921875,0.003082275390625
1772702156900559000,1.16255908203125,-0.9995574951171875,-0.0247039794921875,0.0049591064453125
1772702156910608400,1.1726083984375,-0.998870849609375,-0.0252685546875,0.0050506591796875
1772702156920658200,1.182658203125,-0.9996337890625,-0.024139404296875,0.00537109375
1772702156930707200,1.192707275390625,-0.999542236328125,-0.0247650146484375,0.0027008056640625
1772702156940757200,1.20275732421875,-0.9989776611328125,-0.02252197265625,0.004180908203125
1772702156950806000,1.212805908203125,-0.99810791015625,-0.0240478515625,0.0047149658203125
1772702156960856300,1.222856201171875,-0.9993896484375,-0.0240020751953125,0.00390625
1772702156970905000,1.232905029296875,-0.999114990234375,-0.023681640625,0.004547119140625
1772702156980955100,1.242955078125,-0.9999542236328125,-0.024871826171875,0.0043792724609375
1772702156991004200,1.253004150390625,-1.0001678466796875,-0.02471923828125,0.0045928955078125
1772702157001054200,1.26305419921875,-0.9995574951171875,-0.0252838134765625,0.003265380859375
1772702157011103200,1.273103271484375,-0.9989776611328125,-0.024078369140625,0.0028533935546875
1772702157021153300,1.2831533203125,-1,-0.0236053466796875,0.004180908203125
1772702157031202000,1.2932021484375,-0.9990997314453125,-0.023345947265625,0.0034332275390625
1772702157041252000,1.303252197265625,-0.9989013671875,-0.025543212890625,0.00335693359375
1772702157051301000,1.313301025390625,-0.9997711181640625,-0.0245513916015625,0.002410888671875
1772702157061351200,1.32335107421875,-1.0003204345703125,-0.02471923828125,0.0049896240234375
1772702157071400200,1.333400146484375,-0.9984893798828125,-0.0240325927734375,0.004852294921875
1772702157081450200,1.3434501953125,-1.000335693359375,-0.0250701904296875,0.0037689208984375
1772702157091499000,1.3534990234375,-0.9989776611328125,-0.02386474609375,0.0037689208984375
1772702157101549000,1.363549072265625,-0.9996490478515625,-0.024200439453125,0.0045013427734375
1772702157111598300,1.373598388671875,-0.998931884765625,-0.0234832763671875,0.0034942626953125
1772702157121648000,1.383648193359375,-0.99908447265625,-0.0220489501953125,0.00408935546875
1772702157131697200,1.393697265625,-0.99969482421875,-0.02203369140625,0.0036468505859375
1772702157141747200,1.403747314453125,-0.9988861083984375,-0.0234222412109375,0.0052337646484375
1772702157151796200,1.413796142578125,-0.999755859375,-0.026214599609375,0.0054168701171875
1772702157161846300,1.42384619140625,-0.9993896484375,-0.025054931640625,0.0022735595703125
1772702157171895300,1.433895263671875,-1.0003814697265625,-0.0263824462890625,0.0029296875
1772702157181945000,1.443945068359375,-0.9997711181640625,-0.0254974365234375,0.0036163330078125
1772702157191994000,1.453994140625,-0.99932861328125,-0.0240478515625,0.0052032470703125
1772702157202044200,1.464044189453125,-0.9984130859375,-0.0240325927734375,0.004638671875
1772702157212093200,1.47409326171875,-0.9998016357421875,-0.0237274169921875,0.005615234375
1772702157222143200,1.484143310546875,-1.000244140625,-0.0234527587890625,0.004058837890625
1772702157232192300,1.494192138671875,-0.9993438720703125,-0.0239105224609375,0.0026702880859375
1772702157242242000,1.504241943359375,-1.0001068115234375,-0.023193359375,0.003662109375
1772702157252291300,1.514291259765625,-0.9998626708984375,-0.0241851806640625,0.0023345947265625
1772702157262341400,1.52434130859375,-0.9995880126953125,-0.0241851806640625,0.0044708251953125
1772702157272390100,1.53439013671875,-0.99798583984375,-0.023590087890625,0.00274658203125
1772702157282440200,1.544440185546875,-0.99993896484375,-0.022613525390625,0.003265380859375
1772702157292489200,1.5544892578125,-0.999908447265625,-0.02325439453125,0.0036163330078125
1772702157302539000,1.5645390625,-0.999847412109375,-0.024017333984375,0.0021820068359375
1772702157312588300,1.57458837890625,-1.00128173828125,-0.0249481201171875,0.00445556640625
1772702157322638300,1.584638427734375,-0.999786376953125,-0.024200439453125,0.0052947998046875
1772702157332687000,1.59468701171875,-1.0003814697265625,-0.02435302734375,0.0029449462890625
1772702157342737200,1.604737060546875,-0.9997711181640625,-0.02362060546875,0.006011962890625
1772702157352786200,1.6147861328125,-1.0000762939453125,-0.025787353515625,0.0023040771484375
1772702157362836200,1.624836181640625,-1.0006103515625,-0.0237884521484375,0.003936767578125
1772702157372885200,1.63488525390625,-0.9992523193359375,-0.02435302734375,0.0056304931640625
1772702157382935300,1.644935302734375,-0.9992523193359375,-0.02423095703125,0.004119873046875
1772702157392984000,1.654984130859375,-1.0005950927734375,-0.02362060546875,0.00439453125
1772702157403034000,1.6650341796875,-1.000335693359375,-0.0244293212890625,0.003082275390625
1772702157413083100,1.675083251953125,-0.9999237060546875,-0.0247650146484375,0.0048675537109375
1772702157423133200,1.68513330078125,-0.9994964599609375,-0.0235748291015625,0.004638671875
1772702157433182200,1.69518212890625,-0.9989471435546875,-0.0221710205078125,0.0051116943359375
1772702157443232000,1.70523193359375,-0.9991912841796875,-0.02215576171875,0.0039825439453125
1772702157453281300,1.71528125,-1.0000152587890625,-0.0233612060546875,0.0050048828125
1772702157463331300,1.725331298828125,-0.99896240234375,-0.0228424072265625,0.005889892578125
1772702157473380000,1.735380126953125,-0.9981536865234375,-0.0239410400390625,0.0024261474609375
1772702157483430100,1.74543017578125,-0.99957275390625,-0.024566650390625,0.0035400390625
1772702157493479200,1.755479248046875,-0.9983367919921875,-0.0242767333984375,0.00250244140625
1772702157503529000,1.765529052734375,-0.9982452392578125,-0.0253753662109375,0.0029449462890625
1772702157513578200,1.775578125,-0.99810791015625,-0.02374267578125,0.004180908203125
1772702157523628300,1.785628173828125,-0.9985809326171875,-0.0235748291015625,0.0054168701171875
1772702157533677000,1.795677001953125,-0.999237060546875,-0.0242156982421875,0.0044097900390625
1772702157543727000,1.80572705078125,-1.000244140625,-0.0240325927734375,0.00396728515625
1772702157553776400,1.8157763671875,-1.0002899169921875,-0.02313232421875,0.0019683837890625
1772702157563826700,1.82582666015625,-1.0005340576171875,-0.0229949951171875,0.003509521484375
1772702157573876000,1.8358759765625,-1.000579833984375,-0.0243988037109375,0.003875732421875
1772702157583925800,1.84592578125,-1.0008544921875,-0.0236358642578125,0.0042877197265625
1772702157593974800,1.855974853515625,-0.998046875,-0.022369384765625,0.006134033203125
1772702157604024800,1.86602490234375,-0.9984893798828125,-0.02276611328125,0.004364013671875
1772702157614074600,1.87607470703125,-0.99822998046875,-0.0231170654296875,0.0026397705078125
1772702157624124000,1.8861240234375,-0.9992828369140625,-0.024322509765625,0.0036163330078125
1772702157634174000,1.896174072265625,-0.999542236328125,-0.0231170654296875,0.00250244140625
1772702157644222700,1.90622265625,-0.9994049072265625,-0.0237274169921875,0.0050048828125
1772702157654272800,1.916272705078125,-0.999237060546875,-0.0231475830078125,0.0036163330078125
1772702157664321800,1.92632177734375,-0.9996337890625,-0.0226898193359375,0.0037689208984375
1772702157674371800,1.936371826171875,-0.9979400634765625,-0.023895263671875,0.00396728515625
1772702157684420900,1.9464208984375,-0.999114990234375,-0.023712158203125,0.00567626953125
1772702157694471000,1.956470947265625,-1.000091552734375,-0.024566650390625,0.00482177734375
1772702157704519700,1.966519775390625,-1.0005645751953125,-0.02294921875,0.0041961669921875
1772702157714569700,1.97656982421875,-1.0004730224609375,-0.02337646484375,0.0044403076171875
1772702157724619000,1.986618896484375,-0.99945068359375,-0.024749755859375,0.0030975341796875
1772702157734668800,1.996668701171875,-0.99969482421875,-0.0233001708984375,0.00408935546875
1772702157744717800,2.0067177734375,-0.999114990234375,-0.0233001708984375,0.0039825439453125
1772702157754768000,2.016767822265625,-0.999420166015625,-0.02374267578125,0.0026092529296875
1772702157764816600,2.026816650390625,-0.9983978271484375,-0.0239410400390625,0.005279541015625
1772702157774867000,2.036866943359375,-0.9991607666015625,-0.0239105224609375,0.004486083984375
1772702157784915700,2.046915771484375,-0.9993438720703125,-0.024169921875,0.0033416748046875
1772702157794965800,2.0569658203125,-0.998504638671875,-0.0232391357421875,0.004150390625
1772702157805014800,2.067014892578125,-0.9987335205078125,-0.022369384765625,0.003631591796875
1772702157815064800,2.07706494140625,-0.99908447265625,-0.0234375,0.00445556640625
1772702157825113900,2.08711376953125,-0.9993133544921875,-0.0233154296875,0.003814697265625
1772702157835164000,2.097163818359375,-0.999298095703125,-0.0252227783203125,0.0049896240234375
1772702157845212700,2.107212646484375,-0.9999237060546875,-0.0247039794921875,0.0032958984375
1772702157855262700,2.1172626953125,-0.999298095703125,-0.024688720703125,0.003509521484375
1772702157865311700,2.127311767578125,-0.9983673095703125,-0.0241851806640625,0.0048065185546875
1772702157875361800,2.13736181640625,-1.0001373291015625,-0.0242462158203125,0.0042266845703125
1772702157885410800,2.147410888671875,-0.9986419677734375,-0.023284912109375,0.0039825439453125
1772702157895460900,2.1574609375,-0.999298095703125,-0.0240631103515625,0.0040740966796875
1772702157905509600,2.167509521484375,-0.9995574951171875,-0.0230255126953125,0.003143310546875
1772702157915559700,2.1775595703125,-1.0001678466796875,-0.022613525390625,0.00347900390625
1772702157925609000,2.18760888671875,-1.0000457763671875,-0.0241546630859375,0.00372314453125
1772702157935658800,2.19765869140625,-0.9994964599609375,-0.0229034423828125,0.0048065185546875
1772702157945707800,2.207707763671875,-0.9997406005859375,-0.0232086181640625,0.0042572021484375
1772702157955757800,2.2177578125,-1.000396728515625,-0.0236663818359375,0.003875732421875
1772702157965806800,2.227806884765625,-0.9997100830078125,-0.0237274169921875,0.004180908203125
1772702157975857000,2.23785693359375,-0.9999542236328125,-0.0233001708984375,0.0040283203125
1772702157985906000,2.247906005859375,-0.9992218017578125,-0.0235443115234375,0.0052337646484375
1772702157995955700,2.257955810546875,-0.99920654296875,-0.0243072509765625,0.004852294921875
1772702158006004700,2.268004638671875,-0.9990081787109375,-0.024078369140625,0.0055999755859375
1772702158016054800,2.2780546875,-0.9996490478515625,-0.0233917236328125,0.003387451171875
1772702158026103800,2.288103759765625,-0.9986419677734375,-0.022857666015625,0.0034027099609375
1772702158036153900,2.29815380859375,-0.999176025390625,-0.023956298828125,0.0032501220703125
1772702158046203000,2.308202880859375,-0.9998321533203125,-0.025421142578125,0.0043487548828125
1772702158056252700,2.318252685546875,-1.0002899169921875,-0.023101806640625,0.0050048828125
1772702158066301700,2.3283017578125,-0.998565673828125,-0.0236663818359375,0.005218505859375
1772702158076352000,2.33835205078125,-0.998779296875,-0.0236358642578125,0.005859375
1772702158086400800,2.34840087890625,-1.0001220703125,-0.0239410400390625,0.003875732421875
1772702158096450800,2.358450927734375,-0.999359130859375,-0.0238037109375,0.0046539306640625
1772702158106499800,2.368499755859375,-0.9979248046875,-0.0247039794921875,0.00384521484375
1772702158116549600,2.378549560546875,-0.99908447265625,-0.0254058837890625,0.0030517578125
1772702158126599000,2.388598876953125,-0.998748779296875,-0.023773193359375,0.004150390625
1772702158136649000,2.39864892578125,-0.9992218017578125,-0.0230560302734375,0.0037994384765625
1772702158146697700,2.40869775390625,-0.998809814453125,-0.025238037109375,0.0029754638671875
1772702158156747800,2.418747802734375,-0.9996185302734375,-0.0238037109375,0.0045318603515625
1772702158166796800,2.428796875,-0.99932861328125,-0.02215576171875,0.00457763671875
1772702158176846800,2.438846923828125,-0.9995880126953125,-0.02410888671875,0.0034637451171875
1772702158186896000,2.448895751953125,-0.99957275390625,-0.02398681640625,0.00274658203125
1772702158196946000,2.45894580078125,-0.99847412109375,-0.02264404296875,0.0040435791015625
1772702158206994700,2.46899462890625,-0.9996490478515625,-0.02301025390625,0.0046539306640625
1772702158217044700,2.479044677734375,-0.9998931884765625,-0.024017333984375,0.00433349609375
1772702158227093800,2.48909375,-0.999847412109375,-0.0246429443359375,0.0055999755859375
1772702158237143800,2.499143798828125,-0.999847412109375,-0.023406982421875,0.0028228759765625
1772702158247192800,2.50919287109375,-0.9991302490234375,-0.0221405029296875,0.0036773681640625
1772702158257243000,2.519242919921875,-0.9984588623046875,-0.0234832763671875,0.0030059814453125
1772702158267292000,2.5292919921875,-0.99884033203125,-0.02362060546875,0.0037384033203125
1772702158277342000,2.539342041015625,-0.999786376953125,-0.0226593017578125,0.0054473876953125
1772702158287390700,2.549390625,-0.9993438720703125,-0.0237579345703125,0.0048065185546875
1772702158297440800,2.559440673828125,-0.9991455078125,-0.0219573974609375,0.00347900390625
1772702158307489800,2.56948974609375,-1.00006103515625,-0.02471923828125,0.003814697265625
1772702158317539600,2.57953955078125,-0.99871826171875,-0.02294921875,0.00445556640625
1772702158327588900,2.5895888671875,-0.9981689453125,-0.023834228515625,0.0039825439453125
1772702158337639000,2.599638916015625,-0.99945068359375,-0.025390625,0.0031890869140625
1772702158347687700,2.609687744140625,-1.0015411376953125,-0.024932861328125,0.0042877197265625
1772702158357737700,2.61973779296875,-0.9989166259765625,-0.024017333984375,0.006103515625
1772702158367787000,2.629787109375,-0.99957275390625,-0.02423095703125,0.0038909912109375
1772702158377836800,2.6398369140625,-0.9987030029296875,-0.02386474609375,0.004364013671875
1772702158387885800,2.6498857421875,-0.9985504150390625,-0.0222930908203125,0.003936767578125
1772702158397935900,2.659935791015625,-1.00018310546875,-0.02288818359375,0.004058837890625
1772702158407984600,2.669984619140625,-0.99871826171875,-0.0223236083984375,0.0047760009765625
1772702158418034700,2.68003466796875,-0.9991455078125,-0.0217742919921875,0.0043487548828125
1772702158428084000,2.690083984375,-1.0007171630859375,-0.024566650390625,0.0053863525390625
1772702158438133800,2.7001337890625,-0.9983367919921875,-0.024810791015625,0.0037078857421875
1772702158448182800,2.710182861328125,-1,-0.024871826171875,0.0041961669921875
1772702158458232800,2.72023291015625,-0.9995574951171875,-0.0231781005859375,0.0044708251953125
1772702158468281900,2.73028173828125,-0.99835205078125,-0.0247039794921875,0.002471923828125
1772702158478332000,2.740331787109375,-1.0001068115234375,-0.0238189697265625,0.00396728515625
1772702158488381000,2.750380859375,-0.9984283447265625,-0.0240631103515625,0.0048675537109375
1772702158498430700,2.7604306640625,-0.998199462890625,-0.0238189697265625,0.00592041015625
1772702158508479700,2.770479736328125,-1.0002899169921875,-0.0240478515625,0.005218505859375
1772702158518529800,2.78052978515625,-0.99908447265625,-0.0240325927734375,0.0033111572265625
1772702158528578800,2.790578857421875,-0.9993896484375,-0.0231170654296875,0.003997802734375
1772702158538628900,2.80062890625,-0.999969482421875,-0.022735595703125,0.0034332275390625
1772702158548678000,2.810677978515625,-1.00048828125,-0.0228424072265625,0.0035400390625
1772702158558727700,2.820727783203125,-1.000152587890625,-0.023895263671875,0.0016937255859375
1772702158568777000,2.83077685546875,-0.9993133544921875,-0.0235595703125,0.00213623046875
1772702158578827000,2.840826904296875,-0.998992919921875,-0.024322509765625,0.003326416015625
1772702158588875800,2.850875732421875,-0.999420166015625,-0.025299072265625,0.0034637451171875
1772702158598925800,2.86092578125,-0.9993133544921875,-0.0251922607421875,0.004669189453125
1772702158608974800,2.870974853515625,-0.9993896484375,-0.0248260498046875,0.0054931640625
1772702158619024600,2.881024658203125,-0.9992523193359375,-0.024810791015625,0.0058135986328125
1772702158629074000,2.891073974609375,-0.998321533203125,-0.023193359375,0.0052947998046875
1772702158639124000,2.9011240234375,-1.0000152587890625,-0.0240936279296875,0.0031280517578125
1772702158649172700,2.9111728515625,-1.0000152587890625,-0.0235595703125,0.0026702880859375
1772702158659222800,2.921222900390625,-1.000213623046875,-0.0234222412109375,0.004364013671875
1772702158669272000,2.93127197265625,-0.9995574951171875,-0.0240325927734375,0.0032196044921875
1772702158679321900,2.94132177734375,-0.9989471435546875,-0.02325439453125,0.0045013427734375
1772702158689371000,2.951370849609375,-0.999603271484375,-0.0256805419921875,0.0042266845703125
1772702158699421000,2.9614208984375,-0.999053955078125,-0.026092529296875,0.0044403076171875
1772702158709469700,2.9714697265625,-0.9989776611328125,-0.0243682861328125,0.0047760009765625
1772702158719519700,2.981519775390625,-0.9997100830078125,-0.0242462158203125,0.004547119140625
1772702158729569800,2.99156982421875,-0.9995269775390625,-0.025665283203125,0.003997802734375
1772702158739618800,3.001618896484375,-0.9993438720703125,-0.023101806640625,0.0055084228515625
1772702158749668900,3.0116689453125,-0.9993133544921875,-0.0224761962890625,0.00433349609375
1772702158759718000,3.0217177734375,-0.998626708984375,-0.0235137939453125,0.0019989013671875
1772702158769767700,3.031767578125,-0.9978179931640625,-0.0250396728515625,0.00567626953125
1772702158779817000,3.04181689453125,-0.9980926513671875,-0.0247344970703125,0.0047454833984375
1772702158789867000,3.051866943359375,-0.999786376953125,-0.0250244140625,0.0031280517578125
1772702158799915800,3.061915771484375,-0.99957275390625,-0.0243682861328125,0.0046234130859375
1772702158809965800,3.0719658203125,-0.9999237060546875,-0.0230255126953125,0.0054779052734375
1772702158820014800,3.082014892578125,-0.9993133544921875,-0.0227813720703125,0.003997802734375
1772702158830065000,3.09206494140625,-0.9986419677734375,-0.0242919921875,0.0046234130859375
1772702158840114000,3.102114013671875,-0.9991302490234375,-0.02447509765625,0.00347900390625
1772702158850164000,3.1121640625,-0.9992523193359375,-0.021087646484375,0.0036163330078125
1772702158860212700,3.122212646484375,-0.9988861083984375,-0.0236053466796875,0.0033416748046875
1772702158870262800,3.1322626953125,-0.9999847412109375,-0.0238494873046875,0.004364013671875
1772702158880311800,3.142311767578125,-1.000274658203125,-0.0219268798828125,0.00482177734375
1772702158890361900,3.15236181640625,-0.99945068359375,-0.021453857421875,0.0038909912109375
1772702158900411000,3.162410888671875,-0.9990234375,-0.0241546630859375,0.005096435546875
1772702158910461000,3.1724609375,-0.998382568359375,-0.0248565673828125,0.002899169921875
1772702158920509700,3.182509765625,-1.0006256103515625,-0.024078369140625,0.003814697265625
1772702158930560000,3.19256005859375,-0.9986724853515625,-0.02294921875,0.0036468505859375
1772702158940608800,3.20260888671875,-0.9990081787109375,-0.0232696533203125,0.00445556640625
1772702158950658800,3.212658935546875,-0.9994659423828125,-0.024749755859375,0.0044708251953125
1772702158960707800,3.222707763671875,-0.998870849609375,-0.0234527587890625,0.00347900390625
1772702158970758000,3.2327578125,-0.99957275390625,-0.0232391357421875,0.0037841796875
1772702158980807000,3.242806884765625,-0.9994354248046875,-0.0227508544921875,0.0042724609375
1772702158990857000,3.25285693359375,-0.999420166015625,-0.0223541259765625,0.00543212890625
1772702159000905700,3.26290576171875,-0.9991455078125,-0.0239105224609375,0.0057220458984375
1772702159010955800,3.272955810546875,-0.999725341796875,-0.02203369140625,0.0066375732421875
1772702159021004800,3.2830048828125,-0.9998931884765625,-0.0227508544921875,0.0054931640625
1772702159031054800,3.293054931640625,-1.000213623046875,-0.0228729248046875,0.0038604736328125
1772702159041104000,3.303103759765625,-0.99896240234375,-0.0245819091796875,0.0039215087890625
1772702159051154000,3.31315380859375,-0.9984283447265625,-0.02423095703125,0.0045623779296875
1772702159061202700,3.32320263671875,-0.999847412109375,-0.02423095703125,0.005126953125
1772702159071252700,3.333252685546875,-0.9994964599609375,-0.0224151611328125,0.0030517578125
1772702159081302000,3.343302001953125,-1.0004119873046875,-0.0234527587890625,0.00323486328125
1772702159091351800,3.353351806640625,-0.9989166259765625,-0.0224456787109375,0.003326416015625
1772702159101400800,3.36340087890625,-1.0002288818359375,-0.0230865478515625,0.0026092529296875
1772702159111451000,3.373450927734375,-1.00067138671875,-0.0228424072265625,0.0028076171875
1772702159121500000,3.3835,-1.000152587890625,-0.02490234375,0.0029296875
1772702159131550000,3.393550048828125,-1.0001373291015625,-0.024017333984375,0.0041961669921875
1772702159141599000,3.403598876953125,-0.9994354248046875,-0.0243377685546875,0.004913330078125
1772702159151648800,3.413648681640625,-0.99981689453125,-0.0247650146484375,0.00445556640625
1772702159161697800,3.42369775390625,-0.9984588623046875,-0.025665283203125,0.0025177001953125
1772702159171747800,3.433747802734375,-0.9991302490234375,-0.0233917236328125,0.0048980712890625
1772702159181796900,3.443796875,-0.998565673828125,-0.0232391357421875,0.00384521484375
1772702159191847000,3.453846923828125,-0.998687744140625,-0.0236968994140625,0.0042266845703125
1772702159201896000,3.46389599609375,-0.9996490478515625,-0.0237579345703125,0.0061492919921875
1772702159211945700,3.47394580078125,-1.0003662109375,-0.0229034423828125,0.0048675537109375
1772702159221994800,3.483994873046875,-0.9999542236328125,-0.024322509765625,0.003143310546875
1772702159232045000,3.494045166015625,-0.999053955078125,-0.023590087890625,0.0039215087890625
1772702159242093800,3.50409375,-0.999664306640625,-0.024200439453125,0.0043487548828125
1772702159252143900,3.514143798828125,-1.0000762939453125,-0.024871826171875,0.005218505859375
1772702159262192600,3.524192626953125,-0.9995880126953125,-0.0233917236328125,0.0055694580078125
1772702159272242700,3.53424267578125,-1.0002899169921875,-0.0243072509765625,0.0064849853515625
1772702159282292000,3.5442919921875,-1.0001068115234375,-0.02508544921875,0.0045166015625
1772702159292342000,3.554342041015625,-1.0000152587890625,-0.023162841796875,0.0033416748046875
1772702159302390800,3.564390869140625,-1.0003814697265625,-0.0224609375,0.0046844482421875
1772702159312440800,3.57444091796875,-1.0013275146484375,-0.024200439453125,0.00372314453125
1772702159322489900,3.58448974609375,-0.9995269775390625,-0.02301025390625,0.003570556640625
1772702159332540000,3.594539794921875,-0.9998321533203125,-0.02374267578125,0.0038299560546875
1772702159342589000,3.6045888671875,-0.9995269775390625,-0.0234222412109375,0.0048370361328125
1772702159352639000,3.614638916015625,-1.001190185546875,-0.0218963623046875,0.002227783203125
1772702159362687700,3.624687744140625,-0.9991455078125,-0.0247955322265625,0.0029449462890625
1772702159372737800,3.63473779296875,-0.9986419677734375,-0.024444580078125,0.005706787109375
1772702159382786800,3.644786865234375,-0.9996185302734375,-0.024383544921875,0.0040130615234375
1772702159392836900,3.6548369140625,-0.998443603515625,-0.024444580078125,0.0045928955078125
1772702159402886000,3.664885986328125,-0.9990692138671875,-0.0246124267578125,0.0038604736328125
1772702159412935700,3.674935791015625,-0.999969482421875,-0.024017333984375,0.004486083984375
1772702159422985000,3.68498486328125,-0.999969482421875,-0.024627685546875,0.003204345703125
1772702159433035000,3.695034912109375,-0.9979095458984375,-0.024810791015625,0.004852294921875
1772702159443083800,3.705083740234375,-0.9984283447265625,-0.0234222412109375,0.0039825439453125
1772702159453133800,3.7151337890625,-0.9998626708984375,-0.0231475830078125,0.00457763671875
1772702159463182800,3.725182861328125,-0.9996490478515625,-0.024383544921875,0.00360107421875
1772702159473232600,3.735232666015625,-0.9997711181640625,-0.023223876953125,0.000244140625
1772702159483282000,3.745281982421875,-0.999847412109375,-0.022125244140625,0.0030975341796875
1772702159493332000,3.75533203125,-0.9981231689453125,-0.0235137939453125,0.004638671875
1772702159503380700,3.765380615234375,-0.99908447265625,-0.0226898193359375,0.003204345703125
1772702159513430800,3.7754306640625,-0.998870849609375,-0.0229949951171875,0.004058837890625
1772702159523480000,3.78547998046875,-0.9983062744140625,-0.0251617431640625,0.004791259765625
1772702159533529900,3.79552978515625,-0.9987335205078125,-0.022430419921875,0.0032806396484375
1772702159543579000,3.805578857421875,-0.9980316162109375,-0.022247314453125,0.0027618408203125
1772702159553629000,3.81562890625,-0.998443603515625,-0.0225067138671875,0.0029144287109375
1772702159563677700,3.825677734375,-0.99981689453125,-0.025299072265625,0.0025787353515625
1772702159573727500,3.8357275390625,-0.9972686767578125,-0.0240631103515625,0.0043182373046875
1772702159583776800,3.84577685546875,-0.99688720703125,-0.0225830078125,0.002716064453125
1772702159593826800,3.855826904296875,-0.99871826171875,-0.0219573974609375,0.0033721923828125
1772702159603875600,3.86587548828125,-0.9994964599609375,-0.0232086181640625,0.0034637451171875
1772702159613925600,3.875925537109375,-0.9986724853515625,-0.024658203125,0.0044097900390625
1772702159623974700,3.885974609375,-0.998870849609375,-0.0240325927734375,0.0028228759765625
1772702159634024700,3.896024658203125,-0.9995269775390625,-0.0230255126953125,0.0022735595703125
1772702159644073700,3.90607373046875,-1.0001220703125,-0.0224456787109375,0.001922607421875
1772702159654123800,3.916123779296875,-1.0003509521484375,-0.0245513916015625,0.0042724609375
1772702159664172500,3.926172607421875,-1.000030517578125,-0.023681640625,0.004058837890625
1772702159674222600,3.93622265625,-0.998291015625,-0.0230712890625,0.0028839111328125
1772702159684271600,3.946271728515625,-0.9989471435546875,-0.02484130859375,0.0045318603515625
1772702159694321700,3.95632177734375,-0.999542236328125,-0.0234832763671875,0.004913330078125
1772702159704370700,3.96637060546875,-0.99908447265625,-0.0230255126953125,0.004913330078125
1772702159714420700,3.976420654296875,-1.000213623046875,-0.0245361328125,0.00457763671875
1772702159724469800,3.9864697265625,-0.9998931884765625,-0.02410888671875,0.0026397705078125
1772702159734519800,3.996519775390625,-0.99884033203125,-0.0240325927734375,0.00384521484375
1772702159744568600,4.006568603515625,-0.998016357421875,-0.02484130859375,0.0039825439453125
1772702159754618600,4.01661865234375,-0.99853515625,-0.023834228515625,0.001922607421875
1772702159764667600,4.026667724609375,-0.9990997314453125,-0.025604248046875,0.0040740966796875
1772702159774717700,4.0367177734375,-1.0003509521484375,-0.0239105224609375,0.00335693359375
1772702159784766700,4.0467666015625,-0.999420166015625,-0.025360107421875,0.0045623779296875
1772702159794816800,4.056816650390625,-1.0001373291015625,-0.0247955322265625,0.002288818359375
1772702159804865500,4.066865478515625,-0.9996795654296875,-0.0229339599609375,0.0050811767578125
1772702159814915600,4.07691552734375,-0.999237060546875,-0.0229339599609375,0.0037841796875
1772702159824964900,4.08696484375,-0.999114990234375,-0.0234527587890625,0.0023651123046875
1772702159835014700,4.0970146484375,-0.9993438720703125,-0.0227508544921875,0.00421142578125
1772702159845063700,4.107063720703125,-0.9991302490234375,-0.0225067138671875,0.0058746337890625
1772702159855113700,4.11711376953125,-0.9992218017578125,-0.0223388671875,0.0048370361328125
1772702159865162500,4.12716259765625,-0.999053955078125,-0.023040771484375,0.002838134765625
1772702159875212500,4.137212646484375,-0.9990692138671875,-0.024505615234375,0.003173828125
1772702159885261800,4.14726171875,-1.000244140625,-0.0236358642578125,0.0040740966796875
1772702159895311600,4.1573115234375,-0.9990386962890625,-0.02362060546875,0.0060882568359375
1772702159905360600,4.167360595703125,-0.9986419677734375,-0.023681640625,0.0054168701171875
1772702159915410700,4.17741064453125,-0.999359130859375,-0.0237274169921875,0.004608154296875
1772702159925459700,4.187459716796875,-0.9992523193359375,-0.02362060546875,0.0027618408203125
1772702159935509800,4.197509765625,-0.9987945556640625,-0.0241851806640625,0.0019378662109375
1772702159945558800,4.207558837890625,-0.9988555908203125,-0.0232696533203125,0.0026397705078125
1772702159955608600,4.217608642578125,-0.9988555908203125,-0.024688720703125,0.004364013671875
1772702159965657600,4.22765771484375,-1.0002899169921875,-0.0245208740234375,0.0052947998046875
1772702159975707600,4.237707763671875,-0.9994049072265625,-0.0237274169921875,0.005523681640625
1772702159985756700,4.247756591796875,-0.9990386962890625,-0.025115966796875,0.006011962890625
1772702159995806700,4.257806640625,-1.000244140625,-0.025054931640625,0.0025787353515625
1772702160005855500,4.26785546875,-0.9984130859375,-0.024871826171875,0.003082275390625
1772702160015905500,4.277905517578125,-1.000091552734375,-0.0255126953125,0.003021240234375
1772702160025954800,4.287954833984375,-0.9987335205078125,-0.024139404296875,0.0033416748046875
1772702160036004900,4.2980048828125,-0.9984588623046875,-0.02374267578125,0.0033111572265625
1772702160046053600,4.3080537109375,-0.9990997314453125,-0.022430419921875,0.0035552978515625
1772702160056103700,4.318103759765625,-0.9986419677734375,-0.023284912109375,0.0022735595703125
1772702160066152400,4.32815234375,-0.99835205078125,-0.0243682861328125,0.00274658203125
1772702160076202800,4.33820263671875,-0.998504638671875,-0.0245361328125,0.0039520263671875
1772702160086251800,4.348251708984375,-0.9986419677734375,-0.0252227783203125,0.003326416015625
1772702160096301800,4.3583017578125,-0.99908447265625,-0.0244140625,0.00360107421875
1772702160106350600,4.3683505859375,-0.999908447265625,-0.0235443115234375,0.00372314453125
1772702160116400600,4.378400634765625,-0.9986419677734375,-0.0239715576171875,0.0039215087890625
1772702160126449700,4.38844970703125,-0.9992218017578125,-0.0237274169921875,0.0040435791015625
1772702160136499700,4.398499755859375,-0.9992523193359375,-0.024200439453125,0.00396728515625
1772702160146548700,4.408548828125,-0.99908447265625,-0.023834228515625,0.002899169921875
1772702160156598500,4.4185986328125,-0.9994659423828125,-0.023712158203125,0.00360107421875
1772702160166647600,4.4286474609375,-0.9986114501953125,-0.0228424072265625,0.0027618408203125
1772702160176697900,4.43869775390625,-0.9986724853515625,-0.0258026123046875,0.0043182373046875
1772702160186746600,4.44874658203125,-0.9995269775390625,-0.0238189697265625,0.0054473876953125
1772702160196796700,4.458796630859375,-1.000030517578125,-0.024566650390625,0.006072998046875
1772702160206845700,4.468845703125,-0.998809814453125,-0.0256500244140625,0.0040740966796875
1772702160216895500,4.4788955078125,-0.9990997314453125,-0.02471923828125,0.00439453125
1772702160226944800,4.48894482421875,-0.99981689453125,-0.023345947265625,0.004638671875
1772702160236994800,4.498994873046875,-1.00030517578125,-0.0246734619140625,0.0030364990234375
1772702160247043600,4.509043701171875,-0.998687744140625,-0.0228118896484375,0.0043182373046875
1772702160257093600,4.51909375,-0.9987945556640625,-0.02227783203125,0.004241943359375
1772702160267142700,4.529142578125,-0.9987640380859375,-0.02435302734375,0.0055389404296875
1772702160277192700,4.539192626953125,-0.9995269775390625,-0.0251922607421875,0.0034332275390625
1772702160287241700,4.54924169921875,-0.9996490478515625,-0.0249176025390625,0.0044097900390625
1772702160297291800,4.559291748046875,-0.99981689453125,-0.0243072509765625,0.0031585693359375
1772702160307340500,4.569340576171875,-0.9997406005859375,-0.0247344970703125,0.0036163330078125
1772702160317390600,4.579390625,-0.997467041015625,-0.02325439453125,0.0025177001953125
1772702160327440000,4.58943994140625,-0.9986419677734375,-0.02349853515625,0.0027923583984375
1772702160337489700,4.59948974609375,-1.0005340576171875,-0.0224456787109375,0.0040740966796875
1772702160347538700,4.60953857421875,-0.9992828369140625,-0.022216796875,0.0048980712890625
1772702160357588700,4.619588623046875,-0.999481201171875,-0.0225982666015625,0.0048980712890625
1772702160367637800,4.6296376953125,-0.99932861328125,-0.023590087890625,0.00335693359375
1772702160377687800,4.639687744140625,-0.9989166259765625,-0.0234832763671875,0.0029144287109375
1772702160387736600,4.649736572265625,-0.9993743896484375,-0.024810791015625,0.0020751953125
1772702160397786600,4.65978662109375,-0.999420166015625,-0.024322509765625,0.0025482177734375
1772702160407835600,4.669835693359375,-0.997894287109375,-0.024627685546875,0.004638671875
1772702160417885700,4.6798857421875,-0.9978179931640625,-0.024627685546875,0.00653076171875
1772702160427934700,4.689934814453125,-0.9991455078125,-0.0233917236328125,0.0036468505859375
1772702160437984800,4.69998486328125,-1.0000152587890625,-0.0220794677734375,0.0039825439453125
1772702160448033500,4.710033447265625,-0.99920654296875,-0.022705078125,0.0026702880859375
1772702160458083600,4.72008349609375,-1.00006103515625,-0.0234222412109375,0.0023956298828125
1772702160468132600,4.730132568359375,-1.00054931640625,-0.0225372314453125,0.003692626953125
1772702160478183000,4.740182861328125,-0.99969482421875,-0.024261474609375,0.003509521484375
1772702160488231700,4.750231689453125,-0.99908447265625,-0.0233612060546875,0.003509521484375
1772702160498281700,4.76028173828125,-0.999969482421875,-0.0244903564453125,0.0034027099609375
1772702160508331800,4.770331787109375,-1.0003509521484375,-0.0261077880859375,0.00408935546875
1772702160518380500,4.780380615234375,-0.9982147216796875,-0.0237274169921875,0.0040740966796875
1772702160528429800,4.790429931640625,-1.0005340576171875,-0.02398681640625,0.004302978515625
1772702160538479600,4.800479736328125,-0.9984588623046875,-0.025146484375,0.00439453125
1772702160548528600,4.810528564453125,-0.9983367919921875,-0.02191162109375,0.00390625
1772702160558578700,4.82057861328125,-1.0000762939453125,-0.02294921875,0.0039215087890625
1772702160568627200,4.830627197265625,-0.9993133544921875,-0.02325439453125,0.0035858154296875
1772702160578677200,4.84067724609375,-0.99853515625,-0.0245361328125,0.00262451171875
1772702160588727300,4.850727294921875,-0.999114990234375,-0.0247955322265625,0.0050811767578125
1772702160598776000,4.860776123046875,-0.997100830078125,-0.023529052734375,0.005279541015625
1772702160608826000,4.870826171875,-1.000579833984375,-0.024688720703125,0.0040130615234375
1772702160618875400,4.88087548828125,-1.000244140625,-0.025726318359375,0.002471923828125
1772702160628924200,4.890924072265625,-1.0010528564453125,-0.022705078125,0.0016326904296875
1772702160638974200,4.90097412109375,-0.9994354248046875,-0.0241546630859375,0.003875732421875
1772702160649023200,4.911023193359375,-0.9995574951171875,-0.0235748291015625,0.0037689208984375
1772702160659073000,4.921072998046875,-0.9998016357421875,-0.0242462158203125,0.0034332275390625
1772702160669122300,4.931122314453125,-0.999359130859375,-0.0242767333984375,0.005157470703125
1772702160679172400,4.94117236328125,-0.999237060546875,-0.0238037109375,0.00634765625
1772702160689222400,4.951222412109375,-0.999114990234375,-0.023223876953125,0.0057373046875
1772702160699271200,4.961271240234375,-0.99859619140625,-0.0235748291015625,0.0032196044921875
1772702160709321200,4.9713212890625,-0.998779296875,-0.0240325927734375,0.0039215087890625
1772702160719370200,4.981370361328125,-0.9996795654296875,-0.0244598388671875,0.0032196044921875
1772702160729420300,4.991420166015625,-0.9990386962890625,-0.0226593017578125,0.0050048828125
1772702160739469300,5.00146923828125,-0.9992828369140625,-0.0230255126953125,0.003387451171875
1772702160749519000,5.01151904296875,-0.9998626708984375,-0.023956298828125,0.005157470703125
1772702160759568100,5.021568115234375,-0.9988861083984375,-0.02362060546875,0.0031280517578125
1772702160769617400,5.031617431640625,-0.998779296875,-0.023651123046875,0.0042724609375
1772702160779667200,5.041667236328125,-0.9996185302734375,-0.0250701904296875,0.003875732421875
1772702160789717200,5.05171728515625,-0.9979400634765625,-0.024261474609375,0.004974365234375
1772702160799766300,5.061766357421875,-0.999053955078125,-0.02374267578125,0.0026397705078125
1772702160809816000,5.071816162109375,-0.9993743896484375,-0.02294921875,0.0040283203125
1772702160819865300,5.081865234375,-0.999237060546875,-0.02294921875,0.00531005859375
1772702160829915400,5.091915283203125,-0.9998321533203125,-0.0236053466796875,0.0038604736328125
1772702160839964200,5.101964111328125,-0.9989471435546875,-0.0248870849609375,0.0051116943359375
1772702160850014200,5.11201416015625,-0.9986572265625,-0.02545166015625,0.0045623779296875
1772702160860063200,5.122063232421875,-0.9976348876953125,-0.0253143310546875,0.0035247802734375
1772702160870113000,5.132113037109375,-0.9989166259765625,-0.0244903564453125,0.00390625
1772702160880162300,5.142162353515625,-1.000030517578125,-0.0244140625,0.00250244140625
1772702160890211000,5.152211181640625,-0.9992523193359375,-0.024322509765625,0.0045013427734375
1772702160900261000,5.16226123046875,-1.00006103515625,-0.022979736328125,0.0035552978515625
1772702160910311200,5.172311279296875,-0.999786376953125,-0.02337646484375,0.004241943359375
1772702160920360400,5.1823603515625,-0.9987945556640625,-0.0228271484375,0.0037384033203125
1772702160930410200,5.19241015625,-0.9982757568359375,-0.0232086181640625,0.0046234130859375
1772702160940459300,5.202459228515625,-0.9992218017578125,-0.024322509765625,0.0062255859375
1772702160950509300,5.21250927734375,-0.9977874755859375,-0.0234375,0.0029296875
1772702160960558000,5.22255810546875,-1.00006103515625,-0.02435302734375,0.003631591796875
1772702160970608000,5.232608154296875,-1.0002288818359375,-0.0243682861328125,0.0041656494140625
1772702160980657200,5.2426572265625,-1.000640869140625,-0.0234222412109375,0.0037384033203125
1772702160990707200,5.252707275390625,-1.0004425048828125,-0.023681640625,0.005279541015625
1772702161000756200,5.262756103515625,-0.9989013671875,-0.02301025390625,0.004364013671875
1772702161010806300,5.27280615234375,-1.0001068115234375,-0.02447509765625,0.0031890869140625
1772702161020855300,5.282855224609375,-0.9984130859375,-0.023712158203125,0.003997802734375
1772702161030905300,5.2929052734375,-0.998870849609375,-0.023284912109375,0.003692626953125
1772702161040954000,5.3029541015625,-0.9996337890625,-0.0249481201171875,0.0023651123046875
1772702161051004200,5.313004150390625,-0.99822998046875,-0.023773193359375,0.0037078857421875
1772702161061052400,5.323052490234375,-0.9973602294921875,-0.024169921875,0.0055694580078125
1772702161071102200,5.333102294921875,-0.99908447265625,-0.023834228515625,0.0039520263671875
1772702161081151200,5.343151123046875,-0.9998931884765625,-0.0216217041015625,0.0023345947265625
1772702161091201300,5.353201171875,-0.9989471435546875,-0.0242767333984375,0.002532958984375
1772702161101250000,5.36325,-0.998992919921875,-0.0235443115234375,0.0035247802734375
1772702161111300400,5.37330029296875,-0.9998931884765625,-0.0236358642578125,0.0049896240234375
1772702161121349400,5.383349365234375,-0.999267578125,-0.0255889892578125,0.0036773681640625
1772702161131399200,5.393399169921875,-1.0011749267578125,-0.02459716796875,0.0032806396484375
1772702161141448200,5.4034482421875,-0.9993896484375,-0.0241851806640625,0.0055389404296875
1772702161151498200,5.413498291015625,-0.999114990234375,-0.0246734619140625,0.0038299560546875
1772702161161547300,5.42354736328125,-0.998748779296875,-0.024169921875,0.0037384033203125
1772702161171597300,5.433597412109375,-0.998748779296875,-0.023223876953125,0.0046539306640625
1772702161181646000,5.44364599609375,-0.998992919921875,-0.02496337890625,0.0045318603515625
1772702161191696100,5.453696044921875,-0.99951171875,-0.0246429443359375,0.00311279296875
1772702161201745200,5.4637451171875,-0.99920654296875,-0.0240325927734375,0.0026397705078125
1772702161211795500,5.47379541015625,-0.9971466064453125,-0.0232696533203125,0.0036773681640625
1772702161221844200,5.48384423828125,-0.9992828369140625,-0.022491455078125,0.0028533935546875
1772702161231894300,5.493894287109375,-1.0002288818359375,-0.0240936279296875,0.004608154296875
1772702161241943000,5.503943115234375,-0.9982757568359375,-0.024200439453125,0.0059356689453125
1772702161251993000,5.5139931640625,-0.9992218017578125,-0.0250244140625,0.0055999755859375
1772702161262043100,5.524043212890625,-0.9991607666015625,-0.0235595703125,0.0049285888671875
1772702161272092200,5.534092041015625,-0.9989166259765625,-0.0233612060546875,0.0052947998046875
1772702161282141200,5.54414111328125,-0.9988555908203125,-0.023590087890625,0.0047149658203125
1772702161292191200,5.554191162109375,-0.999847412109375,-0.0229339599609375,0.0048370361328125
1772702161302240300,5.564240234375,-0.9984283447265625,-0.0222930908203125,0.00433349609375
1772702161312290300,5.574290283203125,-0.998626708984375,-0.0234375,0.0052642822265625
1772702161322339300,5.58433935546875,-0.9990234375,-0.024383544921875,0.0046539306640625
1772702161332389000,5.59438916015625,-0.9998931884765625,-0.0237884521484375,0.0013580322265625
1772702161342438100,5.604438232421875,-0.9998626708984375,-0.02447509765625,0.003021240234375
1772702161352488200,5.61448828125,-0.998809814453125,-0.0241851806640625,0.00640869140625
1772702161362537200,5.624537109375,-1.0002899169921875,-0.02423095703125,0.004913330078125
1772702161372587300,5.634587158203125,-0.9990997314453125,-0.024139404296875,0.0045013427734375
1772702161382636300,5.64463623046875,-0.9988250732421875,-0.0228271484375,0.0034637451171875
1772702161392686000,5.65468603515625,-0.99957275390625,-0.0248870849609375,0.003143310546875
1772702161402736000,5.664736083984375,-1.0001220703125,-0.0238189697265625,0.0024871826171875
1772702161412785400,5.674785400390625,-0.9992218017578125,-0.022552490234375,0.0047149658203125
1772702161422835200,5.684835205078125,-1.0000457763671875,-0.0240478515625,0.004119873046875
1772702161432885200,5.69488525390625,-1.0006256103515625,-0.0241546630859375,0.0035400390625
1772702161442934300,5.704934326171875,-1.0001373291015625,-0.02362060546875,0.0039520263671875
1772702161452984300,5.714984375,-0.9989166259765625,-0.0244293212890625,0.004486083984375
1772702161463033000,5.725033203125,-0.999114990234375,-0.0239410400390625,0.0024261474609375
1772702161473083100,5.735083251953125,-0.999359130859375,-0.0230712890625,0.0020904541015625
1772702161483132200,5.745132080078125,-0.99884033203125,-0.023406982421875,0.00396728515625
1772702161493182200,5.75518212890625,-0.9992523193359375,-0.0237884521484375,0.0037689208984375
1772702161503231200,5.765231201171875,-0.9983978271484375,-0.02386474609375,0.005035400390625
1772702161513281000,5.775281005859375,-0.999359130859375,-0.024078369140625,0.004913330078125
1772702161523330300,5.785330322265625,-0.9988555908203125,-0.02423095703125,0.00469970703125
1772702161533380400,5.79538037109375,-0.999053955078125,-0.02349853515625,0.0037689208984375
1772702161543429000,5.80542919921875,-0.999969482421875,-0.0247039794921875,0.0040740966796875
1772702161553479200,5.815479248046875,-0.99859619140625,-0.0247802734375,0.0042266845703125
1772702161563529000,5.825529052734375,-1.000579833984375,-0.0229034423828125,0.003814697265625
1772702161573579000,5.8355791015625,-0.999603271484375,-0.021148681640625,0.0030670166015625
1772702161583628000,5.8456279296875,-0.9988555908203125,-0.02294921875,0.0030670166015625
1772702161593678000,5.855677978515625,-0.9989471435546875,-0.0236968994140625,0.003387451171875
1772702161603727000,5.86572705078125,-0.9991607666015625,-0.023406982421875,0.0039825439453125
1772702161613777200,5.875777099609375,-1.000213623046875,-0.02392578125,0.004913330078125
1772702161623826000,5.885825927734375,-0.9993133544921875,-0.0254669189453125,0.004364013671875
1772702161633876000,5.8958759765625,-0.9994964599609375,-0.0237884521484375,0.00421142578125
1772702161643925000,5.905925048828125,-0.9982757568359375,-0.022552490234375,0.003173828125
1772702161653975000,5.91597509765625,-0.9993743896484375,-0.0228118896484375,0.0042724609375
1772702161664024000,5.926024169921875,-0.9981689453125,-0.0232696533203125,0.0039520263671875
1772702161674073900,5.936073974609375,-0.9993133544921875,-0.024444580078125,0.00494384765625
1772702161684123100,5.946123046875,-0.99896240234375,-0.024200439453125,0.0040435791015625
1772702161694173200,5.956173095703125,-0.9992218017578125,-0.024749755859375,0.002960205078125
1772702161704222000,5.966221923828125,-0.999664306640625,-0.025909423828125,0.0047760009765625
1772702161714272000,5.97627197265625,-0.99853515625,-0.0243988037109375,0.00164794921875
1772702161724321000,5.986321044921875,-0.99957275390625,-0.02532958984375,0.004486083984375
1772702161734371000,5.99637109375,-0.9985198974609375,-0.025115966796875,0.0051116943359375
1772702161744420000,6.006420166015625,-0.999969482421875,-0.0237579345703125,0.0069427490234375
1772702161754470100,6.01647021484375,-1.0001373291015625,-0.0225677490234375,0.0045013427734375
1772702161764519000,6.026518798828125,-0.998931884765625,-0.022796630859375,0.0023956298828125
1772702161774569000,6.03656884765625,-0.9996490478515625,-0.022735595703125,0.00408935546875
1772702161784618200,6.0466181640625,-0.9974517822265625,-0.023773193359375,0.0044708251953125
1772702161794668000,6.05666796875,-0.997711181640625,-0.025238037109375,0.0049285888671875
1772702161804717000,6.066717041015625,-0.999420166015625,-0.0238189697265625,0.0037689208984375
1772702161814767000,6.07676708984375,-1.0010223388671875,-0.0221099853515625,0.0039520263671875
1772702161824815900,6.08681591796875,-0.998260498046875,-0.0230712890625,0.003173828125
1772702161834866000,6.096865966796875,-0.9982452392578125,-0.02325439453125,0.002685546875
1772702161844915200,6.106915283203125,-0.9996337890625,-0.02435302734375,0.0040283203125
1772702161854965000,6.116965087890625,-0.999114990234375,-0.024078369140625,0.00335693359375
1772702161865014000,6.127013916015625,-0.99920654296875,-0.0228271484375,0.0040435791015625
1772702161875064000,6.13706396484375,-1.0005035400390625,-0.0240936279296875,0.003387451171875
1772702161885113000,6.147113037109375,-1.0009765625,-0.0235748291015625,0.0044097900390625
1772702161895163100,6.1571630859375,-0.998992919921875,-0.0240020751953125,0.0046539306640625
1772702161905212200,6.167212158203125,-0.999237060546875,-0.0245208740234375,0.0048370361328125
1772702161915262000,6.177261962890625,-0.9988250732421875,-0.0247039794921875,0.004791259765625
1772702161925311000,6.18731103515625,-0.998626708984375,-0.0247802734375,0.0039520263671875
1772702161935361000,6.197361083984375,-0.9985809326171875,-0.02392578125,0.0037994384765625
1772702161945410000,6.20741015625,-0.9983978271484375,-0.022430419921875,0.0045318603515625
1772702161955460000,6.217460205078125,-0.9992523193359375,-0.0228729248046875,0.0031585693359375
1772702161965508900,6.2275087890625,-0.99945068359375,-0.0238800048828125,0.003662109375
1772702161975559000,6.237558837890625,-0.999847412109375,-0.0229034423828125,0.003326416015625
1772702161985608200,6.247608154296875,-0.9982147216796875,-0.024810791015625,0.0041351318359375
1772702161995658200,6.257658203125,-0.9999237060546875,-0.0236053466796875,0.0057830810546875
1772702162005707000,6.26770703125,-0.999481201171875,-0.0257110595703125,0.0041961669921875
1772702162015757000,6.277757080078125,-0.9993438720703125,-0.0226287841796875,0.0040740966796875
1772702162025805800,6.287805908203125,-0.9994354248046875,-0.02392578125,0.0051727294921875
1772702162035856100,6.297856201171875,-0.999053955078125,-0.0229949951171875,0.00433349609375
1772702162045905200,6.3079052734375,-1.0004730224609375,-0.0228118896484375,0.005157470703125
1772702162055955000,6.317954833984375,-0.999114990234375,-0.0239105224609375,0.005035400390625
1772702162066004000,6.32800390625,-0.998382568359375,-0.0238189697265625,0.0035858154296875
1772702162076054000,6.338053955078125,-0.99969482421875,-0.0228118896484375,0.00433349609375
1772702162086103000,6.34810302734375,-0.999176025390625,-0.02423095703125,0.002960205078125
1772702162096153000,6.358153076171875,-0.998809814453125,-0.0250701904296875,0.004791259765625
1772702162106202000,6.3682021484375,-0.9998779296875,-0.0228424072265625,0.005523681640625
1772702162116252000,6.378251953125,-0.9979248046875,-0.0236968994140625,0.0047607421875
1772702162126301000,6.388301025390625,-0.9989013671875,-0.023956298828125,0.0038909912109375
1772702162136351200,6.398351318359375,-0.9991607666015625,-0.0241241455078125,0.0036773681640625
1772702162146400000,6.40839990234375,-0.998748779296875,-0.0233001708984375,0.0040130615234375
1772702162156450000,6.418449951171875,-1.000152587890625,-0.0233612060546875,0.003692626953125
1772702162166499000,6.4284990234375,-0.9990081787109375,-0.021728515625,0.002960205078125
1772702162176548900,6.438548828125,-1.0009765625,-0.0236968994140625,0.004425048828125
1772702162186598100,6.44859814453125,-0.9985198974609375,-0.022735595703125,0.0034637451171875
1772702162196648200,6.458648193359375,-0.9980621337890625,-0.0238800048828125,0.0043792724609375
1772702162206697000,6.468697021484375,-0.99871826171875,-0.0244598388671875,0.0036163330078125
1772702162216747000,6.4787470703125,-0.998565673828125,-0.0245361328125,0.005859375
1772702162226796000,6.488796142578125,-0.9996490478515625,-0.023193359375,0.00439453125
1772702162236846000,6.49884619140625,-0.9988250732421875,-0.0223541259765625,0.0030975341796875
1772702162246895000,6.50889501953125,-0.9979248046875,-0.02264404296875,0.006256103515625
1772702162256945200,6.518945068359375,-0.999664306640625,-0.0235748291015625,0.004913330078125
1772702162266994000,6.528993896484375,-1.000518798828125,-0.0236663818359375,0.0040740966796875
1772702162277044000,6.5390439453125,-0.9983062744140625,-0.0238037109375,0.0027313232421875
1772702162287093200,6.54909326171875,-0.9993743896484375,-0.02410888671875,0.0036468505859375
1772702162297143000,6.55914306640625,-1.0001983642578125,-0.0237274169921875,0.004486083984375
1772702162307192000,6.569192138671875,-0.9986419677734375,-0.0234222412109375,0.0049591064453125
1772702162317242000,6.5792421875,-1.000518798828125,-0.0232696533203125,0.0053558349609375
1772702162327291100,6.589291015625,-0.999420166015625,-0.0248870849609375,0.0035552978515625
1772702162337341200,6.599341064453125,-0.9983673095703125,-0.0237274169921875,0.004180908203125
1772702162347390000,6.609389892578125,-0.9993896484375,-0.02362060546875,0.0049896240234375
1772702162357440000,6.61943994140625,-0.99896240234375,-0.0240478515625,0.0038299560546875
1772702162367489000,6.629489013671875,-0.99871826171875,-0.025848388671875,0.0050811767578125
1772702162377539000,6.6395390625,-0.999114990234375,-0.02386474609375,0.004913330078125
1772702162387588000,6.649588134765625,-0.9989166259765625,-0.0238037109375,0.00457763671875
1772702162397638100,6.65963818359375,-1.0006561279296875,-0.023162841796875,0.0058441162109375
1772702162407687000,6.66968701171875,-0.9993743896484375,-0.02215576171875,0.0042572021484375
1772702162417737000,6.679737060546875,-1.000244140625,-0.023773193359375,0.00372314453125
1772702162427786000,6.689785888671875,-1.000030517578125,-0.025421142578125,0.0018463134765625
1772702162437836300,6.699836181640625,-0.99920654296875,-0.0270233154296875,0.0043792724609375
1772702162447885000,6.709885009765625,-0.9999542236328125,-0.025390625,0.005279541015625
1772702162457935000,6.71993505859375,-0.9987945556640625,-0.0226287841796875,0.0052642822265625
1772702162467984000,6.72998388671875,-0.9991302490234375,-0.023040771484375,0.004058837890625
1772702162478034000,6.740033935546875,-0.9986724853515625,-0.022216796875,0.0054168701171875
1772702162488083200,6.750083251953125,-0.9990234375,-0.02325439453125,0.003631591796875
1772702162498133000,6.760133056640625,-0.999298095703125,-0.024139404296875,0.004150390625
1772702162508182000,6.77018212890625,-0.99920654296875,-0.024658203125,0.0040130615234375
1772702162518232000,6.780232177734375,-0.9992218017578125,-0.0260009765625,0.0048065185546875
1772702162528281000,6.790281005859375,-0.999481201171875,-0.0235137939453125,0.0024261474609375
1772702162538331100,6.8003310546875,-0.9993133544921875,-0.0222320556640625,0.003509521484375
1772702162548380200,6.810380126953125,-0.998321533203125,-0.022430419921875,0.004730224609375
1772702162558430000,6.820429931640625,-0.9989013671875,-0.02325439453125,0.0034637451171875
1772702162568479200,6.830479248046875,-0.999664306640625,-0.0239105224609375,0.0047760009765625
1772702162578529000,6.840529052734375,-0.9994354248046875,-0.02398681640625,0.0036468505859375
1772702162588578300,6.850578369140625,-0.9996795654296875,-0.023956298828125,0.0035552978515625
1772702162598628400,6.86062841796875,-0.9987335205078125,-0.0236053466796875,0.003997802734375
1772702162608677000,6.870677001953125,-0.9986419677734375,-0.024017333984375,0.005645751953125
1772702162618727200,6.88072705078125,-0.997955322265625,-0.0236053466796875,0.0045166015625
1772702162628776200,6.890776123046875,-1.000518798828125,-0.0233917236328125,0.0038604736328125
1772702162638826200,6.900826171875,-0.999725341796875,-0.0232391357421875,0.005523681640625
1772702162648875300,6.910875244140625,-1.00067138671875,-0.0250091552734375,0.00299072265625
1772702162658925300,6.92092529296875,-0.999481201171875,-0.02581787109375,0.002349853515625
1772702162668974000,6.93097412109375,-0.9995269775390625,-0.0248260498046875,0.00347900390625
1772702162679024000,6.941024169921875,-0.9993896484375,-0.0242919921875,0.003570556640625
1772702162689073400,6.951073486328125,-0.999664306640625,-0.022308349609375,0.003570556640625
1772702162699123200,6.961123291015625,-0.9999237060546875,-0.022705078125,0.0047149658203125
1772702162709172200,6.971172119140625,-1.0001068115234375,-0.0240325927734375,0.0045013427734375
1772702162719222300,6.98122216796875,-0.9998931884765625,-0.0251922607421875,0.0046844482421875
1772702162729271300,6.991271240234375,-0.9996337890625,-0.024261474609375,0.0050048828125
1772702162739321300,7.0013212890625,-0.998626708984375,-0.0238037109375,0.0048828125
1772702162749370400,7.011370361328125,-0.998687744140625,-0.024505615234375,0.00445556640625
1772702162759420200,7.021420166015625,-0.9993438720703125,-0.0246734619140625,0.0045623779296875
1772702162769469200,7.03146923828125,-1.001190185546875,-0.0220947265625,0.0042572021484375
1772702162779519200,7.041519287109375,-1.00018310546875,-0.0229339599609375,0.002838134765625
1772702162789568300,7.051568359375,-0.99981689453125,-0.0246429443359375,0.0030059814453125
1772702162799618300,7.061618408203125,-1.0007781982421875,-0.02288818359375,0.0034027099609375
1772702162809667000,7.0716669921875,-0.9989013671875,-0.0223846435546875,0.004150390625
1772702162819717000,7.081717041015625,-0.9993743896484375,-0.02386474609375,0.0042724609375
1772702162829766400,7.091766357421875,-0.9989013671875,-0.0236053466796875,0.003814697265625
1772702162839816400,7.10181640625,-0.9978179931640625,-0.0228729248046875,0.0033721923828125
1772702162849865200,7.111865234375,-1.0002899169921875,-0.0236663818359375,0.00482177734375
1772702162859915300,7.121915283203125,-0.9990081787109375,-0.0215911865234375,0.0031585693359375
1772702162869964000,7.131964111328125,-0.9995574951171875,-0.0221710205078125,0.003143310546875
1772702162880014000,7.14201416015625,-0.998504638671875,-0.02288818359375,0.0042266845703125
1772702162890063400,7.1520634765625,-0.9981689453125,-0.0244903564453125,0.0033111572265625
1772702162900113200,7.162113037109375,-0.9990081787109375,-0.025115966796875,0.002838134765625
1772702162910162200,7.172162109375,-0.9992218017578125,-0.02496337890625,0.0037384033203125
1772702162920212200,7.182212158203125,-1.0007781982421875,-0.0237274169921875,0.0038299560546875
1772702162930261200,7.19226123046875,-0.9989776611328125,-0.0235443115234375,0.0037689208984375
1772702162940311300,7.202311279296875,-0.999786376953125,-0.0235443115234375,0.004241943359375
1772702162950360300,7.2123603515625,-0.9985198974609375,-0.024017333984375,0.0036773681640625
1772702162960410000,7.22241015625,-0.9997100830078125,-0.02398681640625,0.0047760009765625
1772702162970459100,7.232459228515625,-0.999664306640625,-0.0236053466796875,0.0055389404296875
1772702162980509200,7.24250927734375,-1.00048828125,-0.023773193359375,0.004913330078125
1772702162990558200,7.25255810546875,-0.998931884765625,-0.024017333984375,0.00604248046875
1772702163000608300,7.262608154296875,-0.9996795654296875,-0.0242462158203125,0.0040130615234375
1772702163010657300,7.2726572265625,-0.999847412109375,-0.0245819091796875,0.00341796875
1772702163020707000,7.28270703125,-1.0000762939453125,-0.024688720703125,0.0038299560546875
1772702163030756400,7.29275634765625,-0.9999237060546875,-0.024383544921875,0.0047607421875
1772702163040806400,7.302806396484375,-1.0042266845703125,-0.0240478515625,0.0021514892578125
1772702163050855200,7.312855224609375,-0.9992828369140625,-0.0235443115234375,0.0042572021484375
1772702163060905200,7.3229052734375,-1.002685546875,-0.024566650390625,0.00433349609375
1772702163070954200,7.332954345703125,-0.9919586181640625,-0.0259857177734375,0.006195068359375
1772702163081004000,7.343004150390625,-0.98651123046875,-0.0264434814453125,0.008544921875
1772702163091053300,7.35305322265625,-1.0001068115234375,-0.0234222412109375,0.004638671875
1772702163101103400,7.363103271484375,-1.0123748779296875,-0.021820068359375,0.000762939453125
1772702163111152000,7.373152099609375,-0.9948883056640625,-0.0218353271484375,0.0070037841796875
1772702163121202200,7.3832021484375,-1.0028533935546875,-0.021728515625,0.003662109375
1772702163131251500,7.39325146484375,-0.9990234375,-0.0229339599609375,0.0039825439453125
