time,seconds_elapsed,z,y,x
1772702155795114200,0.0571142578125,-0.000483363721286878,0.009040899574756622,0.0019912454299628735
1772702155805163300,0.067163330078125,-0.0016074840677902102,0.00760998297482729,-0.0021672805305570364
1772702155815213300,0.07721337890625,-0.0002519350382499397,0.00920521654188633,0.0007193197961896658
1772702155825262000,0.087261962890625,-0.002010420197620988,0.009513343684375286,0.0006500775925815105
1772702155835312000,0.09731201171875,-0.0026130937039852142,0.008941829204559326,-0.0023723437916487455
1772702155845361200,0.107361083984375,0.00045593318645842373,0.005000350996851921,-0.00029534456552937627
1772702155855411200,0.1174111328125,-0.0023276028223335743,0.006583600305020809,0.0004695153038483113
1772702155865460200,0.127460205078125,-0.0018455706303939223,0.00663420045748353,-0.0002937466779258102
1772702155875510300,0.13751025390625,-0.0006500775925815105,0.006650179624557495,-0.0023616913240402937
1772702155885559000,0.14755908203125,-0.001406947965733707,0.005248025059700012,-0.0005640574963763356
1772702155895609000,0.157609130859375,-0.00008255799184553325,0.008616391569375992,0.0009829727932810783
1772702155905658400,0.167658447265625,-0.0029001825023442507,0.007722101639956236,-0.0010290454374626279
1772702155915708200,0.177708251953125,-0.0015909724170342088,0.008115184493362904,-0.0017129451734945178
1772702155925757200,0.187757080078125,-0.001186970854178071,0.00809281412512064,-0.00004340952364145778
1772702155935807200,0.19780712890625,-0.00250470289029181,0.009695770218968391,-0.003108175238594413
1772702155945856000,0.20785595703125,-0.0017275925492867827,0.009015066549181938,-0.001683384063653648
1772702155955906000,0.217906005859375,-0.0029800771735608578,0.006627276539802551,-0.0015371765475720167
1772702155965955300,0.227955322265625,-0.0003605920064728707,0.009221994318068027,0.0004111920716241002
1772702155976005000,0.238005126953125,-0.0019233349012210965,0.006359362509101629,-0.0035598473623394966
1772702155986054100,0.24805419921875,-0.0039007319137454033,0.005820871330797672,0.0009259810904040933
1772702155996104200,0.258104248046875,0.0003158508916385472,0.00896686315536499,-0.0005448827287182212
1772702156006153200,0.2681533203125,-0.0016793893883004785,0.00836898386478424,0.0013957626651972532
1772702156016203300,0.278203369140625,-0.002596848411485553,0.00788455456495285,0.0015954998089000583
1772702156026252300,0.288252197265625,-0.0020391824655234814,0.008216384798288345,-0.0002516687090974301
1772702156036302000,0.298302001953125,0.000015446334145963192,0.008108260110020638,0.0009366337326355278
1772702156046351000,0.30835107421875,0.0003733751946128905,0.005045358557254076,-0.00019387812062632293
1772702156056401200,0.318401123046875,-0.002246376359835267,0.006857906002551317,-0.0012631373247131705
1772702156066450200,0.3284501953125,-0.0012159993639215827,0.006731938570737839,-0.0013435647124424577
1772702156076500200,0.338500244140625,-0.0015531554818153381,0.00989470910280943,0.00027537086862139404
1772702156086549200,0.34854931640625,-0.0013070794520899653,0.007685616612434387,0.0015715312911197543
1772702156096599000,0.35859912109375,-0.0008109325426630676,0.006973220966756344,0.00032410668791271746
1772702156106648300,0.3686484375,-0.0013158678775653243,0.007506918627768755,0.0005174521938897669
1772702156116698400,0.378698486328125,0.0001978728687390685,0.00580702256411314,0.0009062737226486206
1772702156126747100,0.3887470703125,0.0014274542918428779,0.008627843111753464,-0.0026517093647271395
1772702156136797200,0.398797119140625,-0.0006862966110929847,0.005813680589199066,-0.000254331884207204
1772702156146846200,0.40884619140625,-0.0020836573094129562,0.007535680662840605,0.0018040252616629004
1772702156156896000,0.41889599609375,-0.0023587618488818407,0.006163886282593012,0.00014034859486855567
1772702156166945300,0.4289453125,-0.0006447513005696237,0.00634844321757555,-0.0011795139871537685
1772702156176995300,0.438995361328125,0.0002980077115353197,0.006031527183949947,0.000050600061513250694
1772702156187044000,0.449044189453125,-0.0006846986943855882,0.005951632279902697,0.000395745737478137
1772702156197094100,0.45909423828125,-0.0018796591321006417,0.005901564843952656,-0.00096113485051319
1772702156207143200,0.46914306640625,0.0006053365068510175,0.005684783682227135,0.0008434231276623905
1772702156217193200,0.479193115234375,-0.0012905678013339639,0.00836711935698986,-0.0023941819090396166
1772702156227242200,0.4892421875,0.0007507451227866113,0.005407015793025494,0.0006820355774834752
1772702156237292300,0.499292236328125,-0.002147573046386242,0.006147907115519047,0.0005893575726076961
1772702156247341000,0.509341064453125,-0.0005699164466932416,0.00911546777933836,0.0006596649764105678
1772702156257391000,0.51939111328125,-0.0008431567694060504,0.0051992894150316715,-0.0019449065439403057
1772702156267441200,0.529441162109375,-0.0010242518037557602,0.006615558639168739,-0.0012000204296782613
1772702156277490200,0.539490234375,0.00031318774563260376,0.006031260825693607,-0.0007028082036413252
1772702156287540200,0.549540283203125,-0.001118793967179954,0.00826938170939684,0.00036432043998502195
1772702156297589000,0.559589111328125,-0.0005083974683657289,0.009917878545820713,0.0009800433181226254
1772702156307639000,0.56963916015625,-0.0017845842521637678,0.008921323344111443,-0.0012282498646527529
1772702156317688300,0.579688232421875,-0.0017281252657994628,0.007565508130937815,0.0003294330381322652
1772702156327738400,0.58973828125,-0.001222390914335847,0.009491239674389362,0.0004625910660251975
1772702156337787100,0.599787109375,-0.00008096009696600959,0.00688986387103796,0.0013246563030406833
1772702156347837200,0.609837158203125,-0.0004929511342197657,0.00654631620272994,0.0026612968649715185
1772702156357886000,0.619885986328125,-0.0020455741323530674,0.0086629968136549,-0.0012639362830668688
1772702156367936300,0.629936279296875,0.0005083974683657289,0.005804625805467367,0.000023968450477696024
1772702156377985300,0.6399853515625,-0.00043542683124542236,0.0065015750005841255,-0.002246376359835267
1772702156388035000,0.65003515625,-0.0013723268639296293,0.006128466222435236,-0.0010929612908512354
1772702156398084000,0.660083984375,-0.0031164311803877354,0.00782356783747673,-0.00020825919636990875
1772702156408134100,0.670134033203125,-0.0002966761530842632,0.007656321860849857,-0.00017710021347738802
1772702156418183200,0.68018310546875,-0.00213532242923975,0.008391087874770164,0.00038269624928943813
1772702156428233200,0.690233154296875,-0.003001915058121085,0.007512244861572981,-0.0018104169284924865
1772702156438282200,0.7002822265625,-0.0013451626291498542,0.006355367600917816,0.0015299860388040543
1772702156448332000,0.71033203125,-0.002254898427054286,0.007860053330659866,-0.00037390782381407917
1772702156458381000,0.720381103515625,-0.0018972359830513597,0.006567355245351791,0.0004695153038483113
1772702156468431400,0.730431396484375,0.0010953581659123302,0.007771370466798544,-0.00003968110104324296
1772702156478480100,0.740480224609375,-0.002826412906870246,0.00788695178925991,0.00011238539445912465
1772702156488530200,0.7505302734375,0.0026168220210820436,0.008518919348716736,0.0015805860748514533
1772702156498579200,0.7605791015625,-0.001540904981084168,0.00629012007266283,0.001528920722194016
1772702156508629000,0.77062890625,-0.0024913870729506016,0.00848696194589138,-0.0007233145297504961
1772702156518678300,0.78067822265625,-0.00043995422311127186,0.00794500857591629,-0.0005544701125472784
1772702156528728300,0.790728271484375,-0.0010021475609391928,0.006902647204697132,-0.002141980454325676
1772702156538777000,0.800777099609375,0.0014168017078191042,0.004829110112041235,0.0004141215467825532
1772702156548827100,0.8108271484375,-0.002573412610217929,0.007755924016237259,-0.0012836436508223414
1772702156558875100,0.820875244140625,-0.001490571303293109,0.005812349263578653,-0.0002311623829882592
1772702156568925200,0.83092529296875,-0.0030682277865707874,0.007488009985536337,-0.0005938849062658846
1772702156578974200,0.84097412109375,-0.0001507349224993959,0.005910619627684355,-0.0014239922165870667
1772702156589024000,0.85102392578125,0.000051399008953012526,0.007781223859637976,0.0005142564186826348
1772702156599073300,0.8610732421875,-0.00253453035838902,0.006538859568536282,-0.0032621060963720083
1772702156609123300,0.871123291015625,0.0014530207263305783,0.009778594598174095,0.0014152037911117077
1772702156619172000,0.881172119140625,-0.0037081853952258825,0.009476060047745705,-0.0007398261222988367
1772702156629222100,0.89122216796875,0.000016777914424892515,0.007665909361094236,0.000027164242055732757
1772702156639271200,0.901271240234375,-0.002216282533481717,0.00791171845048666,-0.00007456851017195731
1772702156649321000,0.911321044921875,-0.0017624800093472004,0.008134892210364342,-0.0008825715631246567
1772702156659370200,0.921370361328125,0.0019624833948910236,0.00896819494664669,0.000313986703986302
1772702156669420300,0.931420166015625,-0.002415753435343504,0.007376157213002443,-0.0007688545738346875
1772702156679469000,0.941468994140625,0.00006258428766159341,0.006533000618219376,0.0001174454009742476
1772702156689519000,0.95151904296875,-0.0025747441686689854,0.007779093459248543,-0.0002735066518653184
1772702156699568400,0.961568359375,0.001734783174470067,0.006869623903185129,-0.001264735241420567
1772702156709618200,0.9716181640625,-0.000570981705095619,0.0070363376289606094,-0.00021225394448265433
1772702156719667200,0.981667236328125,-0.0018815232906490564,0.0060203419998288155,-0.001261539408005774
1772702156729717200,0.99171728515625,-0.0010269149206578732,0.008701878599822521,-0.002612028270959854
1772702156739766000,1.00176611328125,-0.002208026824519038,0.007967645302414894,-0.00227860058657825
1772702156749816000,1.011816162109375,-0.002298840554431081,0.005979862064123154,-0.0022442457266151905
1772702156759865300,1.021865234375,-0.0003099919413216412,0.005942577496170998,-0.0004846953088417649
1772702156769915100,1.0319150390625,-0.000734766130335629,0.0067846691235899925,-0.0007877630414441228
1772702156779964200,1.041964111328125,-0.0015488944482058287,0.00740252248942852,-0.000026365294615970924
1772702156790014200,1.05201416015625,0.0003129214164800942,0.006742058787494898,0.0011765845119953156
1772702156800063200,1.062063232421875,-0.0011462245602160692,0.0048978193663060665,0.0003480751474853605
1772702156810113300,1.07211328125,-0.0015182681381702423,0.007077350746840239,0.0014357101172208786
1772702156820163300,1.082163330078125,-0.0023515713401138783,0.008404403924942017,-0.002414954360574484
1772702156830212000,1.092212158203125,-0.003602191573008895,0.008527974598109722,0.000022903184799361043
1772702156840262100,1.10226220703125,0.00018988338706549257,0.009700563736259937,-0.0025861957110464573
1772702156850311200,1.112311279296875,-0.0016500946367159486,0.0070070428773760796,-0.00002956108801299706
1772702156860361200,1.122361328125,-0.0024319987278431654,0.008462993428111076,-0.0015209312550723553
1772702156870410200,1.13241015625,-0.0016799219883978367,0.00998898409307003,-0.00013156015484128147
1772702156880460300,1.142460205078125,0.00013076121103949845,0.008941829204559326,-0.0013550163712352514
1772702156890509000,1.152509033203125,-0.0002846919232979417,0.009944509714841843,-0.0010921623324975371
1772702156900559000,1.16255908203125,-0.0026999127585440874,0.006150304339826107,-0.0032754219137132168
1772702156910608400,1.1726083984375,0.0008876316132955253,0.007241934072226286,0.00026258768048137426
1772702156920658200,1.182658203125,0.0009243832319043577,0.005678658373653889,-0.002668753731995821
1772702156930707200,1.192707275390625,-0.00008841694943839684,0.008164985105395317,-0.0002103897277265787
1772702156940757200,1.20275732421875,0.0009893643436953425,0.006199039984494448,-0.0032748891972005367
1772702156950806000,1.212805908203125,-0.0013334447285160422,0.00794554129242897,0.0025190841406583786
1772702156960856300,1.222856201171875,-0.0007163903210312128,0.00714526092633605,0.0004884237423539162
1772702156970905000,1.232905029296875,-0.0023331954143941402,0.008315454237163067,-0.0008498146780766547
1772702156980955100,1.242955078125,-0.002573412610217929,0.008882441557943821,0.00013129384024068713
1772702156991004200,1.253004150390625,-0.00010865696822293103,0.00507065886631608,-0.002213619416579604
1772702157001054200,1.26305419921875,-0.002523078816011548,0.009430785663425922,-0.0016935041639953852
1772702157011103200,1.273103271484375,-0.0025475798174738884,0.00848669558763504,0.0009720537927933037
1772702157021153300,1.2831533203125,-0.00035233621019870043,0.0073410035111010075,0.0012689962750300765
1772702157031202000,1.2932021484375,-0.0019065570086240768,0.006652576383203268,-0.0008351673022843897
1772702157041252000,1.303252197265625,-0.0014942996203899384,0.0076121133752167225,-0.0023957795929163694
1772702157051301000,1.313301025390625,-0.00029081720276735723,0.006424875929951668,-0.0003225088003091514
1772702157061351200,1.32335107421875,-0.001353684812784195,0.008134625852108002,-0.0011880361707881093
1772702157071400200,1.333400146484375,-0.0011020160745829344,0.00689039658755064,-0.00017843178648035973
1772702157081450200,1.3434501953125,-0.004234958905726671,0.006028331350535154,-0.0017587515758350492
1772702157091499000,1.3534990234375,-0.0026674221735447645,0.006945790257304907,-0.0008093346259556711
1772702157101549000,1.363549072265625,0.00043356261448934674,0.007360178045928478,-0.00011584750609472394
1772702157111598300,1.373598388671875,0.002141447737812996,0.007794273551553488,-0.00019361180602572858
1772702157121648000,1.383648193359375,-0.0015238607302308083,0.005175587255507708,-0.0006881608278490603
1772702157131697200,1.393697265625,-0.0001512675517005846,0.006041381042450666,0.001710814656689763
1772702157141747200,1.403747314453125,0.0007928230334073305,0.006099437829107046,0.0009595369338057935
1772702157151796200,1.413796142578125,-0.0008309062686748803,0.007750065065920353,-0.0022280006669461727
1772702157161846300,1.42384619140625,-0.002320678671821952,0.0097423754632473,-0.0002085255109705031
1772702157171895300,1.433895263671875,-0.002885801251977682,0.008769789710640907,0.0013393036788329482
1772702157181945000,1.443945068359375,-0.0024498419370502234,0.006202768534421921,-0.0001424791116733104
1772702157191994000,1.453994140625,-0.0028277444653213024,0.009786051698029041,-0.0009121326729655266
1772702157202044200,1.464044189453125,-0.0032863407395780087,0.009733587503433228,-0.0007350324303843081
1772702157212093200,1.47409326171875,-0.003560912562534213,0.007893876172602177,0.000245543458731845
1772702157222143200,1.484143310546875,-0.001377653214149177,0.005584116093814373,-0.000025832661776803434
1772702157232192300,1.494192138671875,-0.0010902981739491224,0.0070432620123028755,-0.0014919028617441654
1772702157242242000,1.504241943359375,0.00042504051816649735,0.01002280693501234,-0.0015286544803529978
1772702157252291300,1.514291259765625,-0.0023190807551145554,0.007663778495043516,-0.006470682565122843
1772702157262341400,1.52434130859375,-0.0032927324064075947,0.006081860978156328,-0.003912449814379215
1772702157272390100,1.53439013671875,0.001193362521007657,0.00845393817871809,-0.0017473000334575772
1772702157282440200,1.544440185546875,-0.003311108099296689,0.007722900714725256,-0.002357163932174444
1772702157292489200,1.5544892578125,-0.000026897927455138415,0.002901247702538967,0.0018807243322953582
1772702157302539000,1.5645390625,0.0012125372886657715,0.006453105714172125,-0.0005328985280357301
1772702157312588300,1.57458837890625,0.0010969560826197267,0.006941529456526041,-0.0005089300684630871
1772702157322638300,1.584638427734375,-0.0005419532535597682,0.008682171814143658,0.00034221619716845453
1772702157332687000,1.59468701171875,-0.002144377212971449,0.008341819047927856,0.0011749867117032409
1772702157342737200,1.604737060546875,-0.0017536915838718414,0.007570568006485701,0.0011704593198373914
1772702157352786200,1.6147861328125,0.0011342403013259172,0.007118895649909973,0.0001203748834086582
1772702157362836200,1.624836181640625,0.0013137373607605696,0.008952748961746693,0.0002846919232979417
1772702157372885200,1.63488525390625,-0.0032676986884325743,0.009868343360722065,-0.001273257308639586
1772702157382935300,1.644935302734375,-0.0014969628537073731,0.007002782076597214,-0.0020812603179365396
1772702157392984000,1.654984130859375,-0.002636795863509178,0.007448595017194748,-0.0003707120195031166
1772702157403034000,1.6650341796875,-0.0014293185668066144,0.006878678686916828,-0.0033659692853689194
1772702157413083100,1.675083251953125,-0.0019981698133051395,0.006858172360807657,0.0003552656853571534
1772702157423133200,1.68513330078125,-0.002945722546428442,0.0059931776486337185,-0.00030413299100473523
1772702157433182200,1.69518212890625,-0.002374208066612482,0.007241667713969946,-0.0011805793037638068
1772702157443232000,1.70523193359375,0.0003736414946615696,0.006703709252178669,-0.0021497036796063185
1772702157453281300,1.71528125,-0.0020695424173027277,0.006704774219542742,-0.0009070726810023189
1772702157463331300,1.725331298828125,-0.0026642263401299715,0.007065366487950087,0.002621083054691553
1772702157473380000,1.735380126953125,-0.0002593918761704117,0.006865363102406263,0.0008671252289786935
1772702157483430100,1.74543017578125,-0.0013877731980755925,0.0055060856975615025,-0.001076982356607914
1772702157493479200,1.755479248046875,-0.0009768474847078323,0.010044910944998264,-0.00126739835832268
1772702157503529000,1.765529052734375,-0.000603738590143621,0.008976717479526997,-0.00042637207661755383
1772702157513578200,1.775578125,-0.0015475628897547722,0.008370847441256046,0.0010841728653758764
1772702157523628300,1.785628173828125,-0.0008325041271746159,0.007702128030359745,-0.0010495517635717988
1772702157533677000,1.795677001953125,-0.0033390712924301624,0.007918376475572586,-0.0033222935162484646
1772702157543727000,1.80572705078125,-0.0036826191935688257,0.0070946612395346165,-0.0007904262165538967
1772702157553776400,1.8157763671875,-0.003213103860616684,0.009215069934725761,0.0001294296234846115
1772702157563826700,1.82582666015625,0.0013009541435167193,0.007779626175761223,0.0002466087171342224
1772702157573876000,1.8358759765625,-0.0019715381786227226,0.008166849613189697,0.00058323226403445
1772702157583925800,1.84592578125,-0.0022418489679694176,0.008956210687756538,0.0013696637470275164
1772702157593974800,1.855974853515625,0.0002569950302131474,0.008028365671634674,-0.0015672702575102448
1772702157604024800,1.86602490234375,-0.0025776736438274384,0.005428054835647345,0.0002335592289455235
1772702157614074600,1.87607470703125,0.001558748190291226,0.0057255299761891365,-0.0012602078495547175
1772702157624124000,1.8861240234375,-0.0026903252582997084,0.009258746169507504,-0.002472478663548827
1772702157634174000,1.896174072265625,-0.0011560781858861446,0.00692155584692955,-0.00034887410583905876
1772702157644222700,1.90622265625,-0.0009741843095980585,0.006088252644985914,-0.0004902879591099918
1772702157654272800,1.916272705078125,-0.000990962260402739,0.008737298659980297,-0.002406965009868145
1772702157664321800,1.92632177734375,-0.0020724718924611807,0.006967894732952118,-0.001002680161036551
1772702157674371800,1.936371826171875,-0.0003709783486556262,0.00893703568726778,-0.0019153454340994358
1772702157684420900,1.9464208984375,-0.0017654094845056534,0.007444067858159542,-0.0013941648649051785
1772702157694471000,1.956470947265625,-0.001791242160834372,0.007499195169657469,0.000523843802511692
1772702157704519700,1.966519775390625,-0.002129463478922844,0.006642456166446209,0.0005659217131324112
1772702157714569700,1.97656982421875,0.0006237123161554337,0.006620618514716625,0.0007712514488957822
1772702157724619000,1.986618896484375,-0.0015134743880480528,0.004811533261090517,-0.003126551164314151
1772702157734668800,1.996668701171875,-0.003111371072009206,0.0078571243211627,0.0022069616243243217
1772702157744717800,2.0067177734375,-0.001413339632563293,0.007210242096334696,-0.0008362325606867671
1772702157754768000,2.016767822265625,-0.0005094627267681062,0.00968671590089798,-0.0012905678013339639
1772702157764816600,2.026816650390625,-0.00478330347687006,0.0073013221845030785,-0.0003962783666793257
1772702157774867000,2.036866943359375,-0.0019196064677089453,0.004807005636394024,-0.001231711939908564
1772702157784915700,2.046915771484375,-0.0004242415598127991,0.00580835435539484,0.0014615427935495973
1772702157794965800,2.0569658203125,0.0008586031035520136,0.008862733840942383,-0.0032234902027994394
1772702157805014800,2.067014892578125,-0.001130778226070106,0.008328237570822239,0.002386725042015314
1772702157815064800,2.07706494140625,-0.003466370515525341,0.011022024787962437,-0.001871403306722641
1772702157825113900,2.08711376953125,-0.0012990899849683046,0.004658667836338282,-0.0023129554465413094
1772702157835164000,2.097163818359375,-0.0014559502014890313,0.008915730752050877,0.0015579492319375277
1772702157845212700,2.107212646484375,-0.002782470779493451,0.007282414007931948,0.0005363606614992023
1772702157855262700,2.1172626953125,-0.000472977408207953,0.008527175523340702,0.002600310370326042
1772702157865311700,2.127311767578125,-0.001335841603577137,0.00680171325802803,-0.0017326525412499905
1772702157875361800,2.13736181640625,0.001107076066546142,0.009786051698029041,0.002778209513053298
1772702157885410800,2.147410888671875,0.0014916365034878254,0.0065620290115475655,-0.0009744506096467376
1772702157895460900,2.1574609375,-0.0015020228456705809,0.00606428412720561,0.0003656520275399089
1772702157905509600,2.167509521484375,-0.0028453213162720203,0.00888004433363676,-0.00038589202449657023
1772702157915559700,2.1775595703125,-0.003549727378413081,0.0075881448574364185,0.0007158577209338546
1772702157925609000,2.18760888671875,-0.0004420847399160266,0.007071225438266993,-0.002630936913192272
1772702157935658800,2.19765869140625,-0.001586178783327341,0.0070760189555585384,0.001145159243606031
1772702157945707800,2.207707763671875,0.00045327001134864986,0.006957508157938719,-0.002679938916116953
1772702157955757800,2.2177578125,-0.0005406216951087117,0.0068299430422484875,-0.002427204977720976
1772702157965806800,2.227806884765625,0.0013259878614917397,0.008703476749360561,-0.0015962987672537565
1772702157975857000,2.23785693359375,0.0005305017111822963,0.00851732213050127,0.0017680726014077663
1772702157985906000,2.247906005859375,0.00002663161103555467,0.006666424684226513,-0.0007970841252245009
1772702157995955700,2.257955810546875,-0.0037055222783237696,0.006204099860042334,0.0003914846747647971
1772702158006004700,2.268004638671875,-0.002740392694249749,0.008447014726698399,-0.0004082625964656472
1772702158016054800,2.2780546875,-0.00304692261852324,0.007723966147750616,0.001675128354690969
1772702158026103800,2.288103759765625,-0.00070520507870242,0.007166299968957901,0.0015792545164003968
1772702158036153900,2.29815380859375,-0.0005744438385590911,0.006588394287973642,-0.0014506238512694836
1772702158046203000,2.308202880859375,-0.0005275722360238433,0.006410228554159403,0.0002623213513288647
1772702158056252700,2.318252685546875,0.001458080718293786,0.00698014535009861,0.0014144048327580094
1772702158066301700,2.3283017578125,-0.0038043255917727947,0.006179865449666977,-0.0014255901332944632
1772702158076352000,2.33835205078125,-0.0018777948571369052,0.007634217385202646,-0.0015763250412419438
1772702158086400800,2.34840087890625,-0.0018996327416971326,0.010784736834466457,-0.0024687503464519978
1772702158096450800,2.358450927734375,-0.0009451558580622077,0.007863782346248627,-0.0003432814555708319
1772702158106499800,2.368499755859375,-0.0018274611793458462,0.006967628374695778,0.0009257147903554142
1772702158116549600,2.378549560546875,-0.001907089608721435,0.007504521403461695,-0.0010839065071195364
1772702158126599000,2.388598876953125,-0.002557966159656644,0.008023305796086788,0.0007880293414928019
1772702158136649000,2.39864892578125,-0.0016871124971657991,0.0076057217083871365,0.00012596751912496984
1772702158146697700,2.40869775390625,-0.0023398532066494226,0.0078531289473176,-0.0012745888670906425
1772702158156747800,2.418747802734375,0.00008069378236541525,0.008623315952718258,0.00026365293888375163
1772702158166796800,2.428796875,0.0004146541759837419,0.007443535141646862,-0.0021699436474591494
1772702158176846800,2.438846923828125,-0.0013912353897467256,0.009365271776914597,-0.0024764735717326403
1772702158186896000,2.448895751953125,0.00020905814017169178,0.006901581771671772,0.0024615598376840353
1772702158196946000,2.45894580078125,-0.00008069378236541525,0.006671750918030739,0.0018373148050159216
1772702158206994700,2.46899462890625,-0.0002966761530842632,0.0046573360450565815,0.0018423747969791293
1772702158217044700,2.479044677734375,-0.0017544905422255397,0.007174023427069187,-0.002624545246362686
1772702158227093800,2.48909375,-0.003166498616337776,0.0067814732901751995,0.00015659387281630188
1772702158237143800,2.499143798828125,-0.000592020689509809,0.006231796927750111,0.000017843178284238093
1772702158247192800,2.50919287109375,-0.001282312092371285,0.0075841499492526054,-0.0020234698895365
1772702158257243000,2.519242919921875,-0.00010253170330543071,0.005991845857352018,-0.001603755634278059
1772702158267292000,2.5292919921875,-0.0002511360798962414,0.007863515987992287,-0.0007398261222988367
1772702158277342000,2.539342041015625,-0.002692722249776125,0.009678992442786694,-0.0013859090395271778
1772702158287390700,2.549390625,-0.001990712946280837,0.00672421557828784,-0.0009123989730142057
1772702158297440800,2.559440673828125,-0.0013526194961741567,0.005275455769151449,-0.002124137245118618
1772702158307489800,2.56948974609375,-0.0009270463488064706,0.0070765516720712185,-0.0010844392236322165
1772702158317539600,2.57953955078125,-0.0006948187365196645,0.0056978329084813595,-0.000511593243572861
1772702158327588900,2.5895888671875,0.000627707049716264,0.008074970915913582,0.00148125016130507
1772702158337639000,2.599638916015625,-0.001017327536828816,0.007473362609744072,-0.002779541304334998
1772702158347687700,2.609687744140625,-0.0015161376213654876,0.008491755463182926,0.0004295678809285164
1772702158357737700,2.61973779296875,0.00015393071225844324,0.0068091703578829765,0.0004487426485866308
1772702158367787000,2.629787109375,0.0003299656673334539,0.007181480061262846,0.00003328951424919069
1772702158377836800,2.6398369140625,-0.0011728560784831643,0.007794007193297148,-0.001535312389023602
1772702158387885800,2.6498857421875,-0.0008612662786617875,0.00635057408362627,-0.002237587934359908
1772702158397935900,2.659935791015625,-0.0013265205780044198,0.007210508454591036,-0.0032810145057737827
1772702158407984600,2.669984619140625,-0.0006138586322776973,0.007698665838688612,-0.00336170825175941
1772702158418034700,2.68003466796875,0.0008514125947840512,0.005261873826384544,0.0011086739832535386
1772702158428084000,2.690083984375,-0.0002777676854748279,0.007533017545938492,-0.0011286477092653513
1772702158438133800,2.7001337890625,-0.0028418591246008873,0.006079730577766895,-0.0031848743092268705
1772702158448182800,2.710182861328125,-0.0031931300181895494,0.007473628968000412,-0.0024232103023678064
1772702158458232800,2.72023291015625,-0.0013350426452234387,0.006394782569259405,0.001996305538341403
1772702158468281900,2.73028173828125,0.0009827064350247383,0.006774283014237881,-0.0005147890187799931
1772702158478332000,2.740331787109375,0.0001270327775273472,0.00734260119497776,-0.0007166566210798919
1772702158488381000,2.750380859375,0.0032226911280304193,0.007241134997457266,0.00013662016135640442
1772702158498430700,2.7604306640625,-0.0015310513554140925,0.008065382950007915,-0.0005917543894611299
1772702158508479700,2.770479736328125,-0.0012956279097124934,0.008129831403493881,0.0003531351685523987
1772702158518529800,2.78052978515625,0.00002210423735959921,0.006451507564634085,-0.0004577973741106689
1772702158528578800,2.790578857421875,0.0005291700945235789,0.005437908694148064,-0.002133192028850317
1772702158538628900,2.80062890625,-0.0010359697043895721,0.007595867849886417,-0.0008615325787104666
1772702158548678000,2.810677978515625,0.001231711939908564,0.008202802389860153,-0.0025984463281929493
1772702158558727700,2.820727783203125,-0.0005739112384617329,0.010142648592591286,-0.0014977618120610714
1772702158568777000,2.83077685546875,-0.000294545607175678,0.006699181627482176,0.0014911039033904672
1772702158578827000,2.840826904296875,-0.00014407701382879168,0.00580782163888216,0.00005619269722956233
1772702158588875800,2.850875732421875,-0.0005821670056320727,0.007179349660873413,-0.003522296901792288
1772702158598925800,2.86092578125,-0.0019206717843189836,0.008556203916668892,0.0005494101205840707
1772702158608974800,2.870974853515625,-0.0022778017446398735,0.006852047052234411,0.0005374259199015796
1772702158619024600,2.881024658203125,-0.004584365524351597,0.005315402988344431,-0.00520674604922533
1772702158629074000,2.891073974609375,-0.003569700988009572,0.0076331524178385735,0.0015017564874142408
1772702158639124000,2.9011240234375,-0.0019680759869515896,0.0049649314023554325,-0.0010841728653758764
1772702158649172700,2.9111728515625,-0.0019891150295734406,0.00780572509393096,-0.0010349043877795339
1772702158659222800,2.921222900390625,0.00014061490946915,0.007369765546172857,-0.0008761800127103925
1772702158669272000,2.93127197265625,-0.0007459514308720827,0.00836898386478424,-0.0016580841038376093
1772702158679321900,2.94132177734375,0.00011158645065734163,0.006484797224402428,-0.000990962260402739
1772702158689371000,2.951370849609375,-0.00014434332842938602,0.006326605565845966,0.0010452907299622893
1772702158699421000,2.9614208984375,-0.0028988507110625505,0.009081645868718624,-0.000046339002437889576
1772702158709469700,2.9714697265625,-0.0021766014397144318,0.007894407957792282,-0.0037404096219688654
1772702158719519700,2.981519775390625,0.0008942894637584686,0.008291752077639103,0.0011430287268012762
1772702158729569800,2.99156982421875,-0.002412291243672371,0.005374258849769831,-0.003622697899118066
1772702158739618800,3.001618896484375,0.000556334329303354,0.008890430442988873,-0.0022176143247634172
1772702158749668900,3.0116689453125,-0.0017741979099810123,0.007249923422932625,-0.002978213131427765
1772702158759718000,3.0217177734375,-0.0016162724932655692,0.008703743107616901,-0.0005347627447918057
1772702158769767700,3.031767578125,0.001178182428702712,0.004012318328022957,-0.002668753731995821
1772702158779817000,3.04181689453125,-0.002576075727120042,0.006198507267981768,0.0024051007349044085
1772702158789867000,3.051866943359375,-0.002683401107788086,0.009620402939617634,-0.0014927018200978637
1772702158799915800,3.061915771484375,0.00023568976030219346,0.007547132205218077,0.00037950044497847557
1772702158809965800,3.0719658203125,-0.004778776317834854,0.010526676662266254,-0.0008934905636124313
1772702158820014800,3.082014892578125,0.00012357067316770554,0.005787315312772989,-0.0017656758427619934
1772702158830065000,3.09206494140625,-0.0023611586075276136,0.0075780246406793594,0.0015816513914614916
1772702158840114000,3.102114013671875,0.0000125168571685208,0.006179599091410637,-0.00018029600323643535
1772702158850164000,3.1121640625,0.001148355077020824,0.007619303651154041,-0.0005635248962789774
1772702158860212700,3.122212646484375,-0.0012479572324082255,0.00708800321444869,-0.0012072109384462237
1772702158870262800,3.1322626953125,-0.003013899317011237,0.0068062408827245235,0.00042450788896530867
1772702158880311800,3.142311767578125,0.00009161273919744417,0.00765978405252099,-0.0023379891645163298
1772702158890361900,3.15236181640625,-0.0014942996203899384,0.004830175079405308,-0.0025832662358880043
1772702158900411000,3.162410888671875,-0.004486627411097288,0.008461927995085716,-0.0024615598376840353
1772702158910461000,3.1724609375,-0.0016178702935576439,0.00814794097095728,-0.002951315138489008
1772702158920509700,3.182509765625,-0.00021678130724467337,0.006090649403631687,-0.0005251753609627485
1772702158930560000,3.19256005859375,-0.0006064017652533948,0.00606508320197463,0.0012948289513587952
1772702158940608800,3.20260888671875,-0.000018375811123405583,0.00848669558763504,-0.002671416848897934
1772702158950658800,3.212658935546875,-0.0024045680183917284,0.005428321193903685,0.001484712352976203
1772702158960707800,3.222707763671875,-0.001672198879532516,0.007107444107532501,0.0014426343841478229
1772702158970758000,3.2327578125,-0.001020257011987269,0.006188387516885996,0.0011291803093627095
1772702158980807000,3.242806884765625,0.000441818410763517,0.007951133884489536,-0.0015494271647185087
1772702158990857000,3.25285693359375,-0.001886050682514906,0.007486678194254637,-0.0009347695158794522
1772702159000905700,3.26290576171875,0.0004985437262803316,0.007866178639233112,-0.00044075315236113966
1772702159010955800,3.272955810546875,-0.0020967067684978247,0.009437710046768188,-0.0032413334120064974
1772702159021004800,3.2830048828125,-0.00026551715563982725,0.006934072356671095,0.0015957661671563983
1772702159031054800,3.293054931640625,-0.0005784385721199214,0.007047789636999369,-0.0009629990672692657
1772702159041104000,3.303103759765625,-0.0017542241839691997,0.006715160794556141,-0.0024517059791833162
1772702159051154000,3.31315380859375,-0.0023760723415762186,0.009306948632001877,-0.002569417702034116
1772702159061202700,3.32320263671875,-0.0026961842086166143,0.00580648984760046,-0.001976065570488572
1772702159071252700,3.333252685546875,-0.0012668657582253218,0.005542304366827011,0.0005395564367063344
1772702159081302000,3.343302001953125,-0.0001579254458192736,0.0075782909989356995,0.00007403588097076863
1772702159091351800,3.353351806640625,-0.0020807278342545033,0.008943693712353706,0.0004799016169272363
1772702159101400800,3.36340087890625,0.0012636699248105288,0.004844822455197573,-0.0017102820565924048
1772702159111451000,3.373450927734375,-0.0025534387677907944,0.007388407830148935,-0.0006495449924841523
1772702159121500000,3.3835,-0.0024074974935501814,0.008371912874281406,-0.0014343785587698221
1772702159131550000,3.393550048828125,-0.0013571468880400062,0.006001699715852737,-0.00008442220860160887
1772702159141599000,3.403598876953125,-0.0019944412633776665,0.004593153949826956,0.003501257859170437
1772702159151648800,3.413648681640625,0.0010570086305961013,0.0059843892231583595,0.0017121462151408195
1772702159161697800,3.42369775390625,-0.0009528790251351893,0.0072928001172840595,-0.0008953547803685069
1772702159171747800,3.433747802734375,0.0002798982313834131,0.007737015374004841,-0.00047404266661033034
1772702159181796900,3.443796875,0.0008412926108576357,0.0078531289473176,-0.0005917543894611299
1772702159191847000,3.453846923828125,-0.0012034825049340725,0.007158044259995222,0.0010106696281582117
1772702159201896000,3.46389599609375,0.00047830372932367027,0.006795854307711124,-0.0014796522445976734
1772702159211945700,3.47394580078125,-0.0005478122038766742,0.00836552120745182,-0.0014253237750381231
1772702159221994800,3.483994873046875,0.0014333132421597838,0.0062578958459198475,-0.0013784521725028753
1772702159232045000,3.494045166015625,-0.0021254688035696745,0.00615243474021554,-0.002651443239301443
1772702159242093800,3.50409375,-0.001982190879061818,0.009498430415987968,0.0019259981345385313
1772702159252143900,3.514143798828125,0.0011976235546171665,0.00881985668092966,-0.0012804478174075484
1772702159262192600,3.524192626953125,-0.0017305220244452357,0.007467237301170826,0.0013430321123450994
1772702159272242700,3.53424267578125,-0.0008596684201620519,0.008872054517269135,-0.00373028963804245
1772702159282292000,3.5442919921875,-0.0018485001055523753,0.009650763124227524,-0.0026370619889348745
1772702159292342000,3.554342041015625,-0.0013670006301254034,0.00851758848875761,-0.0003091930120717734
1772702159302390800,3.564390869140625,-0.00040719733806326985,0.006668289192020893,0.0009185242815874517
1772702159312440800,3.57444091796875,-0.0014748586108908057,0.007984689436852932,0.0009318400407209992
1772702159322489900,3.58448974609375,-0.002034122357144952,0.005940447095781565,-0.0019297265680506825
1772702159332540000,3.594539794921875,-0.0006133259739726782,0.00538544449955225,0.0015904398169368505
1772702159342589000,3.6045888671875,-0.0025563682429492474,0.006571616046130657,-0.00213638786226511
1772702159352639000,3.614638916015625,-0.0013915016315877438,0.007190002128481865,-0.00038402783684432507
1772702159362687700,3.624687744140625,-0.0005661880713887513,0.00694871973246336,0.0011534150689840317
1772702159372737800,3.63473779296875,-0.000702009245287627,0.007297594100236893,-0.0024088292848318815
1772702159382786800,3.644786865234375,-0.0009294432238675654,0.00836925022304058,-0.00373082235455513
1772702159392836900,3.6548369140625,-0.0010367685463279486,0.00749093946069479,0.0003709783486556262
1772702159402886000,3.664885986328125,0.00019467707898002118,0.00842411071062088,-0.0009108011145144701
1772702159412935700,3.674935791015625,-0.0008948221220634878,0.007622233126312494,-0.0001685781026026234
1772702159422985000,3.68498486328125,-0.0019520970527082682,0.008871788159012794,0.0001310275256400928
1772702159433035000,3.695034912109375,-0.0017667410429567099,0.005889047868549824,0.00010599380766507238
1772702159443083800,3.705083740234375,-0.003287672298029065,0.008347944356501102,-0.000758734589908272
1772702159453133800,3.7151337890625,-0.0021670141723006964,0.007035539019852877,0.0013281183782964945
1772702159463182800,3.725182861328125,-0.0013672668719664216,0.007060306146740913,-0.0005707154050469398
1772702159473232600,3.735232666015625,-0.0031494542490690947,0.0068174260668456554,0.0001816275907913223
1772702159483282000,3.745281982421875,-0.0017979000695049763,0.006588660646229982,-0.0012178635224699974
1772702159493332000,3.75533203125,-0.003084473079070449,0.009356217458844185,-0.0015717976493760943
1772702159503380700,3.765380615234375,-0.0018879148410633206,0.0071005201898515224,-0.0005456816870719194
1772702159513430800,3.7754306640625,-0.0014125406742095947,0.008189219981431961,-0.0008394283941015601
1772702159523480000,3.78547998046875,-0.0008623315370641649,0.0065439194440841675,-0.0036794233601540327
1772702159533529900,3.79552978515625,-0.0022029669489711523,0.009106945246458054,-0.0013195963110774755
1772702159543579000,3.805578857421875,-0.0010066748363897204,0.007220362313091755,-0.00044847631943412125
1772702159553629000,3.81562890625,-0.0009856359101831913,0.007535414304584265,0.00043010051012970507
1772702159563677700,3.825677734375,0.001282312092371285,0.007495200727134943,0.0009243832319043577
1772702159573727500,3.8357275390625,0.0005869606975466013,0.010998322628438473,-0.00001704423084447626
1772702159583776800,3.84577685546875,-0.0008841694798320532,0.008897354826331139,0.0014000238152220845
1772702159593826800,3.855826904296875,-0.0031550468411296606,0.008102933876216412,-0.00017710021347738802
1772702159603875600,3.86587548828125,0.0006601976347155869,0.007831824012100697,-0.002600310370326042
1772702159613925600,3.875925537109375,0.00015472965606022626,0.006055762059986591,-0.002359827049076557
1772702159623974700,3.885974609375,0.00025513084256090224,0.0070680296048521996,0.00040027310024015605
1772702159634024700,3.896024658203125,-0.0009376989910379052,0.00723527604714036,-0.0017648768844082952
1772702159644073700,3.90607373046875,-0.0015901734586805105,0.005335643421858549,0.0015049523208290339
1772702159654123800,3.916123779296875,-0.00038269624928943813,0.006600910797715187,0.0007070692372508347
1772702159664172500,3.926172607421875,-0.00038535939529538155,0.008231031708419323,-0.0019592875614762306
1772702159674222600,3.93622265625,0.001216265605762601,0.00746137835085392,0.00013129384024068713
1772702159684271600,3.946271728515625,-0.0002556634717620909,0.00603419030085206,0.000300404557492584
1772702159694321700,3.95632177734375,0.001344363670796156,0.009092298336327076,-0.0001699096756055951
1772702159704370700,3.96637060546875,-0.0015339808305725455,0.006155364215373993,0.0001994707708945498
1772702159714420700,3.976420654296875,-0.0007648598402738571,0.008717059157788754,-0.0011954930378124118
1772702159724469800,3.9864697265625,-0.0008375641773454845,0.005872003734111786,-0.00039787625428289175
1772702159734519800,3.996519775390625,-0.002918558195233345,0.007196660153567791,-0.00005379585491027683
1772702159744568600,4.006568603515625,0.00012090751260984689,0.006959106307476759,0.00008309062832267955
1772702159754618600,4.01661865234375,-0.0007310376968234777,0.005020857788622379,0.000003994741746282671
1772702159764667600,4.026667724609375,-0.0003102582704741508,0.006639260333031416,0.0005257080192677677
1772702159774717700,4.0367177734375,-0.002365419641137123,0.006080795545130968,-0.0028818065766245127
1772702159784766700,4.0467666015625,-0.0026639599818736315,0.008868326433002949,-0.0008346347021870315
1772702159794816800,4.056816650390625,-0.0011922972043976188,0.008258994668722153,-0.0014689996605738997
1772702159804865500,4.066865478515625,-0.002430933527648449,0.008566590026021004,-0.003343865042552352
1772702159814915600,4.07691552734375,-0.002255431143566966,0.0054488275200128555,0.0013696637470275164
1772702159824964900,4.08696484375,0.0014825817197561264,0.004987301770597696,-0.0035361452028155327
1772702159835014700,4.0970146484375,-0.0006740460521541536,0.009969543665647507,0.00044581317342817783
1772702159845063700,4.107063720703125,-0.0026192190125584602,0.009823868982493877,-0.0025806031189858913
1772702159855113700,4.11711376953125,-0.0028522454667836428,0.00703793577849865,0.00040959418402053416
1772702159865162500,4.12716259765625,0.00021358551748562604,0.007625428959727287,-0.0012897689593955874
1772702159875212500,4.137212646484375,-0.0010634001810103655,0.0070254188030958176,-0.000556600687559694
1772702159885261800,4.14726171875,-0.0011012171162292361,0.005830724723637104,0.0009693906176835299
1772702159895311600,4.1573115234375,-0.002141447737812996,0.007840879261493683,-0.0015337144723162055
1772702159905360600,4.167360595703125,-0.003613909473642707,0.006469883490353823,-0.00086872314568609
1772702159915410700,4.17741064453125,-0.0019238675013184547,0.0062554990872740746,-0.001859152689576149
1772702159925459700,4.187459716796875,-0.0009347695158794522,0.007631287910044193,-0.001076715998351574
1772702159935509800,4.197509765625,-0.0012271846644580364,0.008128500543534756,-0.001061802264302969
1772702159945558800,4.207558837890625,-0.002986468840390444,0.006848052144050598,-0.0007416903390549123
1772702159955608600,4.217608642578125,0.00040187101694755256,0.008637696504592896,-0.002034388715401292
1772702159965657600,4.22765771484375,-0.0020570256747305393,0.00577826052904129,-0.0007965514669194818
1772702159975707600,4.237707763671875,-0.0016594156622886658,0.008293616585433483,-0.0014282532501965761
1772702159985756700,4.247756591796875,-0.0014628743520006537,0.00686243362724781,0.0014253237750381231
1772702159995806700,4.257806640625,0.0012684636749327183,0.005136971361935139,-0.0011486213188618422
1772702160005855500,4.26785546875,-0.0015960324089974165,0.008808405138552189,-0.0019467707024887204
1772702160015905500,4.277905517578125,-0.00096086849225685,0.007474428042769432,-0.001422128058038652
1772702160025954800,4.287954833984375,-0.0011765845119953156,0.006936203222721815,-0.004247475415468216
1772702160036004900,4.2980048828125,-0.0014016216155141592,0.00866352953016758,0.0015949672088027
1772702160046053600,4.3080537109375,-0.0014282532501965761,0.00609251344576478,-0.0028362665325403214
1772702160056103700,4.318103759765625,-0.0034850125666707754,0.007532484829425812,-0.0008460862445645034
1772702160066152400,4.32815234375,0.0004889564006589353,0.004884770140051842,-0.0004010720585938543
1772702160076202800,4.33820263671875,0.0006535397260449827,0.008482434786856174,-0.001841575838625431
1772702160086251800,4.348251708984375,-0.0006554039428010583,0.008925051428377628,-0.0006974819116294384
1772702160096301800,4.3583017578125,-0.0004961469094268978,0.006639793049544096,-0.0010807107901200652
1772702160106350600,4.3683505859375,-0.0001270327775273472,0.008045143447816372,-0.0019630161114037037
1772702160116400600,4.378400634765625,-0.0021345235873013735,0.00765871861949563,0.001281779375858605
1772702160126449700,4.38844970703125,-0.002008289797231555,0.006710100453346968,-0.0012631373247131705
1772702160136499700,4.398499755859375,-0.0023401195649057627,0.005360676907002926,-0.0011494202772155404
1772702160146548700,4.408548828125,0.0013962953817099333,0.006810768041759729,0.0011656655697152019
1772702160156598500,4.4185986328125,0.00007776429993100464,0.008345281705260277,0.00038296254933811724
1772702160166647600,4.4286474609375,-0.001776062068529427,0.006614759564399719,-0.0003384877636563033
1772702160176697900,4.43869775390625,0.00020772656716872007,0.007868309505283833,-0.0011917646043002605
1772702160186746600,4.44874658203125,0.0008354336023330688,0.004341751337051392,0.0014820491196587682
1772702160196796700,4.458796630859375,-0.002263953210785985,0.00865953415632248,-0.001306280493736267
1772702160206845700,4.468845703125,-0.0029467877466231585,0.007964183576405048,-0.0005225121858529747
1772702160216895500,4.4788955078125,-0.00373135507106781,0.007085073739290237,0.001240766723640263
1772702160226944800,4.48894482421875,-0.003088467987254262,0.007654990069568157,-0.002032258315011859
1772702160236994800,4.498994873046875,-0.00006418218254111707,0.006543120369315147,-0.0013547500129789114
1772702160247043600,4.509043701171875,-0.0034490597900003195,0.010190585628151894,-0.004012318328022957
1772702160257093600,4.51909375,-0.003325755475088954,0.008005994372069836,0.002642654813826084
1772702160267142700,4.529142578125,-0.002910568844527006,0.005813946947455406,-0.0033097765408456326
1772702160277192700,4.539192626953125,-0.0007400924805551767,0.008191084489226341,0.0008676578872837126
1772702160287241700,4.54924169921875,-0.0003818972909357399,0.008472047746181488,-0.0005547364708036184
1772702160297291800,4.559291748046875,0.00000852211542223813,0.006306897848844528,-0.0013012205017730594
1772702160307340500,4.569340576171875,0.00015579492901451886,0.006385461427271366,0.00010839065362233669
1772702160317390600,4.579390625,-0.0012697952333837748,0.00512844929471612,-0.00009081379539566115
1772702160327440000,4.58943994140625,-0.0008135957177728415,0.008945291861891747,-0.0016471651615574956
1772702160337489700,4.59948974609375,-0.0024897893890738487,0.009219330735504627,-0.00018801917030941695
1772702160347538700,4.60953857421875,-0.000987500068731606,0.007515972945839167,0.0022863238118588924
1772702160357588700,4.619588623046875,-0.0026085663121193647,0.005133242812007666,0.0003427488263696432
1772702160367637800,4.6296376953125,-0.0034972631838172674,0.008076568134129047,0.00034115093876607716
1772702160377687800,4.639687744140625,-0.0008756473544053733,0.006674148142337799,0.002380067016929388
1772702160387736600,4.649736572265625,-0.0019528960110619664,0.005368399899452925,-0.0014879080699756742
1772702160397786600,4.65978662109375,-0.000955009541939944,0.00732395937666297,0.0011976235546171665
1772702160407835600,4.669835693359375,-0.000218645524000749,0.007360178045928478,-0.0018112158868461847
1772702160417885700,4.6798857421875,-0.0023811322171241045,0.009942112490534782,0.0006689860601909459
1772702160427934700,4.689934814453125,-0.0015209312550723553,0.007900266908109188,-0.002752643311396241
1772702160437984800,4.69998486328125,0.0001280980504816398,0.005538842175155878,-0.0007691209320910275
1772702160448033500,4.710033447265625,-0.000014381069377122913,0.007280283607542515,0.0007920240750536323
1772702160458083600,4.72008349609375,-0.001160072977654636,0.008853944949805737,0.0011113371001556516
1772702160468132600,4.730132568359375,-0.0010876349406316876,0.004965996369719505,-0.0019829897210001945
1772702160478183000,4.740182861328125,0.001041562296450138,0.00782356783747673,0.00021678130724467337
1772702160488231700,4.750231689453125,0.00023995080846361816,0.008188155479729176,-0.00004340952364145778
1772702160498281700,4.76028173828125,0.0005395564367063344,0.006598514039069414,-0.001980859087780118
1772702160508331800,4.770331787109375,0.0004058657505083829,0.0073231603018939495,-0.002115348819643259
1772702160518380500,4.780380615234375,-0.0014476943761110306,0.00890880636870861,-0.0028221518732607365
1772702160528429800,4.790429931640625,0.0020847225096076727,0.00566853815689683,-0.0022090920247137547
1772702160538479600,4.800479736328125,-0.00047643951256759465,0.006816360633820295,0.0008085357258096337
1772702160548528600,4.810528564453125,-0.0003193130251020193,0.007840612903237343,0.0002759034978225827
1772702160558578700,4.82057861328125,0.00020746025256812572,0.006051500793546438,-0.0009912285022437572
1772702160568627200,4.830627197265625,-0.002025067573413253,0.006332730874419212,-0.0005808354471810162
1772702160578677200,4.84067724609375,-0.004428037907928228,0.006589725613594055,0.0006146575906313956
1772702160588727300,4.850727294921875,-0.002686330582946539,0.008591357618570328,-0.00039787625428289175
1772702160598776000,4.860776123046875,-0.0003685815026983619,0.006992661859840155,0.0004809668753296137
1772702160608826000,4.870826171875,-0.001142496126703918,0.0060299295000731945,-0.0014234596164897084
1772702160618875400,4.88087548828125,-0.000002663161012605997,0.006435528863221407,-0.000368847802747041
1772702160628924200,4.890924072265625,-0.00009241169027518481,0.007440605666488409,0.0001608549355296418
1772702160638974200,4.90097412109375,0.0005435511702671647,0.006158826407045126,-0.0022977753542363644
1772702160649023200,4.911023193359375,-0.001347559504210949,0.007134874816983938,-0.00040080572944134474
1772702160659073000,4.921072998046875,0.0003009371866937727,0.00788695178925991,-0.002070607617497444
1772702160669122300,4.931122314453125,0.00019867181254085153,0.008163387887179852,0.0002719087351579219
1772702160679172400,4.94117236328125,-0.0030037793330848217,0.007430219557136297,0.0007198524544946849
1772702160689222400,4.951222412109375,-0.0029350698459893465,0.006873352453112602,0.002686596941202879
1772702160699271200,4.961271240234375,-0.0024618261959403753,0.008225172758102417,-0.0022210762836039066
1772702160709321200,4.9713212890625,0.00011105381418019533,0.008192948997020721,-0.0006644586683250964
1772702160719370200,4.981370361328125,-0.002567020943388343,0.00660517206415534,0.0021313277538865805
1772702160729420300,4.991420166015625,0.0006615291931666434,0.008406533859670162,-0.00224930583499372
1772702160739469300,5.00146923828125,-0.0009888317435979843,0.007753260899335146,0.0029177593532949686
1772702160749519000,5.01151904296875,0.0004857605672441423,0.00788588635623455,-0.0011635350529104471
1772702160759568100,5.021568115234375,-0.0020186761394143105,0.008502141572535038,-0.001377653214149177
1772702160769617400,5.031617431640625,-0.002810966456308961,0.008477373979985714,-0.002395247109234333
1772702160779667200,5.041667236328125,0.00014674017438665032,0.006205698009580374,0.0023307986557483673
1772702160789717200,5.05171728515625,0.0015430354978889227,0.008235825225710869,-0.0004596615908667445
1772702160799766300,5.061766357421875,-0.00145195540972054,0.009241967462003231,-0.0006641923682764173
1772702160809816000,5.071816162109375,-0.001749430550262332,0.007849933579564095,0.003347327234223485
1772702160819865300,5.081865234375,-0.0014255901332944632,0.007162305526435375,0.000565389113035053
1772702160829915400,5.091915283203125,0.0015310513554140925,0.006998520810157061,-0.0021944446489214897
1772702160839964200,5.101964111328125,-0.0018969696247950196,0.009620136581361294,0.0019979034550487995
1772702160850014200,5.11201416015625,-0.0019776634871959686,0.007670436520129442,0.0006956176948733628
1772702160860063200,5.122063232421875,-0.0018908443162217736,0.009633452631533146,0.0007321029552258551
1772702160870113000,5.132113037109375,-0.002299905987456441,0.008458998054265976,0.0010463559301570058
1772702160880162300,5.142162353515625,-0.001918807509355247,0.006041381042450666,0.0003507383225951344
1772702160890211000,5.152211181640625,-0.00017204020696226507,0.006975085008889437,-0.0006351639167405665
1772702160900261000,5.16226123046875,-0.0013909690314903855,0.005270662251859903,-0.0013520868960767984
1772702160910311200,5.172311279296875,-0.0011717908782884479,0.0052056810818612576,0.0003486077766865492
1772702160920360400,5.1823603515625,-0.002683667466044426,0.009484315291047096,-0.0010937602492049336
1772702160930410200,5.19241015625,-0.00007403588097076863,0.0067846691235899925,-0.001585912425071001
1772702160940459300,5.202459228515625,0.000006125270374468528,0.006619020365178585,0.0004649879119824618
1772702160950509300,5.21250927734375,-0.0025920546613633633,0.006596916355192661,-0.001743571599945426
1772702160960558000,5.22255810546875,0.00029880666988901794,0.005501558072865009,-0.0013494236627593637
1772702160970608000,5.232608154296875,-0.00019760655413847417,0.009045426733791828,0.004653607495129108
1772702160980657200,5.2426572265625,-0.0007629956235177815,0.007823302410542965,-0.0041302964091300964
1772702160990707200,5.252707275390625,-0.0009297095239162445,0.005041896365582943,0.002223206916823983
1772702161000756200,5.262756103515625,-0.0007510114228352904,0.006714628078043461,-0.000011185276889591478
1772702161010806300,5.27280615234375,0.0000774979853304103,0.00780625781044364,-0.0014775217277929187
1772702161020855300,5.282855224609375,0.0008460862445645034,0.006543120369315147,-0.002311357529833913
1772702161030905300,5.2929052734375,-0.001764077926054597,0.008715461008250713,-0.0011195929255336523
1772702161040954000,5.3029541015625,-0.001213868847116828,0.007959389127790928,0.00045673211570829153
1772702161051004200,5.313004150390625,-0.002965429797768593,0.007309844717383385,0.0018109495285898447
1772702161061052400,5.323052490234375,-0.004254932515323162,0.007506385911256075,0.0010072075529024005
1772702161071102200,5.333102294921875,-0.00019094864546786994,0.006967894732952118,-0.0013315805699676275
1772702161081151200,5.343151123046875,-0.0024716798216104507,0.004838963504880667,-0.0007454187725670636
1772702161091201300,5.353201171875,-0.00011478224041638896,0.006025135517120361,-0.0013036173768341541
1772702161101250000,5.36325,-0.002251702593639493,0.009093097411096096,-0.0008676578872837126
1772702161111300400,5.37330029296875,-0.0011108045000582933,0.006156961899250746,-0.0021544971968978643
1772702161121349400,5.383349365234375,0.0005659217131324112,0.006019010208547115,-0.00138031633105129
1772702161131399200,5.393399169921875,-0.00145195540972054,0.010298443958163261,0.0023225427139550447
1772702161141448200,5.4034482421875,-0.002936934120953083,0.007213171571493149,0.0006673881434835494
1772702161151498200,5.413498291015625,-0.0015329155139625072,0.007880027405917645,0.00020532972121145576
1772702161161547300,5.42354736328125,-0.0011515507940202951,0.007197459228336811,-0.0015211976133286953
1772702161171597300,5.433597412109375,-0.0007856325246393681,0.007081345189362764,0.0002985403698403388
1772702161181646000,5.44364599609375,0.0013323795283213258,0.005365736782550812,-0.002273007994517684
1772702161191696100,5.453696044921875,-0.002061819192022085,0.008943693712353706,-0.00279125920496881
1772702161201745200,5.4637451171875,-0.0012594088912010193,0.004738296382129192,-0.0006074670236557722
1772702161211795500,5.47379541015625,-0.0007257114048115909,0.006158560048788786,0.0007803061744198203
1772702161221844200,5.48384423828125,-0.0021486382465809584,0.007019826211035252,-0.0018050905782729387
1772702161231894300,5.493894287109375,-0.0004982774262316525,0.010616159066557884,0.0022924491204321384
1772702161241943000,5.503943115234375,-0.0010050770360976458,0.006931409239768982,-0.002546514617279172
1772702161251993000,5.5139931640625,-0.0007137271459214389,0.006537261418998241,0.0026559706311672926
1772702161262043100,5.524043212890625,-0.0036005936563014984,0.009238239377737045,-0.0001781654718797654
1772702161272092200,5.534092041015625,-0.00015765913121867925,0.006881075445562601,-0.0009092031978070736
1772702161282141200,5.54414111328125,-0.003353186184540391,0.007210774812847376,-0.0014737932942807674
1772702161292191200,5.554191162109375,-0.001198688754811883,0.007960720919072628,-0.0014021543320268393
1772702161302240300,5.564240234375,-0.0008855010382831097,0.005233910400420427,-0.002226136391982436
1772702161312290300,5.574290283203125,0.00017363809456583112,0.0070222229696810246,-0.0022216090001165867
1772702161322339300,5.58433935546875,-0.00024580975878052413,0.00640863087028265,0.0007198524544946849
1772702161332389000,5.59438916015625,-0.0008277104352600873,0.005391303449869156,-0.001079911831766367
1772702161342438100,5.604438232421875,-0.0023228090722113848,0.007949003018438816,0.0019715381786227226
1772702161352488200,5.61448828125,-0.000007723167072981596,0.007066431455314159,-0.0011656655697152019
1772702161362537200,5.624537109375,-0.002005360322073102,0.008808405138552189,0.00017710021347738802
1772702161372587300,5.634587158203125,-0.003728425595909357,0.00729519734159112,-0.001389371114782989
1772702161382636300,5.64463623046875,0.00012836436508223414,0.008325041271746159,-0.00011664645717246458
1772702161392686000,5.65468603515625,0.000472977408207953,0.0070856064558029175,-0.0004982774262316525
1772702161402736000,5.664736083984375,-0.0020684772171080112,0.007468569092452526,0.0009645969257690012
1772702161412785400,5.674785400390625,-0.001532382913865149,0.006982009392231703,0.0003741741238627583
1772702161422835200,5.684835205078125,-0.003144926857203245,0.006852313410490751,-0.0008740494376979768
1772702161432885200,5.69488525390625,0.00015765913121867925,0.006922088097780943,-0.002159024588763714
1772702161442934300,5.704934326171875,-0.0009976201690733433,0.006250971462577581,-0.002376604825258255
1772702161452984300,5.714984375,0.00036671728594228625,0.007666707970201969,0.00036485306918621063
1772702161463033000,5.725033203125,0.0001400822657160461,0.007352188695222139,-0.0019451729021966457
1772702161473083100,5.735083251953125,-0.001612011343240738,0.008900816552340984,0.0002921487612184137
1772702161483132200,5.745132080078125,-0.000630902883131057,0.007436078507453203,-0.000027164242055732757
1772702161493182200,5.75518212890625,-0.004192880820482969,0.009324791841208935,-0.0015009575290605426
1772702161503231200,5.765231201171875,-0.0007624630234204233,0.007604389917105436,0.0019686087034642696
1772702161513281000,5.775281005859375,0.00005326322207110934,0.008323975838720798,-0.002478603972122073
1772702161523330300,5.785330322265625,-0.0017094830982387066,0.0075577846728265285,-0.002624545246362686
1772702161533380400,5.79538037109375,-0.0015670040156692266,0.007968977093696594,0.0002932140196207911
1772702161543429000,5.80542919921875,0.00010572749306447804,0.007666441611945629,0.0007712514488957822
1772702161553479200,5.815479248046875,-0.000854075769893825,0.006141249556094408,-0.0014090784825384617
1772702161563529000,5.825529052734375,-0.002065015025436878,0.004729241598397493,-0.0014919028617441654
1772702161573579000,5.8355791015625,-0.0024463797453790903,0.00884941779077053,-0.0005395564367063344
1772702161583628000,5.8456279296875,-0.0007978830835781991,0.008777245879173279,-0.0009187905816361308
1772702161593678000,5.855677978515625,-0.0006290386663749814,0.006750048138201237,-0.0006849650526419282
1772702161603727000,5.86572705078125,-0.003093527862802148,0.0068150293081998825,-0.0014317154418677092
1772702161613777200,5.875777099609375,-0.0010990865994244814,0.009064069017767906,-0.0008138620178215206
1772702161623826000,5.885825927734375,0.0003371562052052468,0.007045392412692308,0.003055178327485919
1772702161633876000,5.8958759765625,-0.0005020058597438037,0.0068312743678689,0.0010362359462305903
1772702161643925000,5.905925048828125,-0.0012024171883240342,0.007303186692297459,-0.0007693872321397066
1772702161653975000,5.91597509765625,-0.0018775284988805652,0.004760666750371456,-0.00008894957863958552
1772702161664024000,5.926024169921875,0.00046099317842163146,0.005981992464512587,0.00027803401462733746
1772702161674073900,5.936073974609375,0.0012695288751274347,0.00609304616227746,-0.0016021577175706625
1772702161684123100,5.946123046875,0.0018615495646372437,0.006129798013716936,0.0013427657540887594
1772702161694173200,5.956173095703125,-0.00024980452144518495,0.007277087774127722,-0.0022916500456631184
1772702161704222000,5.966221923828125,-0.0011044129496440291,0.008098406717181206,-0.00037683729897253215
1772702161714272000,5.97627197265625,-0.0031228226143866777,0.006981476675719023,0.0004918858758173883
1772702161724321000,5.986321044921875,0.00023462448734790087,0.008837699890136719,-0.000755805114749819
1772702161734371000,5.99637109375,-0.0011891013709828258,0.006341785658150911,0.000313986703986302
1772702161744420000,6.006420166015625,-0.0010330402292311192,0.00743234995752573,0.0017496967921033502
1772702161754470100,6.01647021484375,-0.0018106831703335047,0.008477906696498394,0.0003632551815826446
1772702161764519000,6.026518798828125,-0.0025571673177182674,0.0059449742548167706,-0.0024200144689530134
1772702161774569000,6.03656884765625,-0.0020881847012788057,0.006105296779423952,0.0006878945278003812
1772702161784618200,6.0466181640625,-0.0014077469240874052,0.005818740464746952,-0.0015704660909250379
1772702161794668000,6.05666796875,-0.00012623383372556418,0.00884781964123249,-0.0014942996203899384
1772702161804717000,6.066717041015625,0.00039494677912443876,0.008739695884287357,0.0007534082396887243
1772702161814767000,6.07676708984375,-0.003187004942446947,0.00839694682508707,-0.0023318638559430838
1772702161824815900,6.08681591796875,-0.0022088258992880583,0.008862733840942383,-0.004167846869677305
1772702161834866000,6.096865966796875,0.0001805623178370297,0.006674680393189192,-0.0001304948964389041
1772702161844915200,6.106915283203125,0.0009957558941096067,0.008688030764460564,0.0015824503498151898
1772702161854965000,6.116965087890625,-0.0009267800487577915,0.007444067858159542,0.000532365869730711
1772702161865014000,6.127013916015625,-0.0009384979493916035,0.007168164476752281,-0.00024740767548792064
1772702161875064000,6.13706396484375,0.00019920444174204022,0.006470416206866503,0.0019526296528056264
1772702161885113000,6.147113037109375,-0.0012064119800925255,0.007574296556413174,0.0001984054979402572
1772702161895163100,6.1571630859375,0.000258859246969223,0.006926882080733776,0.0013757890556007624
1772702161905212200,6.167212158203125,-0.003896737238392234,0.010068080388009548,0.0025007082149386406
1772702161915262000,6.177261962890625,-0.0006101301987655461,0.008869924582540989,0.0018876485992223024
1772702161925311000,6.18731103515625,-0.001210673013702035,0.008356733247637749,-0.0037148434203118086
1772702161935361000,6.197361083984375,-0.002400839701294899,0.00694818701595068,-0.002237321576103568
1772702161945410000,6.20741015625,-0.0007550061563961208,0.00837031565606594,-0.0010410296963527799
1772702161955460000,6.217460205078125,0.0012892362428829074,0.007510113995522261,0.0022242721170186996
1772702161965508900,6.2275087890625,0.00035926041891798377,0.00854635052382946,-0.00043569316039793193
1772702161975559000,6.237558837890625,-0.0036703685764223337,0.007173224352300167,0.0004141215467825532
1772702161985608200,6.247608154296875,0.00025060345069505274,0.00839508231729269,-0.0025478461757302284
1772702161995658200,6.257658203125,0.000526506919413805,0.0062573631294071674,-0.0014711301773786545
1772702162005707000,6.26770703125,-0.0010460896883159876,0.0088776471093297,-0.0008724515791982412
1772702162015757000,6.277757080078125,-0.000600809114985168,0.00860494002699852,-0.001249555149115622
1772702162025805800,6.287805908203125,0.0002998719282913953,0.006025135517120361,0.0004415521107148379
1772702162035856100,6.297856201171875,-0.002395513467490673,0.007438741624355316,-0.0004463458026293665
1772702162045905200,6.3079052734375,-0.002025333931669593,0.0065684206783771515,0.0016082830261439085
1772702162055955000,6.317954833984375,0.0014112089993432164,0.006434729788452387,-0.000928377965465188
1772702162066004000,6.32800390625,-0.0016317188274115324,0.009240902960300446,-0.0020295949652791023
1772702162076054000,6.338053955078125,0.0002716424351092428,0.008806540630757809,0.0009952232940122485
1772702162086103000,6.34810302734375,-0.0025068335235118866,0.009639311581850052,0.0005898901727050543
1772702162096153000,6.358153076171875,-0.0002644518972374499,0.008127701468765736,-0.000028762138754245825
1772702162106202000,6.3682021484375,-0.0017441042000427842,0.007679757662117481,-0.0020777983590960503
1772702162116252000,6.378251953125,-0.0005249090609140694,0.0075575183145701885,0.00032570460462011397
1772702162126301000,6.388301025390625,-0.0033931334037333727,0.008223840966820717,-0.0008495483780279756
1772702162136351200,6.398351318359375,-0.001790975802578032,0.005398227367550135,-0.00014034859486855567
1772702162146400000,6.40839990234375,0.0004996090428903699,0.0067910607904195786,-0.001752093667164445
1772702162156450000,6.418449951171875,-0.003512975759804249,0.0065684206783771515,0.0021401161793619394
1772702162166499000,6.4284990234375,0.00016431703988928348,0.005846171174198389,-0.0005262406193651259
1772702162176548900,6.438548828125,-0.002659965306520462,0.007334345486015081,-0.0013318468118086457
1772702162186598100,6.44859814453125,-0.0013853764394298196,0.008076036348938942,0.0014924354618415236
1772702162196648200,6.458648193359375,-0.0007712514488957822,0.008129033260047436,0.0011914982460439205
1772702162206697000,6.468697021484375,-0.0004980111261829734,0.009709352627396584,-0.0021020330023020506
1772702162216747000,6.4787470703125,-0.00033342777169309556,0.00526586826890707,-0.0016058861510828137
1772702162226796000,6.488796142578125,-0.0014796522445976734,0.008319448679685593,0.001344363670796156
1772702162236846000,6.49884619140625,-0.001487641828134656,0.009741044603288174,0.0004138552176300436
1772702162246895000,6.50889501953125,-0.002700711600482464,0.007221959996968508,0.0022708773612976074
1772702162256945200,6.518945068359375,-0.0008402272942475975,0.008625712245702744,-0.0026759442407637835
1772702162266994000,6.528993896484375,0.00016245282313320786,0.00711836339905858,0.0008186557097360492
1772702162277044000,6.5390439453125,-0.0007752461824566126,0.008564193733036518,-0.0012745888670906425
1772702162287093200,6.54909326171875,-0.002403769176453352,0.006429137196391821,0.00006178533658385277
1772702162297143000,6.55914306640625,-0.0008617989369668067,0.0079748360440135,-0.0016911072889342904
1772702162307192000,6.569192138671875,-0.002520149340853095,0.009211341850459576,0.00003834952076431364
1772702162317242000,6.5792421875,0.0002743055811151862,0.008762865327298641,-0.0002591255761217326
1772702162327291100,6.589291015625,-0.0004732437082566321,0.006720487028360367,0.0009592706337571144
1772702162337341200,6.599341064453125,-0.0023244069889187813,0.005879727192223072,0.002180862706154585
1772702162347390000,6.609389892578125,-0.0008442220860160887,0.006866960786283016,-0.0013558153295889497
1772702162357440000,6.61943994140625,-0.001156877144239843,0.007633684668689966,-0.0004261057765688747
1772702162367489000,6.629489013671875,-0.0025923210196197033,0.008627576753497124,-0.003516171593219042
1772702162377539000,6.6395390625,-0.0005416869535110891,0.009238772094249725,0.0012173309223726392
1772702162387588000,6.649588134765625,0.0013347762869670987,0.004848284646868706,0.0005225121858529747
1772702162397638100,6.65963818359375,0.00038722361205145717,0.00749014038592577,-0.0002990729990415275
1772702162407687000,6.66968701171875,-0.0026085663121193647,0.00791251752525568,0.0009201221400871873
1772702162417737000,6.679737060546875,-0.00040480049210600555,0.007137271575629711,-0.002635730430483818
1772702162427786000,6.689785888671875,-0.0003789678157772869,0.007443801499903202,-0.0020594224333763123
1772702162437836300,6.699836181640625,-0.0014775217277929187,0.0065436530858278275,-0.001978995045647025
1772702162447885000,6.709885009765625,-0.00045593318645842373,0.007620102725923061,0.0030546458438038826
1772702162457935000,6.71993505859375,-0.004619519226253033,0.008934905752539635,0.0006082659820094705
1772702162467984000,6.72998388671875,-0.0023031015880405903,0.006742857396602631,-0.0018045579781755805
1772702162478034000,6.740033935546875,-0.00281975488178432,0.009013202041387558,0.0036820864770561457
1772702162488083200,6.750083251953125,0.0008237157016992569,0.006825149059295654,0.0004524710529949516
1772702162498133000,6.760133056640625,0.0002854908525478095,0.005347361322492361,0.0011965582380071282
1772702162508182000,6.77018212890625,0.00012783173588104546,0.005110339727252722,-0.00224957219325006
1772702162518232000,6.780232177734375,-0.0016996293561533093,0.007318899035453796,-0.0018753979820758104
1772702162528281000,6.790281005859375,-0.002369148191064596,0.008113852702081203,-0.0025158883072435856
1772702162538331100,6.8003310546875,-0.002071140334010124,0.009986321441829205,-0.00039947417099028826
1772702162548380200,6.810380126953125,-0.002668221015483141,0.006564425770193338,0.0003326288133393973
1772702162558430000,6.820429931640625,-0.0012857741676270962,0.0070581757463514805,-0.00000852211542223813
1772702162568479200,6.830479248046875,-0.0036607813090085983,0.006745786871761084,-0.0007534082396887243
1772702162578529000,6.840529052734375,-0.00039068571641109884,0.007212372962385416,-0.0014682007022202015
1772702162588578300,6.850578369140625,-0.0025126924738287926,0.00893676932901144,-0.0008801747462712228
1772702162598628400,6.86062841796875,0.0007014766451902688,0.007071225438266993,-0.00031638352083973587
1772702162608677000,6.870677001953125,-0.0037081853952258825,0.009816678240895271,-0.0025931198615580797
1772702162618727200,6.88072705078125,-0.0007161240209825337,0.005539108533412218,-0.001133174984715879
1772702162628776200,6.890776123046875,-0.0025835325941443443,0.009326656349003315,-0.0023097596131265163
1772702162638826200,6.900826171875,-0.002144643571227789,0.00726536987349391,0.0005914880894124508
1772702162648875300,6.910875244140625,-0.0006623281515203416,0.007488809060305357,-0.0035446672700345516
1772702162658925300,6.92092529296875,-0.0015281217638403177,0.008959938772022724,0.0020655477419495583
1772702162668974000,6.93097412109375,-0.0017044231062754989,0.009849967435002327,-0.002457298804074526
1772702162679024000,6.941024169921875,-0.0012066783383488655,0.009111206978559494,-0.0021489046048372984
1772702162689073400,6.951073486328125,0.0015867113834246993,0.007186806295067072,0.00027324032271280885
1772702162699123200,6.961123291015625,-0.0008202536264434457,0.008813198655843735,-0.0018130800453945994
1772702162709172200,6.971172119140625,-0.0034645062405616045,0.008250206708908081,-0.0004894890007562935
1772702162719222300,6.98122216796875,-0.0006103964988142252,0.006985737942159176,-0.0000476705827168189
1772702162729271300,6.991271240234375,-0.0010402307379990816,0.006001433357596397,0.0013193299528211355
1772702162739321300,7.0013212890625,-0.0005611280212178826,0.007437143474817276,-0.0015001586871221662
1772702162749370400,7.011370361328125,-0.0006514092092402279,0.008173507638275623,0.0007779093575663865
1772702162759420200,7.021420166015625,-0.0007440872141160071,0.0075942701660096645,-0.0009499495499767363
1772702162769469200,7.03146923828125,-0.0028570392169058323,0.0062885223887860775,-0.0007382282637991011
1772702162779519200,7.041519287109375,-0.0011470235185697675,0.008926116861402988,-0.0014660701854154468
1772702162789568300,7.051568359375,-0.0013821806060150266,0.008322112262248993,-0.0007030745036900043
1772702162799618300,7.061618408203125,-0.000597879639826715,0.007466704584658146,-0.0025936525780707598
1772702162809667000,7.0716669921875,-0.000752875639591366,0.0056925066746771336,-0.002517486223950982
1772702162819717000,7.081717041015625,-0.0005728459218516946,0.00660543842241168,-0.002088450826704502
1772702162829766400,7.091766357421875,-0.0009992180857807398,0.007881092838943005,-0.0026434536557644606
1772702162839816400,7.10181640625,-0.0010543455136939883,0.005344964098185301,-0.0004069310089107603
1772702162849865200,7.111865234375,-0.001290834159590304,0.009310144931077957,-0.0012282498646527529
1772702162859915300,7.121915283203125,-0.0016855146968737245,0.007161506451666355,-0.00023941817926242948
1772702162869964000,7.131964111328125,0.0002825613773893565,0.006157760974019766,-0.0006330333999358118
1772702162880014000,7.14201416015625,-0.0015723302494734526,0.006600644905120134,0.00043995422311127186
1772702162890063400,7.1520634765625,-0.001484179636463523,0.007200388703495264,-0.0029880667570978403
1772702162900113200,7.162113037109375,0.00040986048406921327,0.008963934145867825,0.0017757958266884089
1772702162910162200,7.172162109375,-0.0021369203459471464,0.0073074474930763245,-0.002630404196679592
1772702162920212200,7.182212158203125,-0.0012868394842371345,0.007870705798268318,-0.0004820321628358215
1772702162930261200,7.19226123046875,-0.000931041082367301,0.008518919348716736,-0.0006210491410456598
1772702162940311300,7.202311279296875,-0.0007986819837242365,0.004296477884054184,-0.0019891150295734406
1772702162950360300,7.2123603515625,0.000007456851108145202,0.007129814941436052,0.0005118595436215401
1772702162960410000,7.22241015625,-0.0011728560784831643,0.008824650198221207,0.00011052118497900665
1772702162970459100,7.232459228515625,0.001597896683961153,0.008273642510175705,0.0013965616235509515
1772702162980509200,7.24250927734375,0.0004588626616168767,0.005825931206345558,-0.0016322514275088906
1772702162990558200,7.25255810546875,-0.0015872439835220575,0.006767624989151955,-0.001755023142322898
1772702163000608300,7.262608154296875,-0.00011957593233091757,0.002971555106341839,-0.002494050422683358
1772702163010657300,7.2726572265625,-0.00010412959818495438,0.007010505069047213,-0.002304965863004327
1772702163020707000,7.28270703125,-0.0017664746847003698,0.009971141815185547,-0.001701759872958064
1772702163030756400,7.29275634765625,-0.0016215987270697951,0.027121100574731827,0.008807339705526829
1772702163040806400,7.302806396484375,-0.001181644620373845,0.028929386287927628,0.00933011807501316
1772702163050855200,7.312855224609375,-0.004281297791749239,0.044197820127010345,0.018669292330741882
1772702163060905200,7.3229052734375,-0.001597630325704813,0.03448846936225891,0.011799934320151806
1772702163070954200,7.332954345703125,0.0016074840677902102,-0.015371233224868774,-0.010937335900962353
1772702163081004000,7.343004150390625,0.0023491743486374617,-0.04324360936880112,-0.023456590250134468
1772702163091053300,7.35305322265625,0.0013755226973444223,-0.0034442662727087736,-0.003222425002604723
1772702163101103400,7.363103271484375,-0.0015986956423148513,0.002008556155487895,-0.005800630897283554
1772702163111152000,7.373152099609375,-0.0017161410069093108,-0.0076062544248998165,-0.008792426437139511
1772702163121202200,7.3832021484375,-0.00088949577184394,0.014096910133957863,0.0024735440965741873
1772702163131251500,7.39325146484375,0.00036192359402775764,0.003596865339204669,-0.005494633689522743
