time,seconds_elapsed,z,y,x
1772702155802650000,0.064650146484375,0.0013432163977995515,0.000870757270604372,0.0016058345790952444
1772702155812700200,0.0747001953125,-0.00017957913223654032,-0.0010661599226295948,0.001589589286595583
1772702155822749200,0.084749267578125,-0.0002732116263359785,0.0023988080210983753,0.001428383868187666
1772702155832799200,0.09479931640625,-0.0019720420241355896,0.0004496406763792038,-0.0001916170585900545
1772702155842848000,0.104847900390625,0.002706181723624468,-0.0016261553391814232,0.001780958380550146
1772702155852898000,0.11489794921875,0.00003796082455664873,0.0013720309361815453,-0.0006494423723779619
1772702155862947300,0.124947265625,0.00016101368237286806,0.0015218048356473446,0.0006300584063865244
1772702155872997400,0.134997314453125,-0.0005316745955497026,-0.0003546583466231823,-0.0011848858557641506
1772702155883046100,0.145046142578125,0.0028813781682401896,-0.0028705750592052937,-0.0007301249424926937
1772702155893096200,0.15509619140625,0.0006794765358790755,-0.0014905249699950218,0.0020611342042684555
1772702155903145000,0.16514501953125,-0.0003252329770475626,-0.00042532291263341904,-0.0004035793826915324
1772702155913195000,0.175195068359375,-0.0009726474527269602,0.00026576733216643333,-0.0006469922955147922
1772702155923244300,0.185244384765625,0.0003511423710733652,0.0010796249844133854,0.0020439366344362497
1772702155933294300,0.19529443359375,0.0007229196489788592,0.0008772243745625019,-0.0009603752405382693
1772702155943343000,0.205343017578125,0.0013059108750894666,-0.0036135490518063307,-0.0008048716117627919
1772702155953393200,0.21539306640625,0.0015724932309240103,-0.001773038413375616,0.00032537392689846456
1772702155963443200,0.225443115234375,0.0015541756292805076,-0.0008728192187845707,0.002125754952430725
1772702155973492200,0.2354921875,-0.0003419950371608138,0.0006156214512884617,-0.0005355420289561152
1772702155983542300,0.245542236328125,0.0010937796905636787,-0.002311906311661005,0.0002273234713356942
1772702155993591000,0.255591064453125,-0.002454882487654686,0.002984055317938328,-0.000009964162018150091
1772702156003641000,0.26564111328125,-0.0003045861376449466,0.0014190170913934708,0.0016991752199828625
1772702156013690000,0.275690185546875,-0.0014132600044831634,-0.0006412048824131489,0.0013034294825047255
1772702156023740400,0.285740478515625,0.0005411156453192234,0.0010574981570243835,-0.0003576138406060636
1772702156033789200,0.2957890625,0.0010649594478309155,0.0010305996984243393,-0.0009653472225181758
1772702156043839200,0.305839111328125,0.0004821152542717755,0.00007072417065501213,0.002800014102831483
1772702156053888000,0.315887939453125,0.001286922488361597,0.0008720690384507179,-0.0006096310098655522
1772702156063938000,0.32593798828125,-0.0006489309016615152,-0.0009346138685941696,-0.003055548993870616
1772702156073987300,0.3359873046875,-0.0005834171315655112,0.0015232176519930363,0.0033035469241440296
1772702156084037000,0.346037109375,0.0012302218237891793,0.002114533446729183,-0.00005683582276105881
1772702156094086100,0.356086181640625,0.002608940238133073,0.0010519325733184814,-0.0010379443410784006
1772702156104136200,0.36613623046875,0.0005846966523677111,0.00147600332275033,0.001863829791545868
1772702156114185200,0.376185302734375,0.0019101519137620926,0.00026799319311976433,-0.0002991896471939981
1772702156124235300,0.3862353515625,0.0008375303586944938,-0.00146928196772933,0.0006731366738677025
1772702156134284300,0.3962841796875,0.00014084740541875362,0.0002591093070805073,-0.0003636319888755679
1772702156144334000,0.406333984375,0.0024878960102796555,0.00011768238618969917,-0.000992191256955266
1772702156154383000,0.416383056640625,-0.00023012631572782993,-0.0006807334721088409,0.0007308739586733282
1772702156164433200,0.42643310546875,0.0016703872242942452,0.0005308468826115131,-0.0017082681879401207
1772702156174482200,0.436482177734375,0.0008312251884490252,0.0004690620116889477,0.000373524846509099
1772702156184532200,0.4465322265625,-0.001657851622439921,0.0008039921522140503,-0.0000957179581746459
1772702156194581200,0.456581298828125,0.002316383644938469,0.00010464619845151901,0.0014907270669937134
1772702156204631000,0.466631103515625,0.0023600542917847633,-0.0013377070426940918,0.0021469825878739357
1772702156214680300,0.476680419921875,0.00023245508782565594,-0.0005379598587751389,0.00043909731903113425
1772702156224730400,0.48673046875,0.0035371766425669193,-0.00426506856456399,-0.00021449493942782283
1772702156234779100,0.496779052734375,-0.002467186190187931,-0.0014453139156103134,-0.0020736476872116327
1772702156244829200,0.5068291015625,-0.00025400472804903984,-0.0007553924806416035,0.001460248720832169
1772702156254878200,0.516878173828125,0.0012845033779740334,-0.0005218335427343845,-0.0007128907018341124
1772702156264928000,0.526927978515625,0.002612707205116749,-0.00042585982009768486,0.0008377911290153861
1772702156274977300,0.536977294921875,-0.0023753936402499676,0.0023848400451242924,0.000914490083232522
1772702156285027300,0.54702734375,0.0017217000713571906,-0.0007501379586756229,0.0020215599797666073
1772702156295076000,0.557076171875,0.00003165809903293848,-0.0004318901337683201,-0.0006405357853509486
1772702156305126100,0.567126220703125,-0.0021701252553611994,0.0013730945065617561,-0.0007697039400227368
1772702156315175200,0.577175048828125,-0.0005333465524017811,0.0014527235180139542,-0.0005531889037229121
1772702156325225200,0.58722509765625,-0.003290960332378745,0.0011735288426280022,-0.0012341744732111692
1772702156335274200,0.597274169921875,-0.0011308703105896711,0.00227474607527256,-0.0008362982189282775
1772702156345324300,0.60732421875,0.0017787397373467684,0.00012976489961147308,0.0006695696501992643
1772702156355373000,0.617373046875,-0.00037309445906430483,0.0013699987903237343,0.00039047037716954947
1772702156365423000,0.627423095703125,-0.0009361108532175422,-0.0024937759153544903,0.00037719376268796623
1772702156375472000,0.63747216796875,-0.00035847106482833624,-0.00003674393519759178,0.0015468541532754898
1772702156385522200,0.647522216796875,-0.000103927799500525,0.00011155195534229279,0.0002164999023079872
1772702156395571200,0.6575712890625,0.0015698689967393875,-0.0010884683579206467,-0.0012695440091192722
1772702156405621200,0.667621337890625,0.00014448980800807476,0.00006126053631305695,-0.0020682038739323616
1772702156415670300,0.677670166015625,-0.0013002750929445028,0.0016788644716143608,-0.0008929509203881025
1772702156425720300,0.68772021484375,0.002306288806721568,0.0014666435308754444,-0.001048187492415309
1772702156435769000,0.69776904296875,0.0003113148268312216,0.00013399729505181313,0.0006373270298354328
1772702156445819100,0.707819091796875,-0.0011731875129044056,-0.00032670842483639717,0.0008386095869354904
1772702156455868200,0.7178681640625,-0.00007516634650528431,0.0005460092797875404,0.002142493147403002
1772702156465918000,0.72791796875,0.0023125025909394026,0.0007783630862832069,-0.0011966724414378405
1772702156475967200,0.73796728515625,-0.002782390918582678,-0.0005798493511974812,-0.0007378098671324551
1772702156486017300,0.748017333984375,-0.00015413039363920689,0.002383911982178688,0.00046370463678613305
1772702156496066000,0.758066162109375,-0.002484662691131234,0.0016334326937794685,-0.0006377787212841213
1772702156506116000,0.7681162109375,0.003770875046029687,-0.00017396686598658562,0.0023256971035152674
1772702156516165400,0.778165283203125,-0.0019756939727813005,-0.00005066255107522011,-0.000754781358409673
1772702156526215200,0.788215087890625,0.00017744291108101606,0.0006593624129891396,-0.0013837636215612292
1772702156536265200,0.79826513671875,0.0005324423545971513,-0.0016559893265366554,0.0005166680784896016
1772702156546314200,0.808314208984375,0.00020759645849466324,-0.0003711320459842682,0.00040365324821323156
1772702156556364000,0.818364013671875,-0.000997483846731484,0.0008605797775089741,-0.0001904980163089931
1772702156566412300,0.828412353515625,-0.0005155488615855575,-0.0011100992560386658,0.00029937963699921966
1772702156576462300,0.83846240234375,0.0003196184406988323,0.000551979523152113,0.001704729744233191
1772702156586511000,0.848510986328125,0.00015010579954832792,0.00038585206493735313,-0.0012702539097517729
1772702156596561200,0.85856103515625,-0.001179610495455563,-0.000003768131136894226,-0.000476365617942065
1772702156606610200,0.868610107421875,0.0007840491598471999,-0.0011714068241417408,0.0012226235121488571
1772702156616660200,0.87866015625,0.0021310760639607906,0.000951132271438837,0.000024733715690672398
1772702156626709200,0.888709228515625,0.0008188393549062312,-0.0017106421291828156,0.0016550681320950389
1772702156636759300,0.89875927734375,0.0008425414562225342,-0.0015047797933220863,0.00027288749697618186
1772702156646808000,0.90880810546875,0.0018824354046955705,-0.0013998919166624546,0.0016898713074624538
1772702156656858000,0.918858154296875,0.0007356783025898039,0.00006671110168099403,0.00011434510815888643
1772702156666907100,0.9289072265625,0.0015301324892789125,0.0019535915926098824,-0.00006961612962186337
1772702156676957200,0.938957275390625,-0.00013620743993669748,-0.0005180886946618557,-0.0007583096157759428
1772702156687006200,0.949006103515625,-0.00038326007779687643,0.0015385407023131847,0.000989962718449533
1772702156697056300,0.95905615234375,-0.00021414936054497957,-0.001463374588638544,0.00017024175031110644
1772702156707105300,0.969105224609375,0.0005304552614688873,-0.00020615244284272194,-0.0017542580608278513
1772702156717155300,0.9791552734375,0.00030941289151087403,-0.0007555629126727581,0.000974683091044426
1772702156727204000,0.9892041015625,-0.001975583378225565,0.0014607594348490238,0.0009378171525895596
1772702156737254100,0.999254150390625,-0.0021771849133074284,0.000023717526346445084,-0.0008952366188168526
1772702156747303200,1.00930322265625,0.0002745346864685416,0.00028015999123454094,0.0014427972491830587
1772702156757353000,1.01935302734375,-0.00002586992923170328,-0.0025254799984395504,0.000530398334376514
1772702156767402200,1.02940234375,0.0009582189959473908,0.0006430181674659252,-0.0011190014192834496
1772702156777452300,1.039452392578125,0.0010381138417869806,-0.0005050706677138805,0.0009494757978245616
1772702156787501000,1.0495009765625,0.0007043219520710409,0.00032281456515192986,0.00038264828617684543
1772702156797551000,1.059551025390625,-0.0003553498536348343,0.001800602301955223,-0.0003659663489088416
1772702156807600400,1.069600341796875,-0.00013964937534183264,-0.00020375242456793785,-0.0008267958764918149
1772702156817650200,1.079650146484375,-0.002336490899324417,0.001173368189483881,0.0005388731369748712
1772702156827699200,1.08969921875,-0.0010251947678625584,-0.0013748439960181713,-0.0008985493914224207
1772702156837749200,1.099749267578125,-0.0006046815542504191,0.001732266042381525,-0.0018192040733993053
1772702156847798000,1.109798095703125,-0.00042428774759173393,0.00005680043250322342,0.0006779421237297356
1772702156857848000,1.11984814453125,0.00001673167571425438,0.0007332433015108109,-0.0016200996469706297
1772702156867897300,1.1298974609375,-0.0008702228078618646,0.0002858932130038738,0.0007444418151862919
1772702156877947100,1.139947021484375,0.0013409998500719666,-0.00021398207172751427,-0.000057968602050095797
1772702156887996200,1.14999609375,0.0003909584484063089,0.00043081119656562805,0.0002339437196496874
1772702156898046200,1.160046142578125,0.001750502153299749,0.00003506569191813469,-0.0007833837880752981
1772702156908095200,1.17009521484375,-0.00020937807857990265,-0.002460071351379156,0.0006780562689527869
1772702156918145300,1.180145263671875,0.00016373081598430872,-0.00038307206705212593,-0.001585364225320518
1772702156928194300,1.1901943359375,-0.000311655574478209,0.00007316237315535545,-0.00029895134503021836
1772702156938244000,1.200244140625,-0.0023329947143793106,-0.0006552119739353657,-0.0007492919103242457
1772702156948293000,1.210293212890625,0.0013172492617741227,-0.0006938688457012177,-0.0002149991923943162
1772702156958343200,1.22034326171875,-0.0011349894339218736,-0.0009213029406964779,-0.0008014272898435593
1772702156968392200,1.23039208984375,-0.0010965251130983233,0.0009501730091869831,0.0023747216910123825
1772702156978442200,1.240442138671875,-0.0021652518771588802,0.0010508405975997448,0.0007922713411971927
1772702156988491000,1.250490966796875,0.0017107826424762607,0.0025851381942629814,-0.0007462374633178115
1772702156998541000,1.260541015625,0.0008615005644969642,0.0015856539830565453,0.0009707025019451976
1772702157008590300,1.27059033203125,0.004616793245077133,0.001079821027815342,0.0008183065219782293
1772702157018640400,1.280640380859375,-0.00003947771620005369,0.000188460573554039,-0.000887181842699647
1772702157028689200,1.290689208984375,0.0006358809769153595,-0.0010988693684339523,0.0009229682036675513
1772702157038739200,1.3007392578125,0.0011466753203421831,-0.000012299511581659317,-0.0011281984625384212
1772702157048788000,1.3107880859375,-0.0005141082219779491,-0.00019036885350942612,0.0021283733658492565
1772702157058838000,1.320838134765625,0.0007852480630390346,0.0004799491725862026,-0.0020445336122065783
1772702157068887300,1.33088720703125,0.0013117858907207847,0.0023357197642326355,0.001165282679721713
1772702157078937300,1.340937255859375,-0.002174025634303689,0.00010505598038434982,0.002167163882404566
1772702157088986000,1.350986083984375,-0.004604785703122616,0.00010657450184226036,0.001410587807185948
1772702157099036200,1.3610361328125,0.0015279415529221296,0.002412073314189911,0.0007826143992133439
1772702157109085200,1.371085205078125,0.0008826438570395112,0.0004827892407774925,-0.0027774544432759285
1772702157119135200,1.38113525390625,-0.001212198520079255,0.002595475409179926,0.0003592166176531464
1772702157129184300,1.391184326171875,-0.0005853901384398341,0.001568575855344534,0.0009502323810011148
1772702157139234000,1.401234130859375,-0.0004977722419425845,-0.0010045701637864113,0.0010999019723385572
1772702157149283000,1.411282958984375,0.0023753743153065443,-0.00040161702781915665,-0.0015244418755173683
1772702157159333000,1.4213330078125,0.0027213189750909805,-0.0005864403210580349,0.0006596164312213659
1772702157169383200,1.431383056640625,0.0004669192712754011,-0.002248866483569145,0.0013922436628490686
1772702157179432200,1.44143212890625,0.000957473530434072,0.0005059074610471725,0.003050327766686678
1772702157189482200,1.451482177734375,-0.00074712501373142,0.000023125670850276947,-0.0004942400264553726
1772702157199531000,1.461531005859375,-0.0017612568335607648,0.00014616362750530243,0.0009276217315346003
1772702157209581000,1.4715810546875,0.001309222774580121,0.0001486353576183319,-0.001893388107419014
1772702157219630300,1.48163037109375,0.002788342535495758,-0.00004950398579239845,0.00001689739292487502
1772702157229680000,1.49168017578125,-0.0004060810897499323,-0.0008413093164563179,-0.0018956599524244666
1772702157239729200,1.501729248046875,-0.00024362828116863966,0.000508913304656744,0.0013360859593376517
1772702157249779200,1.511779296875,0.0008663382614031434,-0.0030155889689922333,0.0006210425635799766
1772702157259828000,1.521827880859375,0.0006934991106390953,0.0012191031128168106,-0.00041492708260193467
1772702157269878300,1.531878173828125,-0.0005951081402599812,0.001423027366399765,-0.0016049313126131892
1772702157279927300,1.54192724609375,0.0005686932126991451,0.00031462032347917557,0.001530674402602017
1772702157289977000,1.55197705078125,0.0009419583948329091,-0.0010825195349752903,0.0021501746959984303
1772702157300026000,1.562026123046875,0.00043649040162563324,-0.0024021160788834095,0.0012369768228381872
1772702157310076200,1.572076171875,0.0008056733058765531,0.0005155019462108612,-0.0008316165185533464
1772702157320125200,1.582125244140625,-0.0017783918883651495,0.0011370833963155746,0.0007726716576144099
1772702157330175200,1.59217529296875,0.0003793467185460031,0.0004887511022388935,0.0013029315741732717
1772702157340224300,1.602224365234375,-0.0013935195747762918,0.0017982269637286663,-0.0028601218946278095
1772702157350274000,1.612274169921875,0.000044018030166625977,-0.00020740320906043053,0.00046864754403941333
1772702157360323000,1.622322998046875,0.0009537538280710578,0.0009500063024461269,0.00001990492455661297
1772702157370373400,1.632373291015625,-0.000359963858500123,0.0021090195514261723,-0.001731466967612505
1772702157380422100,1.642422119140625,-0.00033706065732985735,0.0013398989103734493,-0.0018790059257298708
1772702157390472200,1.65247216796875,-0.001144292880780995,-0.0014254096895456314,-0.0016565071418881416
1772702157400521200,1.662521240234375,-0.0011493529891595244,0.002322989050298929,-0.001949721248820424
1772702157410571000,1.672571044921875,0.0014939812244847417,-0.002515725791454315,-0.00019152200547978282
1772702157420620300,1.682620361328125,-0.00017901661340147257,0.0013290797360241413,-0.000311097945086658
1772702157430670300,1.69267041015625,0.0015338612720370293,-0.0000726534053683281,0.0010482578072696924
1772702157440719000,1.702718994140625,0.001708564697764814,0.0009148470126092434,-0.0007613601628690958
1772702157450769200,1.71276904296875,-0.001450156792998314,0.0005009439773857594,-0.000007197842933237553
1772702157460818200,1.722818115234375,-0.000308459741063416,0.00040134182199835777,-0.0008016188512556255
1772702157470868200,1.7328681640625,0.0024076723493635654,0.0021787672303617,0.0021950663067400455
1772702157480917200,1.742917236328125,-0.0010736117837950587,-0.0018692375160753727,0.0017806785181164742
1772702157490967300,1.75296728515625,0.0014155537355691195,0.00008012494072318077,-0.0020659812726080418
1772702157501016000,1.76301611328125,-0.0005320159252732992,0.0007310016080737114,0.00010902245412580669
1772702157511066000,1.773066162109375,-0.00015361234545707703,-0.0013753557577729225,-0.00044539826922118664
1772702157521115100,1.783115234375,-0.0017419216455891728,-0.0001950431615114212,0.0015482441522181034
1772702157531165200,1.793165283203125,0.0000307734590023756,0.0004885601811110973,0.00148063525557518
1772702157541214200,1.803214111328125,-0.0021471595391631126,0.0010899021290242672,-0.000923666637390852
1772702157551264300,1.81326416015625,-0.0017138702096417546,-0.0004690871573984623,-0.0013632127083837986
1772702157561313800,1.823313720703125,0.0011844480177387595,0.001259304117411375,-0.0006119349272921681
1772702157571363600,1.833363525390625,0.0006563906208612025,-0.00021447474136948586,0.0021672670263797045
1772702157581412900,1.843412841796875,-0.0011455040657892823,0.0006174971349537373,0.001761667663231492
1772702157591463000,1.853462890625,-0.0009506713831797242,-0.0003162473440170288,0.0011116702808067203
1772702157601511700,1.86351171875,0.00028476916486397386,-0.001011864747852087,0.002196109388023615
1772702157611561700,1.873561767578125,0.0012132690753787756,-0.0020509925670921803,-0.00022008817177265882
1772702157621610800,1.88361083984375,0.0007549390429630876,0.00025716889649629593,-0.0018241101643070579
1772702157631660800,1.893660888671875,-0.0013528214767575264,0.0000848202034831047,0.00021860023844055831
1772702157641709800,1.903709716796875,0.00234950496815145,0.00017004134133458138,0.0016393966507166624
1772702157651759900,1.913759765625,-0.002302536042407155,0.000010213814675807953,-0.00033702561631798744
1772702157661808600,1.92380859375,-0.0013539181090891361,0.0021719015203416348,0.00013648445019498467
1772702157671858700,1.933858642578125,-0.0012307647848501801,0.0008596652187407017,-0.0011922745034098625
1772702157681908000,1.943907958984375,0.0002709918189793825,-0.0003438172861933708,-0.00008413317846134305
1772702157691957800,1.953957763671875,0.001169876311905682,-0.0010623568668961525,-0.00005161896115168929
1772702157702006800,1.9640068359375,-0.0009414778323844075,-0.00026953360065817833,0.0025367073249071836
1772702157712056800,1.974056884765625,-0.0009768743766471744,-0.0007533906027674675,0.00032951656612567604
1772702157722105900,1.98410595703125,0.00023459747899323702,-0.002560878172516823,0.0026195687241852283
1772702157732156000,1.994156005859375,-0.0017328618559986353,0.00008166022598743439,0.0013304702006280422
1772702157742205000,2.004204833984375,0.0024480344727635384,0.0009961901232600212,0.00035894906613975763
1772702157752254700,2.014254638671875,-0.0008978024125099182,-0.0005476106889545918,-0.0030845049768686295
1772702157762303700,2.0243037109375,-0.0005622440949082375,-0.0009252470917999744,0.0010186271974816918
1772702157772353800,2.034353759765625,0.0000361989950761199,-0.001445145346224308,0.002657029079273343
1772702157782402800,2.04440283203125,0.0014743059873580933,-0.0013298303820192814,0.0010306366020813584
1772702157792452900,2.054452880859375,-0.000878981314599514,0.001045573502779007,-0.0005429578595794737
1772702157802502000,2.064501953125,0.0005284991930238903,0.0007592840120196342,-0.002673220355063677
1772702157812551700,2.0745517578125,-0.0019665074069052935,-0.00030318228527903557,-0.00046535517321899533
1772702157822601000,2.08460107421875,0.0006993168499320745,0.001202036626636982,-0.0006871965597383678
1772702157832651000,2.094651123046875,-0.00011096266098320484,-0.002314523793756962,-0.0017888408619910479
1772702157842699800,2.10469970703125,0.003000674769282341,0.0001518293283879757,-0.00020026526181027293
1772702157852749800,2.114749755859375,-0.0023658904246985912,-0.0000796034000813961,0.00044658820843324065
1772702157862798600,2.124798583984375,-0.002936872188001871,-0.00024711620062589645,0.000542994646821171
1772702157872848600,2.1348486328125,0.0016634132480248809,-0.0008708187378942966,0.0013802361208945513
1772702157882898000,2.14489794921875,0.0016679406398907304,0.00141151063144207,-0.0009779930114746094
1772702157892948000,2.154947998046875,0.0017298234160989523,-0.0002690502442419529,-0.0002923936117440462
1772702157902996700,2.164996826171875,-0.0023216435220092535,0.0003365525044500828,0.0010817975271493196
1772702157913046800,2.175046875,-0.0003883553436025977,0.0011060871183872223,0.00010971774463541806
1772702157923095800,2.185095703125,-0.000579570303671062,-0.0007000686600804329,-0.0030176322907209396
1772702157933145900,2.195145751953125,0.0005369287682697177,0.0006758463568985462,-0.0014218887081369758
1772702157943195000,2.20519482421875,-0.0003056953428313136,0.002911836374551058,-0.0006362560670822859
1772702157953244700,2.21524462890625,0.0009524408378638327,-0.0010323310270905495,-0.001023994293063879
1772702157963293700,2.225293701171875,-0.001340008107945323,0.002329111099243164,-0.0018564986530691385
1772702157973343700,2.23534375,-0.0011081742122769356,0.00028801895678043365,0.00257789040915668
1772702157983392800,2.245392822265625,-0.0019223024137318134,-0.000323709100484848,0.001855108654126525
1772702157993442800,2.25544287109375,0.0010500994976609945,0.001864883117377758,0.0010930865537375212
1772702158003491800,2.265491943359375,0.0009441056754440069,-0.0012315744534134865,-0.0007990893791429698
1772702158013541600,2.275541748046875,-0.0001300830626860261,0.0010736305266618729,0.0009458753629587591
1772702158023591000,2.2855908203125,0.0016329295467585325,-0.0008683465421199799,-0.0026198308914899826
1772702158033641000,2.295640869140625,-0.00020099838729947805,-0.000031052157282829285,-0.0005825739935971797
1772702158043689700,2.305689697265625,0.0038286305498331785,-0.00046354951336979866,-0.0010227945167571306
1772702158053739800,2.31573974609375,0.0003312169574201107,0.000498537439852953,-0.00018600869225338101
1772702158063788800,2.325788818359375,-0.0010134129552170634,-0.0006836396642029285,-0.002214538399130106
1772702158073838600,2.335838623046875,0.0012484864564612508,0.00048694293946027756,0.00038320801104418933
1772702158083887900,2.345887939453125,-0.0002601942978799343,0.00023207860067486763,0.0010186382569372654
1772702158093938000,2.35593798828125,-0.0013356636045500636,-0.00019705621525645256,-0.0020774751901626587
1772702158103987700,2.36598779296875,0.003369875717908144,-0.00014885328710079193,0.0004562564427033067
1772702158114036700,2.37603662109375,0.0009422228904440999,0.0017868317663669586,0.00015710564912296832
1772702158124086800,2.386086669921875,-0.0003222459927201271,0.0015340978279709816,0.0010489982087165117
1772702158134135800,2.3961357421875,0.0006869264761917293,0.00042231474071741104,-0.0019418569281697273
1772702158144185900,2.406185791015625,0.0007702834554947913,-0.0019998298957943916,0.0009226390975527465
1772702158154235000,2.41623486328125,-0.0002663105260580778,0.0013122623786330223,0.00003266951534897089
1772702158164284700,2.42628466796875,0.001771274022758007,0.00027203187346458435,-0.0008411136805079877
1772702158174333700,2.436333740234375,-0.0007629040628671646,0.0007436331361532211,0.0008158677374012768
1772702158184383700,2.4463837890625,-0.000010028365068137646,0.00000433996319770813,-0.0012784420978277922
1772702158194432800,2.456432861328125,0.001047089695930481,0.0018431209027767181,-0.0015223638620227575
1772702158204482800,2.46648291015625,-0.00033109611831605434,-0.0023034210316836834,0.0007333335233852267
1772702158214531800,2.47653173828125,-0.0012200245400890708,-0.000902954488992691,0.0006197098409757018
1772702158224581600,2.48658154296875,-0.00012946000788360834,0.0011801701039075851,-0.0025941929779946804
1772702158234631000,2.496630859375,-0.00011296023149043322,-0.00009574415162205696,0.000052461749874055386
1772702158244681000,2.506680908203125,0.0016593735199421644,0.0009146593511104584,-0.00007909844862297177
1772702158254729700,2.516729736328125,0.0004383811028674245,-0.0008012494072318077,0.0009132142877206206
1772702158264779800,2.52677978515625,0.0014463876141235232,-0.00045344047248363495,0.002821369096636772
1772702158274828800,2.536828857421875,0.000737981463316828,-0.00025848206132650375,0.0009151307167485356
1772702158284878800,2.54687890625,-0.001571245607919991,0.0005295472219586372,-0.0021251339931041002
1772702158294928000,2.556927978515625,0.0017643689643591642,-0.0014356141909956932,-0.0014330307021737099
1772702158304978000,2.56697802734375,0.001195517834275961,0.0009604319930076599,0.000643702398519963
1772702158315026700,2.577026611328125,-0.0018156284932047129,0.001324038952589035,0.0009192094439640641
1772702158325076700,2.58707666015625,-0.00016100658103823662,-0.00035295356065034866,0.0009274652693420649
1772702158335125800,2.597125732421875,-0.003279837779700756,-0.0004669269546866417,-0.003297782503068447
1772702158345175800,2.60717578125,-0.002442806027829647,0.0008763712830841541,-0.00046790740452706814
1772702158355224800,2.617224853515625,0.001245408784598112,0.0001008491963148117,0.00007552007446065545
1772702158365275000,2.62727490234375,-0.00019855715800076723,0.00046809855848550797,0.00020148756448179483
1772702158375323600,2.63732373046875,0.002284046495333314,0.0001357225701212883,-0.00008565408643335104
1772702158385374000,2.6473740234375,0.001632903702557087,-0.001172955147922039,-0.00023399211931973696
1772702158395422700,2.657422607421875,0.00012191443238407373,-0.001809992827475071,-0.001083053182810545
1772702158405472800,2.66747265625,-0.002209683181717992,0.000867282971739769,-0.002372555900365114
1772702158415521800,2.677521728515625,0.0014846078120172024,-0.0007842504419386387,0.001445309491828084
1772702158425571800,2.68757177734375,0.0004888518596999347,-0.0005621425807476044,0.0006165337399579585
1772702158435620900,2.697620849609375,-0.00026793370489031076,-0.000109837856143713,-0.0005334968445822597
1772702158445671000,2.7076708984375,-0.0008996354881674051,-0.0028488989919424057,0.0006681213853880763
1772702158455719700,2.7177197265625,-0.00010050565470010042,0.0005153724923729897,0.002798195229843259
1772702158465769700,2.727769775390625,0.0011312062852084637,0.0012261699885129929,0.0010303889866918325
1772702158475818800,2.73781884765625,0.0020036541391164064,0.0018966952338814735,-0.0008606452029198408
1772702158485868800,2.747868896484375,-0.0009037188719958067,-0.0014935084618628025,0.001021943287923932
1772702158495917800,2.757917724609375,-0.0022019119933247566,0.0023885658010840416,0.000568610499612987
1772702158505967900,2.7679677734375,0.0005155776161700487,-0.002547869458794594,0.0015031136572360992
1772702158516016600,2.7780166015625,0.0008040415705181658,-0.0029461784288287163,0.00012240716023370624
1772702158526066700,2.788066650390625,0.0037361816503107548,0.0013159443624317646,0.0007863331702537835
1772702158536116000,2.798115966796875,0.0014140158891677856,-0.0009270808659493923,-0.004226846620440483
1772702158546165800,2.808165771484375,0.000015057390555739403,-0.0016871471889317036,-0.0030513275414705276
1772702158556214800,2.81821484375,0.0013343688333407044,-0.0004823659546673298,-0.0008212153916247189
1772702158566264800,2.828264892578125,0.0035397326573729515,0.0012036808766424656,0.00019451425760053098
1772702158576313900,2.83831396484375,-0.0018977685831487179,0.00043558981269598007,-0.000009991752449423075
1772702158586364000,2.848364013671875,0.0017768610268831253,-0.0012190323323011398,-0.0015429073246195912
1772702158596413000,2.858412841796875,-0.0012210836866870522,-0.00006918935105204582,0.0013664597645401955
1772702158606463000,2.868462890625,0.002743297955021262,-0.00003882916644215584,-0.0008436976349912584
1772702158616511700,2.87851171875,-0.0003715616185218096,0.0010620253160595894,-0.0005456306971609592
1772702158626561800,2.888561767578125,0.0006106122164055705,-0.0011507957242429256,-0.000672663445584476
1772702158636610800,2.89861083984375,-0.001951937098056078,0.00041640177369117737,-0.0009575253934599459
1772702158646660900,2.908660888671875,0.0008228103979490697,-0.002113867085427046,-0.0014528734609484673
1772702158656710000,2.9187099609375,-0.0008996257092803717,-0.0007136636413633823,-0.00042037462117150426
1772702158666759700,2.928759765625,0.0002876116195693612,-0.00007716799154877663,-0.0019626112189143896
1772702158676809000,2.93880908203125,-0.00019949243869632483,-0.001308112870901823,0.0012078513391315937
1772702158686859000,2.94885888671875,0.0024562119506299496,-0.0009741522371768951,-0.000040105951484292746
1772702158696907800,2.95890771484375,-0.0014016727218404412,0.0018653967417776585,-0.00028547883266583085
1772702158706957800,2.968957763671875,-0.0011119208065792918,0.0010049291886389256,-0.0003155726008117199
1772702158717006800,2.9790068359375,0.0023867450654506683,-0.001877720933407545,0.0009008218185044825
1772702158727056600,2.989056640625,-0.0008109122281894088,0.00002457527443766594,-0.00034580385545268655
1772702158737106000,2.99910595703125,0.001881183823570609,0.0001842845231294632,-0.0018134561832994223
1772702158747156000,3.009156005859375,-0.002519689965993166,-0.0002098632976412773,-0.00017561204731464386
1772702158757204700,3.019204833984375,-0.0009328022133558989,-0.0008964403532445431,0.00019947273540310562
1772702158767254800,3.0292548828125,0.0025732493959367275,-0.001109492965042591,-0.0014958955580368638
1772702158777303800,3.0393037109375,0.00021488394122570753,-0.0014982526190578938,0.0006356733501888812
1772702158787353900,3.049353759765625,-0.0011979229748249054,0.00043333787471055984,0.0012727014254778624
1772702158797403000,3.05940283203125,0.001669004326686263,-0.0012909835204482079,-0.0007996310596354306
1772702158807453000,3.069452880859375,-0.00027483690064400434,-0.0009040259756147861,-0.0009514311677776277
1772702158817501700,3.079501708984375,0.0015634512528777122,-0.0007860357873141766,-0.0010771880624815822
1772702158827551700,3.0895517578125,-0.000498900655657053,0.001236102543771267,-0.0006231190636754036
1772702158837601000,3.09960107421875,0.0016008102102205157,0.0010551922023296356,0.0012399973347783089
1772702158847650800,3.10965087890625,0.0002133032539859414,-0.001470283605158329,-0.0007885324885137379
1772702158857699800,3.119699951171875,0.00036266149254515767,-0.0005608722567558289,0.0009826982859522104
1772702158867750000,3.12975,-0.0007412187987938523,-0.0004522153176367283,0.0018820477416738868
1772702158877799000,3.139798828125,-0.00032944511622190475,-0.0020224363543093204,-0.001390495104715228
1772702158887849000,3.149848876953125,0.0005211684620007873,0.00012087542563676834,-0.002472803695127368
1772702158897898000,3.15989794921875,0.0026107453741133213,0.00078547652810812,-0.0027392306365072727
1772702158907947800,3.16994775390625,-0.0003938330337405205,0.0004640333354473114,0.0011178257409483194
1772702158917996800,3.179996826171875,0.0011293201241642237,0.0010239696130156517,0.0003692209138534963
1772702158928046800,3.190046875,0.0005261141923256218,0.0011435458436608315,-0.0008856605854816735
1772702158938095900,3.200095947265625,0.001715022255666554,0.0001473049633204937,0.0003748142044059932
1772702158948146000,3.21014599609375,0.000022583408281207085,0.0009768800809979439,0.0006315429345704615
1772702158958194700,3.220194580078125,0.003532321657985449,0.00010684691369533539,0.001098940963856876
1772702158968244700,3.23024462890625,0.002077436773106456,0.0006112498231232166,0.0002568494528532028
1772702158978294000,3.2402939453125,-0.0009183983784168959,0.0024541481398046017,-0.0021417788229882717
1772702158988344000,3.250343994140625,0.000702401390299201,0.0004892679862678051,-0.0009364321012981236
1772702158998392800,3.260392822265625,0.0011404647957533598,0.002972140908241272,0.0010173898190259933
1772702159008443000,3.27044287109375,0.00015536148566752672,0.0004301536828279495,0.00022589837317354977
1772702159018491600,3.28049169921875,0.00037202046951279044,0.0005822251550853252,0.00040122654172591865
1772702159028541700,3.290541748046875,-0.0002982971491292119,-0.0008321795612573624,0.0028955433517694473
1772702159038591000,3.300591064453125,0.0007548065623268485,0.0025971224531531334,-0.000257807201705873
1772702159048640800,3.310640869140625,-0.0019304587040096521,-0.0010876273736357689,-0.000424521102104336
1772702159058689800,3.320689697265625,-0.0007814685814082623,0.00000959448516368866,-0.001120998989790678
1772702159068739800,3.33073974609375,-0.0010315394029021263,0.0014764638617634773,-0.0003904939512722194
1772702159078788900,3.340788818359375,0.000646604981739074,0.000918057281523943,-0.0018203395884484053
1772702159088839000,3.3508388671875,-0.0010873791761696339,-0.0004089958965778351,-0.0039711082354187965
1772702159098888000,3.360887939453125,0.0008195242844521999,-0.002515628933906555,-0.002490691840648651
1772702159108937700,3.370937744140625,-0.0013104720273986459,0.0013629994355142117,0.0012656969483941793
1772702159118986800,3.38098681640625,0.0023448760621249676,-0.000058626290410757065,-0.0026141908019781113
1772702159129036800,3.391036865234375,0.0004327264614403248,-0.0009060441516339779,-0.0009401276474818587
1772702159139085800,3.4010859375,-0.00238236365839839,-0.0008154483512043953,0.001020458759739995
1772702159149136000,3.411135986328125,-0.0007876628078520298,-0.001108662225306034,0.0015911741647869349
1772702159159185000,3.421184814453125,0.0028034355491399765,0.001188754104077816,-0.0009748305892571807
1772702159169234700,3.431234619140625,0.00027076929109171033,-0.0010158107616007328,-0.001608929131180048
1772702159179284000,3.441283935546875,0.0016364760231226683,0.0009395070374011993,0.0009132219711318612
1772702159189334000,3.451333984375,0.0015107747167348862,-0.0011894241906702518,0.0035018145572394133
1772702159199382800,3.4613828125,-0.002481035655364394,-0.000024844426661729813,-0.0008953692740760744
1772702159209432800,3.471432861328125,-0.0002924498403444886,0.0006747683510184288,0.00182185391895473
1772702159219481900,3.48148193359375,0.0006140211480669677,0.00012960843741893768,0.00020875813788734376
1772702159229531600,3.49153173828125,-0.002322646789252758,-0.00008450960740447044,-0.0017209682846441865
1772702159239581000,3.501580810546875,-0.0016341476002708077,0.001486500259488821,0.00161272834520787
1772702159249631000,3.511630859375,-0.0024906201288104057,0.002612485084682703,0.0002587772032711655
1772702159259679700,3.5216796875,-0.0020903330296278,0.0006820703856647015,0.0006777234957553446
1772702159269729800,3.531729736328125,-0.00046900054439902306,0.0009899321012198925,0.002214101143181324
1772702159279779000,3.541779052734375,-0.00011473021004348993,0.002257000654935837,0.00021860297420062125
1772702159289828900,3.551828857421875,0.001274640904739499,-0.0006676833145320415,0.001159231411293149
1772702159299878000,3.5618779296875,0.0003452110686339438,-0.0022945855744183064,-0.00006294925697147846
1772702159309928000,3.571927978515625,-0.0014183343155309558,0.0015773843042552471,0.0002518364053685218
1772702159319976700,3.581976806640625,0.0023462241515517235,0.0004181251861155033,-0.0020154803059995174
1772702159330026800,3.59202685546875,0.0001786774955689907,-0.0015254495665431023,0.0003014696703758091
1772702159340075800,3.60207568359375,-0.0028412374667823315,-0.0013617263175547123,0.0007286405307240784
1772702159350125800,3.612125732421875,-0.000057169003412127495,-0.0018448238261044025,-0.0008247813093475997
1772702159360174800,3.6221748046875,0.000946955697145313,-0.0017158770933747292,0.0017007486894726753
1772702159370225000,3.632224853515625,-0.001837911899201572,-0.0035257611889392138,-0.001308090751990676
1772702159380274000,3.64227392578125,0.0004008384421467781,-0.002617959398776293,-0.000014200457371771336
1772702159390324000,3.652323974609375,0.001611777814105153,-0.00207360927015543,-0.0006051558302715421
1772702159400372700,3.662372802734375,-0.0024585765786468983,0.000687839463353157,-0.000235819723457098
1772702159410422800,3.6724228515625,0.0005838185315951705,0.00055681262165308,0.0004941527149640024
1772702159420471800,3.682471923828125,-0.00246619014069438,-0.0008518286049365997,0.00003327685408294201
1772702159430521600,3.692521484375,0.001341864001005888,0.000029944349080324173,0.000007177877705544233
1772702159440571000,3.70257080078125,-0.0025399173609912395,0.002370499074459076,0.0004249314952176064
1772702159450621000,3.712620849609375,0.0006343043642118573,0.0013576988130807877,-0.0018901543226093054
1772702159460669700,3.722669677734375,0.002912950236350298,-0.0005450542084872723,-0.0003670088481158018
1772702159470719700,3.7327197265625,-0.0009837872348725796,-0.0006193565204739571,0.003184049855917692
1772702159480769000,3.74276904296875,-0.0006803581491112709,-0.0003393823280930519,-0.0024183928035199642
1772702159490818800,3.75281884765625,-0.0003019230207428336,-0.0009170221164822578,0.0008016352658160031
1772702159500868900,3.762868896484375,0.0016647225711494684,0.00048007117584347725,-0.0004239595145918429
1772702159510918000,3.77291796875,-0.0010538322385400534,-0.0008592326194047928,-0.00007961282972246408
1772702159520966700,3.782966552734375,-0.00030831038020551205,-0.0013935151509940624,-0.0013741664588451385
1772702159531016700,3.7930166015625,0.001540189841762185,-0.0008270610123872757,0.00007219618419185281
1772702159541067000,3.80306689453125,0.002660280792042613,-0.0011638407595455647,0.0008188509382307529
1772702159551115800,3.81311572265625,-0.0024652392603456974,-0.000036524608731269836,0.0021352514158934355
1772702159561165600,3.82316552734375,-0.0023344806395471096,0.0014788960106670856,-0.0007029185071587563
1772702159571214600,3.833214599609375,0.0004011184209957719,0.002072515431791544,0.001915501430630684
1772702159581264600,3.8432646484375,0.0010678170947358012,0.000004650559276342392,-0.0007427678792737424
1772702159591313700,3.853313720703125,-0.0000057031866163015366,0.0014073378406465054,0.0002916039084084332
1772702159601363700,3.86336376953125,-0.0006789731560274959,0.0004593394696712494,-0.0012620415072888136
1772702159611412700,3.873412841796875,-0.0010909643024206161,0.00048144347965717316,0.0014868733705952764
1772702159621462500,3.883462646484375,-0.0004456534516066313,-0.0001663663424551487,-0.00024644803488627076
1772702159631511800,3.89351171875,0.0008965797023847699,0.0028299568220973015,0.0018036534311249852
1772702159641561900,3.903561767578125,-0.0021282145753502846,0.00026226509362459183,0.0010519098723307252
1772702159651610600,3.913610595703125,0.00015118485316634178,0.0009309845045208931,-0.000888202921487391
1772702159661660700,3.92366064453125,0.0005061856936663389,0.0011353511363267899,-0.000219204172026366
1772702159671709700,3.933709716796875,0.001422579400241375,0.00018859747797250748,0.0038517038337886333
1772702159681759500,3.943759521484375,0.0017456847708672285,-0.001110014971345663,0.0007220305851660669
1772702159691808800,3.953808837890625,0.002579520456492901,0.0020045521669089794,-0.0005901089170947671
1772702159701858800,3.96385888671875,0.0018466898472979665,-0.0015346677973866463,-0.0004953782772645354
1772702159711907600,3.973907470703125,-0.0011203379835933447,-0.00016766740009188652,0.0006516451248899102
1772702159721957600,3.98395751953125,0.0021414277143776417,-0.0010809069499373436,-0.000902079395018518
1772702159732007000,3.9940068359375,0.0011866845889016986,0.0004565357230603695,-0.001351088285446167
1772702159742056700,4.004056640625,0.0028828810900449753,0.000890722032636404,0.0008823693497106433
1772702159752105700,4.014105712890625,-0.0007512684678658843,-0.0005274107679724693,0.0003047297359444201
1772702159762155800,4.02415576171875,0.002389466157183051,-0.001645789947360754,-0.0019748364575207233
1772702159772204500,4.03420458984375,-0.0003586497623473406,0.0017377561889588833,0.0023759696632623672
1772702159782254600,4.044254638671875,-0.00034992233850061893,0.0007463977672159672,0.003283006837591529
1772702159792303600,4.0543037109375,0.0011230719974264503,0.002664939034730196,-0.0022627597209066153
1772702159802353700,4.064353759765625,-0.0014426338020712137,0.0005452814511954784,0.00014086862211115658
1772702159812402700,4.074402587890625,-0.002036785241216421,-0.0009428933262825012,-0.0005025510909035802
1772702159822452700,4.08445263671875,0.0022851035464555025,0.002247642260044813,-0.0007167048170231283
1772702159832501800,4.094501708984375,0.0026113407220691442,-0.0013209935277700424,0.0016050389967858791
1772702159842551800,4.1045517578125,0.00152499636169523,0.0015783756971359253,0.0004941704100929201
1772702159852600600,4.1146005859375,-0.0016542853554710746,-0.0002581402659416199,-0.0008661722531542182
1772702159862650600,4.124650634765625,-0.00032626616302877665,-0.001314085442572832,-0.0006223030504770577
1772702159872699600,4.13469970703125,-0.0013348052743822336,-0.0007138089276850224,-0.0006920778541825712
1772702159882749700,4.144749755859375,0.00047221570275723934,0.0016845944337546825,0.0008588389027863741
1772702159892798700,4.154798828125,-0.000424204277805984,-0.00036497414112091064,0.00044977731886319816
1772702159902848800,4.164848876953125,0.0009374631918035448,0.00110576581209898,0.0007915935711935163
1772702159912897500,4.1748974609375,0.0014186963671818376,-0.0008948012255132198,0.00035936254425905645
1772702159922947600,4.184947509765625,-0.0006689997389912605,0.0018022195436060429,0.00028345544706098735
1772702159932996900,4.194996826171875,0.00016030855476856232,0.0010610618628561497,-0.0025275112129747868
1772702159943046700,4.205046630859375,0.0015471677761524916,-0.00042545562610030174,-0.0005494434735737741
1772702159953095700,4.215095703125,0.0011066809529438615,0.000920239370316267,0.0019778963178396225
1772702159963145700,4.225145751953125,-0.0011002580868080258,-0.00041334284469485283,-0.0002841490786522627
1772702159973194500,4.235194580078125,-0.0018965433118864894,0.0010742992162704468,0.00018616518354974687
1772702159983244500,4.24524462890625,0.0010639011161401868,0.001283703837543726,-0.0012385244481265545
1772702159993293800,4.2552939453125,-0.001833351911045611,-0.00046679191291332245,0.0016467443201690912
1772702160003343600,4.265343505859375,-0.000710352323949337,-0.0030010403133928776,-0.0026531571056693792
1772702160013392600,4.275392578125,0.0012606532545760274,0.00002724025398492813,0.002049186499789357
1772702160023442700,4.285442626953125,0.0012733647599816322,-0.0011758622713387012,-0.00376396463252604
1772702160033491700,4.29549169921875,-0.0018055158434435725,0.0012939530424773693,-0.00051277776947245
1772702160043541800,4.305541748046875,-0.00018073944374918938,-0.002331505063921213,0.003254275768995285
1772702160053590800,4.3155908203125,0.0001987610012292862,-0.00027581071481108665,0.002712588757276535
1772702160063640600,4.325640625,-0.002540129702538252,-0.0018595955334603786,-0.002090839669108391
1772702160073689600,4.335689697265625,-0.0013379787560552359,0.0003995639272034168,-0.0002857492072507739
1772702160083739600,4.34573974609375,0.00019440054893493652,0.0013623060658574104,0.0002712411805987358
1772702160093788700,4.35578857421875,-0.001437850994989276,-0.000001498498022556305,-0.0028702234849333763
1772702160103838700,4.365838623046875,0.0005622801836580038,0.0012758197262883186,0.0005504958680830896
1772702160113887700,4.3758876953125,0.00035588518949225545,0.0008768783882260323,0.0011401197407394648
1772702160123937500,4.3859375,0.0005597032723017037,0.0008415533229708672,-0.0002692312700673938
1772702160133986800,4.39598681640625,0.003006615675985813,-0.00045780325308442116,-0.0009579246980138123
1772702160144036900,4.406036865234375,-0.0007484430680051446,-0.0002841600216925144,-0.000594740966334939
1772702160154085600,4.416085693359375,-0.0002190066734328866,0.0025968472473323345,-0.00021444156300276518
1772702160164135700,4.4261357421875,-0.001427099690772593,-0.0006477865390479565,-0.001838288502767682
1772702160174184400,4.436184326171875,0.0026794946752488613,0.0008236104622483253,0.0007961105438880622
1772702160184234500,4.446234375,0.0010700515704229474,-0.0014630509540438652,0.00027777565992437303
1772702160194283800,4.45628369140625,-0.0013425061479210854,0.0007076920010149479,-0.00007935427129268646
1772702160204333800,4.466333740234375,-0.000850262469612062,-0.00041981041431427,-0.0020104709547013044
1772702160214382600,4.476382568359375,-0.00006356462836265564,0.000353038776665926,0.00014935267972759902
1772702160224432600,4.4864326171875,-0.0008191084489226341,-0.0013271346688270569,-0.003867174731567502
1772702160234481700,4.496481689453125,-0.00036956684198230505,-0.0015668193809688091,0.0016530256252735853
1772702160244531700,4.50653173828125,-0.001341833034530282,0.00042955856770277023,-0.0005275064031593502
1772702160254580700,4.516580810546875,-0.0012685959227383137,-0.0005060099065303802,-0.0007333687390200794
1772702160264630800,4.526630859375,0.00044097332283854485,-0.0020643961615860462,0.00029646939947269857
1772702160274679600,4.536679443359375,-0.0005718268221244216,0.002179617527872324,0.00027729463181458414
1772702160284729600,4.5467294921875,0.0019583995454013348,-0.0013535525649785995,0.0013946214457973838
1772702160294778600,4.556778564453125,0.002441230695694685,-0.0003482094034552574,0.0025874513667076826
1772702160304828700,4.56682861328125,0.0003784886794164777,0.00007845601066946983,-0.000679828692227602
1772702160314877700,4.576877685546875,-0.003629036247730255,0.0014872676692903042,0.0006011517834849656
1772702160324927500,4.586927490234375,-0.0011100050760433078,-0.002600918523967266,0.0013043915387243032
1772702160334976800,4.596976806640625,0.0008953551296144724,-0.0011761272326111794,-0.0019071144051849842
1772702160345026800,4.60702685546875,-0.000515584135428071,0.0010620257817208767,0.0018612786661833525
1772702160355075600,4.61707568359375,0.00009907339699566364,-0.00005996366962790489,-0.0009345078142359853
1772702160365125600,4.627125732421875,-0.0002426196588203311,0.00144969392567873,0.000927228364162147
1772702160375174700,4.637174560546875,-0.0025103013031184673,0.00046618934720754623,-0.00401320168748498
1772702160385224700,4.647224609375,0.000785095093306154,-0.0010555475018918514,0.0003446520713623613
1772702160395273700,4.657273681640625,0.0007057329057715833,-0.001971940975636244,-0.0010180874960497022
1772702160405323800,4.66732373046875,-0.0002778207417577505,-0.0010827044025063515,0.0010410945396870375
1772702160415372500,4.67737255859375,0.00031206943094730377,-0.0005553984083235264,-0.0006279085064306855
1772702160425422600,4.687422607421875,-0.001963202375918627,0.0007505542598664761,-0.0011361269280314445
1772702160435472000,4.697471923828125,0.0026744261849671602,0.0021500461734831333,0.0012687074486166239
1772702160445521700,4.707521728515625,0.0005568761844187975,-0.001488968264311552,0.0007948694401420653
1772702160455570700,4.71757080078125,0.0008993587107397616,0.0005579371936619282,0.0006268239812925458
1772702160465620700,4.727620849609375,0.0020816929172724485,-0.0016783205792307854,-0.00210620928555727
1772702160475669500,4.73766943359375,0.0022065951488912106,0.002681007608771324,0.003378837136551738
1772702160485719800,4.7477197265625,0.003203112166374922,-0.00025867437943816185,0.00019392045214772224
1772702160495768800,4.757768798828125,0.0005665827193297446,0.0006372132338583469,-0.002856197766959667
1772702160505818600,4.767818603515625,0.0024139066226780415,-0.0007625720463693142,-0.00031764165032655
1772702160515867600,4.77786767578125,0.0007592845358885825,0.0012265434488654137,-0.0010398909216746688
1772702160525917700,4.787917724609375,0.0012144212378188968,-0.0016478258185088634,0.0016445312649011612
1772702160535966700,4.797966796875,-0.0014346251264214516,0.0002994774840772152,-0.0005848007858730853
1772702160546016800,4.808016845703125,0.00046575546730309725,-0.0014122710563242435,0.0007568873697891831
1772702160556065500,4.8180654296875,0.0007107662968337536,-0.0014058793894946575,-0.000024484063033014536
1772702160566115000,4.828114990234375,0.0010988960275426507,-0.000003577210009098053,-0.0022364999167621136
1772702160576164400,4.838164306640625,0.003185216337442398,0.0006614136509597301,0.003396884771063924
1772702160586214400,4.84821435546875,0.0013099105563014746,0.0005856524221599102,0.0016416949220001698
1772702160596263200,4.85826318359375,0.000349840905983001,0.0007172129116952419,0.0003995966399088502
1772702160606313200,4.868313232421875,-0.00011824630200862885,0.001751511823385954,-0.0003974597784690559
1772702160616362200,4.8783623046875,0.0026580989360809326,0.00007292162626981735,-0.0026185358874499798
1772702160626412000,4.888412109375,0.0002531778300181031,0.0002566268667578697,0.0019204388372600079
1772702160636461300,4.89846142578125,0.001031886087730527,-0.0013332804664969444,0.0008059059036895633
1772702160646511400,4.908511474609375,0.000745461555197835,-0.0007349275983870029,0.000796202861238271
1772702160656560000,4.91856005859375,0.0002479830873198807,0.0014605824835598469,-0.0015580314211547375
1772702160666610200,4.928610107421875,-0.00028889812529087067,-0.001060708425939083,0.0003061624593101442
1772702160676659200,4.9386591796875,0.0026080883108079433,-0.001379222609102726,0.00004224322037771344
1772702160686709200,4.948709228515625,-0.0016418339218944311,-0.0001881048083305359,-0.0017766368109732866
1772702160696758300,4.95875830078125,0.0013939032796770334,-0.00015508150681853294,0.0025347545742988586
1772702160706808300,4.968808349609375,0.00024898460833355784,0.000010035466402769089,0.0015123023185878992
1772702160716857000,4.978857177734375,-0.0027691759169101715,-0.0023484602570533752,0.0032172580249607563
1772702160726907100,4.9889072265625,-0.0002836529165506363,0.0025300723500549793,-0.0001184730208478868
1772702160736956200,4.9989560546875,0.00022394565166905522,-0.0012659975327551365,-0.00007213401840999722
1772702160747006200,5.009006103515625,0.000839168147649616,-0.0018571745604276657,0.0006005041650496423
1772702160757055200,5.01905517578125,-0.0023936431389302015,-0.0003349115140736103,0.0020833523012697697
1772702160767105000,5.02910498046875,-0.0009664385579526424,0.0003639049828052521,-0.00026508537121117115
1772702160777154300,5.039154296875,0.0002466313890181482,-0.0007596826180815697,-0.0009332724730484188
1772702160787204400,5.049204345703125,-0.0013126358389854431,0.00034011946991086006,0.0018044356256723404
1772702160797253000,5.059253173828125,-0.0020878820214420557,0.001115099061280489,-0.0015434243250638247
1772702160807303200,5.06930322265625,-0.0021124128252267838,-0.00036118458956480026,-0.001005787868052721
1772702160817352200,5.079352294921875,0.00015739933587610722,-0.00047090649604797363,0.00026187676121480763
1772702160827402200,5.08940234375,-0.0002692685229703784,-0.0006813555955886841,0.0015144578646868467
1772702160837451300,5.099451171875,-0.00185038719791919,-0.00046004680916666985,-0.0007984975236468017
1772702160847501300,5.109501220703125,-0.0040164305828511715,0.0018023820593953133,0.001832410111092031
1772702160857550000,5.119550048828125,-0.00014605838805437088,-0.0008812854066491127,-0.0015181128401309252
1772702160867600100,5.12960009765625,-0.0005115520907565951,0.0014756619930267334,-0.0015928829088807106
1772702160877649400,5.1396494140625,-0.0014585721073672175,-0.0006980099715292454,-0.0007942010997794569
1772702160887699200,5.14969921875,-0.001948064542375505,0.0008915630169212818,-0.000333415693603456
1772702160897748200,5.159748291015625,-0.0008636254351586103,0.0002497411333024502,-0.0018993543926626444
1772702160907798300,5.16979833984375,-0.0000018837163224816322,-0.0003920220769941807,-0.00014452356845140457
1772702160917847000,5.179846923828125,0.00008893001358956099,0.0003765663132071495,0.0020147673785686493
1772702160927897000,5.18989697265625,0.0015229859855026007,-0.000032785814255476,-0.00012923392932862043
1772702160937946400,5.1999462890625,0.001256403629668057,-0.0007941834628582001,0.0002872844343073666
1772702160947996200,5.20999609375,0.0006095668650232255,-0.0033506983891129494,-0.0015720461960881948
1772702160958045200,5.220045166015625,-0.0007063010707497597,-0.0013067219406366348,-0.0009446053300052881
1772702160968095200,5.23009521484375,0.0005796535406261683,-0.001053109299391508,-0.0015994581626728177
1772702160978144300,5.240144287109375,0.0011463742703199387,0.0004976494237780571,-0.0014495220966637135
1772702160988194300,5.2501943359375,-0.0006246838020160794,-0.0003229803405702114,0.0012047018390148878
1772702160998243300,5.260243408203125,0.0013804101618006825,-0.002815965563058853,0.0028305617161095142
1772702161008293000,5.270293212890625,-0.0011265302309766412,0.0005025756545364857,-0.002304675756022334
1772702161018342100,5.280342041015625,0.0015693876193836331,-0.00023405486717820168,0.0004916433827020228
1772702161028392200,5.29039208984375,0.0011286583030596375,0.0014230692759156227,0.002113322727382183
1772702161038441200,5.300441162109375,0.0010373118566349149,0.0015088235959410667,0.001081347931176424
1772702161048491300,5.3104912109375,0.0008622336899861693,-0.0012444867752492428,0.00043172959703952074
1772702161058540000,5.3205400390625,0.002185292076319456,-0.0010082642547786236,0.000009884883183985949
1772702161068590000,5.330590087890625,0.0012465829495340586,-0.0005263900384306908,0.001008989755064249
1772702161078639400,5.340639404296875,0.001432113698683679,-0.000331793911755085,0.0009664376848377287
1772702161088689400,5.350689453125,-0.0016523327212780714,0.002081350889056921,-0.0028033549897372723
1772702161098738200,5.36073828125,-0.00003196089528501034,-0.0007405467331409454,0.00009680542279966176
1772702161108788200,5.370788330078125,-0.0015342499827966094,0.0011835871264338493,1.3265525922179222e-7
1772702161118837000,5.3808369140625,-0.00043627875857055187,0.0033667064271867275,-0.00008370151044800878
1772702161128887300,5.39088720703125,-0.0016908938996493816,-0.00017023831605911255,0.0023405738174915314
1772702161138936300,5.400936279296875,0.0020072469487786293,-0.00012656953185796738,0.0005626250058412552
1772702161148986000,5.410986083984375,-0.00005537131801247597,-0.002365489024668932,0.0030596049036830664
1772702161159035100,5.42103515625,-0.0004716709954664111,0.0010487842373549938,-0.0006207139231264591
1772702161169085200,5.431085205078125,-0.0005837900098413229,-0.0018042605370283127,-0.0012145988876000047
1772702161179134200,5.44113427734375,-0.00048650638200342655,-0.00006335461512207985,-0.0005543599254451692
1772702161189184300,5.451184326171875,-0.001743784756399691,0.001216826494783163,-0.0009762046975083649
1772702161199233300,5.4612333984375,0.001499723526649177,0.00012943847104907036,-0.0015555932186543941
1772702161209283000,5.471282958984375,0.0012898663990199566,-0.0013451538980007172,-0.0010993937030434608
1772702161219332000,5.48133203125,0.0007517292979173362,-0.00022225314751267433,-0.0004128592845518142
1772702161229382400,5.49138232421875,0.0005655743298120797,0.00017908494919538498,-0.0010126031702384353
1772702161239431200,5.50143115234375,-0.0012556943111121655,-0.00023804185912013054,-0.002834856044501066
1772702161249481200,5.511481201171875,-0.0015025692991912365,0.0009707668796181679,0.0006520209135487676
1772702161259530200,5.5215302734375,0.0022024773061275482,-0.0001681959256529808,-0.0010485249804332852
1772702161269580000,5.531580078125,0.001338547794148326,0.000005974899977445602,0.0016609751619398594
1772702161279629300,5.54162939453125,-0.00024275633040815592,-0.00035799015313386917,-0.002046697773039341
1772702161289679400,5.551679443359375,-0.00032930902671068907,-0.0009292382746934891,0.0002177880669478327
1772702161299728100,5.56172802734375,0.0003617082256823778,-0.00020471075549721718,-0.0015034223906695843
1772702161309778200,5.571778076171875,0.0005159052088856697,-0.0003538476303219795,-0.0023433833848685026
1772702161319827200,5.5818271484375,0.00016700237756595016,0.0008191331289708614,0.0008864701958373189
1772702161329877200,5.591877197265625,0.0005923091666772962,0.00032165413722395897,0.0020007367711514235
1772702161339926300,5.60192626953125,-0.00005206989590078592,0.0007318858988583088,0.001000695861876011
1772702161349976300,5.611976318359375,-0.00007284258026629686,-0.000376787967979908,-0.0037889990489929914
1772702161360025000,5.622025146484375,0.0010585109703242779,-0.0009834449738264084,0.0005079986876808107
1772702161370075100,5.6320751953125,-0.0006981100887060165,-0.0014899778179824352,0.0015367777086794376
1772702161380124400,5.64212451171875,0.0005389686557464302,0.0009213639423251152,-0.00020618434064090252
1772702161390174200,5.65217431640625,-0.002791048027575016,0.0012987339869141579,-0.0002029885072261095
1772702161400223200,5.66222314453125,-0.000883784145116806,-0.0001899409107863903,-0.0001472595613449812
1772702161410273300,5.672273193359375,0.0006107818335294724,0.0007610740140080452,0.00029642306617461145
1772702161420322300,5.682322265625,-0.000243549351580441,0.002148897387087345,-0.001818887423723936
1772702161430372400,5.692372314453125,3.961613401770592e-7,0.0011028079316020012,0.00042589096119627357
1772702161440421000,5.702421142578125,0.0019200027454644442,0.0009454144164919853,-0.001732068369165063
1772702161450471200,5.71247119140625,0.0015337388031184673,-0.002338170073926449,-0.0020832247100770473
1772702161460520200,5.722520263671875,0.0012218826450407505,0.00038837408646941185,-0.0022888206876814365
1772702161470570200,5.7325703125,0.00011524616274982691,0.000284610316157341,-0.0003044843324460089
1772702161480619300,5.742619384765625,0.0004686476313509047,-0.0015367250889539719,-0.0001513526076450944
1772702161490669300,5.75266943359375,-0.002037305384874344,0.0010398807935416698,-0.0018912812229245901
1772702161500718000,5.762718017578125,-0.00017655466217547655,0.0015014070086181164,0.002425969112664461
1772702161510768000,5.77276806640625,0.0020930832251906395,0.0006741909310221672,0.0009327939478680491
1772702161520817200,5.782817138671875,-0.0006065631750971079,0.00014422181993722916,-0.0009503272594884038
1772702161530867200,5.7928671875,-0.001398476422764361,0.0032288343645632267,0.0012594445142894983
1772702161540916200,5.802916259765625,-0.0010027306852862239,-0.0016119936481118202,-0.00411028740927577
1772702161550966300,5.81296630859375,0.0011194674298167229,0.0015335232019424438,-0.0017845036927610636
1772702161561015000,5.82301513671875,0.0004962877137586474,0.00021179672330617905,0.0005444306298159063
1772702161571066000,5.833066162109375,0.0003480601590126753,0.0009410376660525799,0.002068168018013239
1772702161581115000,5.843114990234375,0.00006523245247080922,0.0010270574130117893,0.0027209087274968624
1772702161591165200,5.853165283203125,0.00026513170450925827,-0.0007484960369765759,0.0023564761504530907
1772702161601214200,5.863214111328125,0.0008403745014220476,-0.0011192080564796925,0.0012885484611615539
1772702161611264000,5.873263916015625,0.0004647844471037388,0.0018167169764637947,0.00008678215090185404
1772702161621313000,5.88331298828125,0.0014365719398483634,-0.0012469831854104996,0.0038578181993216276
1772702161631363000,5.893363037109375,-0.0005785139510408044,0.001544645056128502,0.0005991564248688519
1772702161641412000,5.903412109375,-0.0013963708188384771,0.00031026965007185936,-0.00502623850479722
1772702161651462100,5.913462158203125,-0.0006564549403265119,0.000011148396879434586,0.0017596327234059572
1772702161661511000,5.923510986328125,0.00033876835368573666,-0.001999538391828537,0.0012270004954189062
1772702161671561000,5.93356103515625,-0.001005298225209117,-0.0013215863145887852,-0.0019349521026015282
1772702161681610000,5.94360986328125,0.001002991572022438,0.0005780463106930256,0.001282146549783647
1772702161691660300,5.953660400390625,0.0008730040863156319,-0.00021770037710666656,-0.002122195903211832
1772702161701709000,5.963708984375,-0.0008031894685700536,0.000059534795582294464,-0.0004036581376567483
1772702161711759000,5.973759033203125,-0.001213496783748269,0.0017600790597498417,0.00014363773516379297
1772702161721808000,5.983807861328125,0.0012416712706908584,-0.003126555122435093,0.0037492914125323296
1772702161731858000,5.99385791015625,-0.0020875968039035797,0.0025960435159504414,0.0007441075285896659
1772702161741907200,6.0039072265625,-0.0005304465303197503,-0.0010524867102503777,0.0010690131457522511
1772702161751957000,6.01395703125,0.00009832379873842001,0.0026671546511352062,0.00022072481806389987
1772702161762006000,6.024006103515625,0.0017936921212822199,-0.0008817734196782112,-0.0009244343964383006
1772702161772056000,6.03405615234375,0.0025165642146021128,0.00017745094373822212,0.00044376790174283087
1772702161782105000,6.04410498046875,0.0009687349665910006,-0.0013360236771404743,-0.0008697031298652291
1772702161792155100,6.054155029296875,0.0006507475045509636,-0.0010703136213123798,0.0010568167781457305
1772702161802204200,6.0642041015625,0.001948772231116891,0.0003981534391641617,-0.0007277674158103764
1772702161812254000,6.07425390625,0.0010561681119725108,0.00024476880207657814,-0.0021153264679014683
1772702161822303000,6.084302978515625,0.0005903812125325203,-0.0013134465552866459,0.00008258037269115448
1772702161832353000,6.09435302734375,0.0010414719581604004,0.00016961945220828056,-0.0016103778034448624
1772702161842402000,6.104402099609375,-0.00022273068316280842,0.0009493930265307426,0.0002533022197894752
1772702161852452000,6.1144521484375,0.002250388264656067,0.0007770205847918987,0.001053058891557157
1772702161862501000,6.124501220703125,0.0006192022701725364,0.0009597134776413441,-0.0020631058141589165
1772702161872551000,6.134551025390625,0.0015949856024235487,0.0006407913751900196,-0.0005894812056794763
1772702161882600200,6.14460009765625,0.0005097475368529558,-0.00027720024809241295,-0.00111279240809381
1772702161892650200,6.154650146484375,0.00028612365713343024,0.0012174793519079685,-0.0007557055214419961
1772702161902699000,6.164698974609375,-0.0008984503801912069,0.0002653994597494602,0.00026668194914236665
1772702161912749000,6.1747490234375,-0.0003615565365180373,-0.0012270915322005749,0.000842199893668294
1772702161922798000,6.184798095703125,0.0011710927356034517,-0.00220686849206686,-0.00024090768420137465
1772702161932847900,6.194847900390625,0.0007012840360403061,-0.0007876493036746979,0.001842417404986918
1772702161942897200,6.204897216796875,-0.000060912687331438065,-0.000493369996547699,0.002128707244992256
1772702161952947200,6.214947265625,0.0017454312182962894,-0.00012408755719661713,-0.00024023911100812256
1772702161962996000,6.224995849609375,-0.0003986798692494631,0.00017072400078177452,0.0009398075053468347
1772702161973046000,6.2350458984375,-0.0036895261146128178,0.0010392740368843079,-0.002578645944595337
1772702161983095300,6.24509521484375,0.00011266872752457857,0.0010089138522744179,-0.0029030190780758858
1772702161993145000,6.25514501953125,-0.0006308254087343812,0.0013231607154011726,-0.001250334084033966
1772702162003194000,6.265194091796875,-0.000004982517566531897,0.0008967891335487366,0.0006152101559564471
1772702162013244200,6.275244140625,-0.00009601580677554011,0.00048060063272714615,0.0028673107735812664
1772702162023293000,6.28529296875,0.0008344926754944026,-0.00047334330156445503,-0.0020105349831283092
1772702162033343000,6.295343017578125,-0.0016987926792353392,0.0003721751272678375,-0.0006956535507924855
1772702162043392000,6.30539208984375,0.00028206646675243974,0.000590022187680006,-0.0002663520281203091
1772702162053442000,6.315442138671875,-0.0000472164829261601,-0.000017309561371803284,-0.000895689066965133
1772702162063491000,6.325490966796875,-0.0024019835982471704,0.0017531602643430233,0.0007956845220178366
1772702162073541000,6.335541015625,-0.0015466773184016347,0.0018601249903440475,0.001207786612212658
1772702162083590100,6.345590087890625,0.0010752046946436167,0.0002446514554321766,0.0017111239721998572
1772702162093640200,6.35564013671875,0.0011699780588969588,0.001504281535744667,0.0016760129947215319
1772702162103689000,6.36568896484375,0.00013826950453221798,0.0011402275413274765,-0.0020137964747846127
1772702162113739000,6.375739013671875,-0.00018136762082576752,0.0010704281739890575,-0.001636325498111546
1772702162123788000,6.3857880859375,-0.002518557710573077,0.0005037072114646435,0.0022817172575742006
1772702162133837800,6.395837890625,-0.0013082692166790366,-0.0010301703587174416,0.001454907120205462
1772702162143887000,6.40588720703125,0.0007311796071007848,0.0019134213216602802,-0.00014165797620080411
1772702162153937200,6.415937255859375,0.0012765591964125633,0.0019004307687282562,-0.0018194440053775907
1772702162163986000,6.42598583984375,0.0004259455599822104,-0.00152226397767663,-0.0018961430760100484
1772702162174036000,6.436035888671875,0.0011431786697357893,-0.0014343811199069023,0.001962431473657489
1772702162184085200,6.446085205078125,0.000365801970474422,0.0016780556179583073,-0.0015287064015865326
1772702162194135000,6.456135009765625,0.0011861081002280116,0.001059139147400856,-0.0032402221113443375
1772702162204184000,6.46618408203125,0.0005818367935717106,0.0011206576600670815,-0.0008039624663069844
1772702162214234000,6.476234130859375,0.0007813338888809085,-0.0011379551142454147,0.0026770299300551414
1772702162224283000,6.486282958984375,0.0005432473262771964,0.0025249565951526165,-0.0032905812840908766
1772702162234333000,6.4963330078125,0.0012702674139291048,0.0010081049986183643,0.000839646439999342
1772702162244382200,6.50638232421875,-0.0013566747074946761,0.0005929186008870602,0.0024005251470953226
1772702162254432000,6.516431884765625,0.0010075693717226386,-0.0012540258467197418,-0.0012093213154003024
1772702162264481000,6.52648095703125,0.0006704132538288832,-0.0025997208431363106,0.000978731783106923
1772702162274531000,6.536531005859375,-0.0005615075351670384,-0.0006726221181452274,-0.0006375652737915516
1772702162284580000,6.546580078125,-0.00021875870879739523,-0.001027621328830719,-0.0007092043524608016
1772702162294630100,6.556630126953125,-0.0005061657284386456,0.00017783185467123985,-0.001675926148891449
1772702162304679200,6.56667919921875,0.00046242595999501646,0.0001722392626106739,0.0015923051396384835
1772702162314729000,6.57672900390625,-0.0014066760195419192,-0.00037401681765913963,-0.0018667489057406783
1772702162324778000,6.586778076171875,-0.0017552837962284684,-0.0014033284969627857,0.000672042602673173
1772702162334828000,6.596828125,0.0007447407115250826,-0.0007070973515510559,-0.0005298223695717752
1772702162344877000,6.606876953125,-0.0020659593865275383,0.001745674293488264,-0.0004235623055137694
1772702162354927000,6.616927001953125,0.0009253632742911577,0.0004639076068997383,0.0005028217565268278
1772702162364976000,6.62697607421875,-0.0007612166227772832,-0.0009752647019922733,0.00007245491724461317
1772702162375026000,6.63702587890625,-0.0001467361580580473,0.0017322273924946785,-0.0009804564760997891
1772702162385075200,6.6470751953125,-0.00047883240040391684,0.00006961589679121971,0.0027415775693953037
1772702162395125200,6.657125244140625,-0.0016265979502350092,-0.0015921290032565594,0.0037440990563482046
1772702162405174000,6.667174072265625,-0.000739498995244503,0.0003210855647921562,-0.00001255582901649177
1772702162415224000,6.67722412109375,0.0009629247360862792,-0.00015256879851222038,-0.0022817859426140785
1772702162425272800,6.68727294921875,0.000914987875148654,-0.000578674953430891,0.0010202674893662333
1772702162435323000,6.697322998046875,0.0013717792462557554,0.000026365742087364197,-0.0009518119040876627
1772702162445372200,6.7073720703125,-0.00011053611524403095,0.001111071091145277,-0.0018210677662864327
1772702162455422200,6.717422119140625,0.00010792684042826295,-0.0010188678279519081,-0.0004041380016133189
1772702162465471000,6.727470947265625,-0.0007727805059403181,-0.0011221980676054955,0.0011956228408962488
1772702162475521000,6.73752099609375,-0.001179076498374343,-0.001805541105568409,0.0010753701208159328
1772702162485570000,6.747570068359375,-0.0003329903120175004,0.0017098318785429,-0.001056756591424346
1772702162495620000,6.7576201171875,-0.0005690038669854403,-0.0001797541044652462,0.0006069817463867366
1772702162505669000,6.767669189453125,0.00011702644405886531,-0.0006833579391241074,-0.00015095388516783714
1772702162515719000,6.777718994140625,0.0002950364723801613,-0.0011420445516705513,0.0006495778216049075
1772702162525768000,6.787767822265625,-0.001332953805103898,0.0006856825202703476,-0.0017017270438373089
1772702162535818000,6.79781787109375,-0.0011095621157437563,0.00009689014405012131,-0.0008574745734222233
1772702162545867000,6.807866943359375,-0.0004786594654433429,0.0003597442992031574,-0.0009139336762018502
1772702162555917000,6.8179169921875,-0.00231239409185946,0.0009115659631788731,0.0015202246140688658
1772702162565966000,6.827966064453125,-0.0035590198822319508,-0.0010927296243607998,0.0017945300787687302
1772702162576016100,6.83801611328125,-0.00003684998955577612,0.0004405123181641102,0.00019666526350192726
1772702162586065400,6.8480654296875,0.0012270862935110927,0.000999243464320898,-0.0003929586091544479
1772702162596115200,6.858115234375,0.00010349031072109938,-0.00040985969826579094,-0.00007090807775966823
1772702162606164200,6.868164306640625,0.0005588908679783344,0.00033529242500662804,0.0030085050966590643
1772702162616214300,6.87821435546875,0.004497877787798643,0.000984824262559414,0.0011767672840505838
1772702162626263000,6.888262939453125,-0.00015652889851480722,-0.0010263952426612377,0.002562942449003458
1772702162636313000,6.89831298828125,-0.0003374957013875246,-0.00015938375145196915,-0.0020515145733952522
1772702162646362400,6.9083623046875,0.0012183230137452483,0.0008185291662812233,-0.0005694655701518059
1772702162656412200,6.918412109375,0.00022146559786051512,-0.0013966253027319908,0.001982540125027299
1772702162666461200,6.928461181640625,-0.0016496713506057858,-0.0012701251544058323,-0.0004515890032052994
1772702162676511200,6.93851123046875,-0.0006845296011306345,0.0001189475879073143,0.0032105413265526295
1772702162686560300,6.948560302734375,0.0014225633349269629,-0.0025604586116969585,-0.00008591939695179462
1772702162696610300,6.9586103515625,0.0009921781020238996,-0.0024910657666623592,-0.0016253896756097674
1772702162706659300,6.968659423828125,-0.0013945468235760927,-0.00044762250036001205,0.0010526851983740926
1772702162716709000,6.978709228515625,-0.00026718416484072804,0.0015290658921003342,-0.00006890343502163887
1772702162726758100,6.988758056640625,0.0028870636597275734,-0.0009141177870333195,-0.000536288192961365
1772702162736808200,6.99880810546875,-0.002861363347619772,0.0002227560617029667,-0.0006765037542209029
1772702162746857200,7.008857177734375,-0.00038275914266705513,-0.0016382606700062752,-0.0005830267909914255
1772702162756907300,7.0189072265625,-0.0001533502945676446,-0.00032696686685085297,-0.0010848313104361296
1772702162766956300,7.028956298828125,0.0006495927227661014,-0.0013424297794699669,0.0010635408107191324
1772702162777006000,7.039006103515625,-0.0009074833360500634,-0.0005105598829686642,0.002406853949651122
1772702162787055400,7.049055419921875,-0.0019663560669869184,0.002158460207283497,-0.000565500115044415
1772702162797105400,7.05910546875,-0.0024994038976728916,-0.001462840475142002,-0.001774386502802372
1772702162807154200,7.069154296875,-0.002973446622490883,-0.0008311388082802296,0.00020460849918890744
1772702162817204200,7.079204345703125,-0.0009391040075570345,-0.0014177937991917133,-0.0010461162310093641
1772702162827253000,7.0892529296875,-0.0011476295767351985,-0.0014779814518988132,0.0004124970582779497
1772702162837303000,7.099302978515625,0.000034111435525119305,-0.0006483751349151134,-0.0038541515823453665
1772702162847352300,7.109352294921875,-0.0006383366999216378,-0.0008430522866547108,-0.0004237339599058032
1772702162857402400,7.11940234375,-0.0001638790126889944,-0.00016924086958169937,-0.0011450471356511116
1772702162867451100,7.129451171875,-0.00043978251051157713,-0.003714707214385271,-0.0016750162467360497
1772702162877501200,7.139501220703125,-0.0016119853826239705,0.0011434159241616726,0.001812468864955008
1772702162887550200,7.14955029296875,-0.000414361828006804,0.0011567319743335247,0.0005767621332779527
1772702162897600300,7.159600341796875,0.001407332718372345,-0.0025391513481736183,0.0015890846261754632
1772702162907649300,7.169649169921875,0.0011165154865011573,-0.0009716148488223553,0.00016189657617360353
1772702162917699300,7.17969921875,0.002702515572309494,-0.0012022173032164574,-0.002576205413788557
1772702162927748000,7.189748046875,0.0006087382789701223,0.0025563021190464497,0.0001327620993833989
1772702162937798100,7.199798095703125,0.0012484983308240771,0.0005504926666617393,-0.0005283363861963153
1772702162947847200,7.20984716796875,0.0003949551610276103,0.00022505410015583038,0.0013063153019174933
1772702162957897200,7.219897216796875,0.0012114790733903646,-0.00006787898018956184,-0.0012657403713092208
1772702162967946200,7.2299462890625,0.0008199943695217371,-0.0014497935771942139,0.0007111240411177278
1772702162977996000,7.23999609375,-0.0008085997542366385,0.0007847459055483341,-0.0019087529508396983
1772702162988045300,7.25004541015625,0.0006079356535337865,0.0008979295380413532,0.0012372392229735851
1772702162998095400,7.260095458984375,-0.00039167015347629786,0.0007450454868376255,-0.00538232596591115
1772702163008144100,7.27014404296875,0.0020818738266825676,-0.0003548404201865196,0.0012659896165132523
1772702163018194200,7.280194091796875,0.00009660504292696714,0.0011801891960203648,-0.0027732306625694036
1772702163028243200,7.2902431640625,0.0031033139675855637,0.014032872393727303,0.005851150024682283
1772702163038293200,7.300293212890625,-0.0017195326508954167,0.01654006354510784,0.00966006051748991
1772702163048342300,7.31034228515625,0.001174258068203926,0.0344141349196434,0.0171992015093565
1772702163058392300,7.320392333984375,0.0011889917077496648,0.03403277322649956,0.01793549582362175
1772702163068441000,7.330441162109375,0.0009453124948777258,-0.009020685218274593,-0.003554616356268525
1772702163078491100,7.3404912109375,0.0006270246813073754,-0.051378604024648666,-0.026714010164141655
1772702163088540400,7.35054052734375,0.002148488536477089,-0.02642957866191864,-0.01329753827303648
1772702163098590200,7.360590087890625,0.000174974265974015,0.0036109485663473606,0.0016263684956356883
1772702163108639200,7.37063916015625,-0.0006261045346036553,-0.017679957672953606,-0.011117123998701572
1772702163118689300,7.380689208984375,-0.0013231709599494934,0.0077623650431632996,0.0027182057965546846
1772702163128738000,7.390738037109375,-0.0004869382828474045,-0.005914831534028053,-0.0019987851846963167
1772702163138788000,7.4007880859375,-0.002325625391677022,0.007549482863396406,-0.0010166049469262362
