time,seconds_elapsed,z,y,x
1772697844026930700,0.0569306640625,-0.1906890869140625,0.4328460693359375,0.8751678466796875
1772697844036978400,0.066978515625,-0.1974639892578125,0.4396514892578125,0.87347412109375
1772697844047027700,0.07702783203125,-0.2013702392578125,0.444091796875,0.87310791015625
1772697844057076500,0.087076416015625,-0.2044830322265625,0.4449005126953125,0.875335693359375
1772697844067124500,0.09712451171875,-0.2072906494140625,0.4441070556640625,0.877777099609375
1772697844077173500,0.107173583984375,-0.209686279296875,0.4407501220703125,0.881988525390625
1772697844087222500,0.117222412109375,-0.2066650390625,0.44317626953125,0.88555908203125
1772697844097270500,0.1272705078125,-0.2008819580078125,0.4454345703125,0.88641357421875
1772697844107319600,0.137319580078125,-0.2003326416015625,0.444793701171875,0.885345458984375
1772697844117368600,0.14736865234375,-0.1990814208984375,0.44512939453125,0.8822021484375
1772697844127416600,0.15741650390625,-0.198089599609375,0.4441986083984375,0.8825836181640625
1772697844137465600,0.167465576171875,-0.1969451904296875,0.4404449462890625,0.8777923583984375
1772697844147514600,0.1775146484375,-0.19525146484375,0.441070556640625,0.8657989501953125
1772697844157562400,0.187562255859375,-0.1981201171875,0.4481201171875,0.8592071533203125
1772697844167611600,0.197611572265625,-0.2098846435546875,0.4499359130859375,0.8589935302734375
1772697844177660400,0.207660400390625,-0.219451904296875,0.4459686279296875,0.861328125
1772697844187708700,0.217708740234375,-0.222381591796875,0.4452362060546875,0.871429443359375
1772697844197757400,0.22775732421875,-0.219696044921875,0.4462738037109375,0.878662109375
1772697844207806500,0.237806396484375,-0.2142181396484375,0.44525146484375,0.883697509765625
1772697844217854500,0.2478544921875,-0.2103118896484375,0.4419097900390625,0.8865966796875
1772697844227903500,0.257903564453125,-0.207977294921875,0.435302734375,0.8833465576171875
1772697844237952500,0.267952392578125,-0.2052459716796875,0.434478759765625,0.8774871826171875
1772697844248000500,0.27800048828125,-0.20281982421875,0.4403076171875,0.8769989013671875
1772697844258049500,0.288049560546875,-0.2035369873046875,0.4423065185546875,0.879364013671875
1772697844268098600,0.2980986328125,-0.20098876953125,0.437957763671875,0.88970947265625
1772697844278146600,0.308146484375,-0.193634033203125,0.43719482421875,0.8887176513671875
1772697844288195600,0.318195556640625,-0.1932220458984375,0.4369354248046875,0.8839569091796875
1772697844298244400,0.328244384765625,-0.1919403076171875,0.439697265625,0.879058837890625
1772697844308292600,0.338292724609375,-0.1933135986328125,0.4367218017578125,0.8813018798828125
1772697844318341400,0.34834130859375,-0.2010345458984375,0.4309539794921875,0.887847900390625
1772697844328390700,0.358390625,-0.2106475830078125,0.4404754638671875,0.8839111328125
1772697844338438400,0.3684384765625,-0.221099853515625,0.4357147216796875,0.900360107421875
1772697844348487700,0.37848779296875,-0.2231292724609375,0.420654296875,0.9054412841796875
1772697844358536400,0.388536376953125,-0.21051025390625,0.4069061279296875,0.9066314697265625
1772697844368584700,0.398584716796875,-0.1993408203125,0.406646728515625,0.9057464599609375
1772697844378633500,0.408633544921875,-0.1899566650390625,0.4112701416015625,0.8993988037109375
1772697844388682500,0.4186826171875,-0.1861419677734375,0.4200439453125,0.896728515625
1772697844398730500,0.42873046875,-0.1823883056640625,0.4258880615234375,0.8968048095703125
1772697844408779500,0.438779541015625,-0.17376708984375,0.4290313720703125,0.89892578125
1772697844418828500,0.44882861328125,-0.16497802734375,0.4332275390625,0.8948211669921875
1772697844428876500,0.45887646484375,-0.159881591796875,0.44305419921875,0.8825225830078125
1772697844438925600,0.468925537109375,-0.1663818359375,0.44012451171875,0.8825836181640625
1772697844448974600,0.478974609375,-0.177337646484375,0.42095947265625,0.8955535888671875
1772697844459022600,0.489022705078125,-0.1830291748046875,0.402801513671875,0.9160614013671875
1772697844469071600,0.499071533203125,-0.181549072265625,0.397430419921875,0.9381866455078125
1772697844479120400,0.509120361328125,-0.1772003173828125,0.38995361328125,0.9613037109375
1772697844489168600,0.519168701171875,-0.169189453125,0.399322509765625,0.959320068359375
1772697844499217400,0.529217529296875,-0.1715545654296875,0.4178619384765625,0.94952392578125
1772697844509266700,0.5392666015625,-0.1728515625,0.434661865234375,0.925048828125
1772697844519314400,0.549314453125,-0.17132568359375,0.4460296630859375,0.9041900634765625
1772697844529363700,0.55936376953125,-0.16217041015625,0.451080322265625,0.8980560302734375
1772697844539412500,0.56941259765625,-0.150390625,0.454833984375,0.9015655517578125
1772697844549460700,0.579460693359375,-0.1386260986328125,0.4533233642578125,0.902252197265625
1772697844559509500,0.589509521484375,-0.135345458984375,0.445892333984375,0.89544677734375
1772697844569558500,0.59955859375,-0.133148193359375,0.4298858642578125,0.883758544921875
1772697844579606500,0.6096064453125,-0.119964599609375,0.408203125,0.872528076171875
1772697844589655600,0.619655517578125,-0.096710205078125,0.38568115234375,0.8599090576171875
1772697844599704600,0.62970458984375,-0.065582275390625,0.3686981201171875,0.834442138671875
1772697844609752600,0.639752685546875,-0.0285186767578125,0.359161376953125,0.798095703125
1772697844619801600,0.649801513671875,-0.0000762939453125,0.34771728515625,0.77734375
1772697844629850600,0.6598505859375,0.008331298828125,0.3283843994140625,0.7869110107421875
1772697844639898600,0.669898681640625,0.0000762939453125,0.31085205078125,0.8189849853515625
1772697844649947600,0.67994775390625,-0.01220703125,0.306488037109375,0.86090087890625
1772697844659996400,0.689996337890625,-0.025787353515625,0.3252410888671875,0.8968505859375
1772697844670044700,0.700044677734375,-0.04754638671875,0.3444366455078125,0.9363250732421875
1772697844680093400,0.710093505859375,-0.067352294921875,0.3779754638671875,0.9607391357421875
1772697844690142700,0.720142822265625,-0.09136962890625,0.403778076171875,0.9898223876953125
1772697844700190500,0.7301904296875,-0.1277618408203125,0.41497802734375,1.02618408203125
1772697844710239700,0.74023974609375,-0.1774444580078125,0.417083740234375,1.0647735595703125
1772697844720288500,0.75028857421875,-0.217071533203125,0.4228515625,1.09710693359375
1772697844730336800,0.760336669921875,-0.236480712890625,0.4126129150390625,1.1085662841796875
1772697844740385500,0.770385498046875,-0.23577880859375,0.3831634521484375,1.0786590576171875
1772697844750434600,0.7804345703125,-0.217864990234375,0.3507537841796875,1.0235443115234375
1772697844760482600,0.790482666015625,-0.185333251953125,0.3243255615234375,0.9596710205078125
1772697844770531600,0.800531494140625,-0.1420745849609375,0.306121826171875,0.911834716796875
1772697844780580600,0.81058056640625,-0.0947113037109375,0.3028106689453125,0.879852294921875
1772697844790628400,0.82062841796875,-0.059722900390625,0.2914581298828125,0.89312744140625
1772697844800677600,0.830677734375,-0.0233306884765625,0.2936248779296875,0.907958984375
1772697844810726700,0.8407265625,0.0174102783203125,0.3102264404296875,0.904876708984375
1772697844820774700,0.850774658203125,0.032928466796875,0.3186187744140625,0.8932037353515625
1772697844830823700,0.86082373046875,0.028564453125,0.3144378662109375,0.8883514404296875
1772697844840872400,0.87087255859375,0.023651123046875,0.312530517578125,0.881561279296875
1772697844850920400,0.88092041015625,0.018768310546875,0.3233795166015625,0.88238525390625
1772697844860969500,0.890969482421875,-0.00244140625,0.33734130859375,0.8950347900390625
1772697844871018800,0.901018798828125,-0.031890869140625,0.3369598388671875,0.910980224609375
1772697844881066500,0.91106640625,-0.0574798583984375,0.316070556640625,0.929840087890625
1772697844891115800,0.92111572265625,-0.0629119873046875,0.298095703125,0.939727783203125
1772697844901164500,0.93116455078125,-0.055328369140625,0.2984771728515625,0.9403228759765625
1772697844911212500,0.941212646484375,-0.0559844970703125,0.3064117431640625,0.9369049072265625
1772697844921261600,0.951261474609375,-0.066558837890625,0.312652587890625,0.9352264404296875
1772697844931310600,0.961310546875,-0.0801544189453125,0.3212890625,0.938751220703125
1772697844941358600,0.971358642578125,-0.0887603759765625,0.3299407958984375,0.9312591552734375
1772697844951407400,0.981407470703125,-0.098052978515625,0.3366851806640625,0.92620849609375
1772697844961456400,0.991456298828125,-0.1131744384765625,0.3390350341796875,0.9227142333984375
1772697844971504000,1.001504150390625,-0.1234130859375,0.340789794921875,0.920654296875
1772697844981553400,1.011553466796875,-0.12384033203125,0.3276519775390625,0.9182281494140625
1772697844991602200,1.021602294921875,-0.1156768798828125,0.3151702880859375,0.9224700927734375
1772697845001650400,1.031650390625,-0.10650634765625,0.300994873046875,0.9290618896484375
1772697845011699200,1.04169921875,-0.0956573486328125,0.27508544921875,0.943450927734375
1772697845021748200,1.051748291015625,-0.0912933349609375,0.2555999755859375,0.9509735107421875
1772697845031796200,1.061796142578125,-0.088714599609375,0.2463836669921875,0.9600372314453125
1772697845041845200,1.07184521484375,-0.077789306640625,0.2502899169921875,0.9658203125
1772697845051894300,1.081894287109375,-0.0643768310546875,0.2669219970703125,0.9636383056640625
1772697845061942300,1.0919423828125,-0.0638885498046875,0.2845458984375,0.9593505859375
1772697845071991300,1.1019912109375,-0.06072998046875,0.296234130859375,0.9520416259765625
1772697845082040300,1.112040283203125,-0.0536651611328125,0.3032073974609375,0.945465087890625
1772697845092088300,1.12208837890625,-0.0553436279296875,0.310089111328125,0.935455322265625
1772697845102137300,1.132137451171875,-0.0686798095703125,0.2999420166015625,0.9388580322265625
1772697845112186000,1.14218603515625,-0.077789306640625,0.2940216064453125,0.9464263916015625
1772697845122234400,1.152234375,-0.07830810546875,0.2826385498046875,0.9551849365234375
1772697845132283100,1.162283203125,-0.0821075439453125,0.282135009765625,0.959930419921875
1772697845142332400,1.17233251953125,-0.0919189453125,0.270355224609375,0.96209716796875
1772697845152380200,1.182380126953125,-0.09686279296875,0.2764892578125,0.951080322265625
1772697845162429400,1.192429443359375,-0.101806640625,0.26971435546875,0.9593505859375
1772697845172478200,1.202478271484375,-0.107696533203125,0.27301025390625,0.955413818359375
1772697845182526500,1.2125263671875,-0.1086273193359375,0.27325439453125,0.96234130859375
1772697845192575200,1.2225751953125,-0.10858154296875,0.2769927978515625,0.9569244384765625
1772697845202624300,1.232624267578125,-0.1102447509765625,0.289581298828125,0.9528961181640625
1772697845212673300,1.24267333984375,-0.127288818359375,0.2962493896484375,0.946990966796875
1772697845222721300,1.25272119140625,-0.142059326171875,0.30389404296875,0.9371795654296875
1772697845232770300,1.262770263671875,-0.1415863037109375,0.3147735595703125,0.9360809326171875
1772697845242818300,1.272818359375,-0.1351776123046875,0.31756591796875,0.9372406005859375
1772697845252867300,1.282867431640625,-0.126312255859375,0.314453125,0.941680908203125
1772697845262916400,1.292916259765625,-0.1243896484375,0.30389404296875,0.9358673095703125
1772697845272964400,1.30296435546875,-0.1221160888671875,0.290313720703125,0.9212646484375
1772697845283013400,1.313013427734375,-0.115264892578125,0.28857421875,0.9161529541015625
1772697845293062100,1.323062255859375,-0.1121826171875,0.2929840087890625,0.921539306640625
1772697845303110400,1.3331103515625,-0.1259918212890625,0.29595947265625,0.9271697998046875
1772697845313159200,1.3431591796875,-0.1515960693359375,0.3033905029296875,0.927734375
1772697845323208400,1.35320849609375,-0.16741943359375,0.31085205078125,0.9286651611328125
1772697845333256200,1.363256103515625,-0.174713134765625,0.3181304931640625,0.93511962890625
1772697845343305500,1.373305419921875,-0.178497314453125,0.3185882568359375,0.9346771240234375
1772697845353354200,1.383354248046875,-0.1765289306640625,0.307464599609375,0.9385833740234375
1772697845363403300,1.3934033203125,-0.1680145263671875,0.286468505859375,0.94189453125
1772697845373451300,1.403451171875,-0.1619720458984375,0.263580322265625,0.9519500732421875
1772697845383500300,1.413500244140625,-0.1601715087890625,0.2424468994140625,0.9716033935546875
1772697845393549300,1.42354931640625,-0.1616668701171875,0.2297210693359375,0.992919921875
1772697845403597300,1.433597412109375,-0.15606689453125,0.2187957763671875,1.02764892578125
1772697845413646300,1.443646240234375,-0.13055419921875,0.2079315185546875,1.08905029296875
1772697845423695400,1.4536953125,-0.0959320068359375,0.229583740234375,1.1656951904296875
1772697845433743400,1.463743408203125,-0.07373046875,0.287994384765625,1.2617645263671875
1772697845443792400,1.47379248046875,-0.06549072265625,0.329071044921875,1.2737884521484375
1772697845453841200,1.483841064453125,-0.0360565185546875,0.3370513916015625,1.2123870849609375
1772697845463889400,1.493889404296875,0.0227813720703125,0.3355560302734375,1.184356689453125
1772697845473938200,1.503938232421875,0.0837860107421875,0.33465576171875,1.1904144287109375
1772697845483987500,1.513987548828125,0.125762939453125,0.3228759765625,1.194580078125
1772697845494035200,1.52403515625,0.13671875,0.2951812744140625,1.1400146484375
1772697845504084200,1.534084228515625,0.12481689453125,0.2447662353515625,1.0415191650390625
1772697845514133200,1.54413330078125,0.103668212890625,0.199493408203125,0.9346466064453125
1772697845524181200,1.55418115234375,0.06182861328125,0.1845855712890625,0.8406982421875
1772697845534230300,1.564230224609375,-0.0048675537109375,0.1885223388671875,0.7637481689453125
1772697845544279300,1.574279296875,-0.0641632080078125,0.20989990234375,0.70733642578125
1772697845554327300,1.584327392578125,-0.0789794921875,0.244720458984375,0.703460693359375
1772697845564376300,1.594376220703125,-0.0723114013671875,0.2941131591796875,0.747772216796875
1772697845574425300,1.60442529296875,-0.0874481201171875,0.3534088134765625,0.804901123046875
1772697845584473300,1.614473388671875,-0.1168060302734375,0.406219482421875,0.860504150390625
1772697845594522000,1.624522216796875,-0.1490631103515625,0.443267822265625,0.91412353515625
1772697845604571400,1.6345712890625,-0.1584320068359375,0.4494476318359375,0.94976806640625
1772697845614619100,1.644619140625,-0.1364288330078125,0.4344329833984375,0.958526611328125
1772697845624668400,1.65466845703125,-0.1058502197265625,0.411712646484375,0.949432373046875
1772697845634717200,1.66471728515625,-0.0610504150390625,0.3853607177734375,0.937774658203125
1772697845644765400,1.674765380859375,-0.007476806640625,0.364593505859375,0.93060302734375
1772697845654814200,1.684814208984375,0.033935546875,0.3541412353515625,0.917266845703125
1772697845664863200,1.69486328125,0.0529022216796875,0.3462982177734375,0.9199066162109375
1772697845674911200,1.7049111328125,0.063140869140625,0.3224639892578125,0.912109375
1772697845684960300,1.714960205078125,0.073333740234375,0.2997894287109375,0.906585693359375
1772697845695009300,1.72500927734375,0.0937347412109375,0.286956787109375,0.9051666259765625
1772697845705057300,1.735057373046875,0.091583251953125,0.2877655029296875,0.9225921630859375
1772697845715106300,1.745106201171875,0.07318115234375,0.3006439208984375,0.9324188232421875
1772697845725155300,1.7551552734375,0.062469482421875,0.30877685546875,0.927520751953125
1772697845735203300,1.765203369140625,0.060699462890625,0.3117218017578125,0.91461181640625
1772697845745252400,1.77525244140625,0.0690460205078125,0.325897216796875,0.90045166015625
1772697845755301000,1.785301025390625,0.07647705078125,0.3436126708984375,0.8918914794921875
1772697845765349400,1.795349365234375,0.0841064453125,0.3682098388671875,0.89520263671875
1772697845775398100,1.805398193359375,0.088104248046875,0.3994140625,0.91796875
1772697845785447400,1.815447509765625,0.0854034423828125,0.4291534423828125,0.94915771484375
1772697845795495200,1.8254951171875,0.0673980712890625,0.4578094482421875,0.9737701416015625
1772697845805544400,1.83554443359375,0.0251007080078125,0.4784698486328125,0.988189697265625
1772697845815593200,1.84559326171875,-0.023681640625,0.4803924560546875,1.00030517578125
1772697845825641500,1.855641357421875,-0.061431884765625,0.4575042724609375,0.9965362548828125
1772697845835690200,1.865690185546875,-0.0793914794921875,0.4315643310546875,0.98828125
1772697845845739300,1.8757392578125,-0.09344482421875,0.40765380859375,0.9810943603515625
1772697845855787300,1.885787353515625,-0.1043853759765625,0.39080810546875,0.97381591796875
1772697845865836300,1.895836181640625,-0.111297607421875,0.3835601806640625,0.9755401611328125
1772697845875885300,1.90588525390625,-0.1105194091796875,0.3802490234375,0.9611968994140625
1772697845885933300,1.915933349609375,-0.0970001220703125,0.3916015625,0.950408935546875
1772697845895982300,1.925982421875,-0.072540283203125,0.4025726318359375,0.9466094970703125
1772697845906031400,1.93603125,-0.0407867431640625,0.4207611083984375,0.92987060546875
1772697845916079400,1.946079345703125,-0.0111541748046875,0.4395294189453125,0.9073944091796875
1772697845926128400,1.95612841796875,0.0152435302734375,0.4547576904296875,0.881072998046875
1772697845936177200,1.96617724609375,0.0392303466796875,0.461395263671875,0.8589019775390625
1772697845946225400,1.976225341796875,0.0518341064453125,0.46905517578125,0.8453826904296875
1772697845956274200,1.986274169921875,0.054718017578125,0.463409423828125,0.83587646484375
1772697845966323200,1.9963232421875,0.05133056640625,0.4505767822265625,0.8412628173828125
1772697845976371200,2.00637109375,0.0420989990234375,0.439544677734375,0.8520965576171875
1772697845986420200,2.016420166015625,0.0264434814453125,0.4282073974609375,0.85931396484375
1772697845996469200,2.02646923828125,0.0051727294921875,0.4241943359375,0.87255859375
1772697846006517200,2.036517333984375,-0.0164337158203125,0.4210662841796875,0.8905792236328125
1772697846016566300,2.046566162109375,-0.037353515625,0.4222869873046875,0.9034576416015625
1772697846026615000,2.056614990234375,-0.0581817626953125,0.415863037109375,0.918548583984375
1772697846036663300,2.066663330078125,-0.075042724609375,0.41534423828125,0.9191741943359375
1772697846046712000,2.076712158203125,-0.085357666015625,0.410858154296875,0.920013427734375
1772697846056761300,2.08676123046875,-0.0923309326171875,0.403472900390625,0.91180419921875
1772697846066809000,2.09680908203125,-0.0995941162109375,0.39483642578125,0.901763916015625
1772697846076858400,2.1068583984375,-0.1068572998046875,0.389129638671875,0.894256591796875
1772697846086907100,2.1169072265625,-0.1065673828125,0.385467529296875,0.8868865966796875
1772697846096955100,2.126955078125,-0.1074981689453125,0.3901824951171875,0.8770294189453125
1772697846107004200,2.137004150390625,-0.1094818115234375,0.3963775634765625,0.862335205078125
1772697846117053200,2.14705322265625,-0.10443115234375,0.396148681640625,0.85516357421875
1772697846127101200,2.15710107421875,-0.1015625,0.3978118896484375,0.8592376708984375
1772697846137150200,2.167150146484375,-0.10760498046875,0.4011688232421875,0.8529510498046875
1772697846147199200,2.17719921875,-0.1131744384765625,0.4015045166015625,0.8434600830078125
1772697846157247000,2.1872470703125,-0.1248626708984375,0.39947509765625,0.8311309814453125
1772697846167296300,2.197296142578125,-0.1437530517578125,0.4020843505859375,0.8227691650390625
1772697846177345300,2.20734521484375,-0.1489715576171875,0.3954620361328125,0.82275390625
1772697846187393300,2.217393310546875,-0.14813232421875,0.3858795166015625,0.8331756591796875
1772697846197442300,2.2274423828125,-0.1685638427734375,0.378082275390625,0.8508148193359375
1772697846207491000,2.237490966796875,-0.196685791015625,0.3671112060546875,0.8663330078125
1772697846217539000,2.2475390625,-0.2282562255859375,0.364898681640625,0.8762359619140625
1772697846227588000,2.257588134765625,-0.2552947998046875,0.378204345703125,0.87738037109375
1772697846237637400,2.267637451171875,-0.274658203125,0.385101318359375,0.89251708984375
1772697846247685000,2.27768505859375,-0.295867919921875,0.3888092041015625,0.9011383056640625
1772697846257734100,2.287734130859375,-0.314605712890625,0.4022674560546875,0.90478515625
1772697846267783200,2.297783203125,-0.3209228515625,0.4069671630859375,0.9197845458984375
1772697846277831200,2.3078310546875,-0.3135223388671875,0.4024658203125,0.9483642578125
1772697846287880200,2.317880126953125,-0.2997894287109375,0.3986053466796875,0.9784698486328125
1772697846297929200,2.32792919921875,-0.278961181640625,0.3966064453125,1.0001983642578125
1772697846307977200,2.337977294921875,-0.245574951171875,0.396331787109375,1.01629638671875
1772697846318026000,2.34802587890625,-0.198333740234375,0.405059814453125,1.010986328125
1772697846328075300,2.3580751953125,-0.1613006591796875,0.40185546875,0.9895172119140625
1772697846338123000,2.368123046875,-0.13775634765625,0.405059814453125,0.9541473388671875
1772697846348172300,2.37817236328125,-0.1282958984375,0.4106292724609375,0.932220458984375
1772697846358221300,2.38822119140625,-0.1378936767578125,0.413665771484375,0.920013427734375
1772697846368269300,2.398269287109375,-0.147705078125,0.4207000732421875,0.94366455078125
1772697846378318000,2.408318115234375,-0.1632537841796875,0.46490478515625,1.00933837890625
1772697846388367000,2.4183671875,-0.2056732177734375,0.5319061279296875,1.1045074462890625
1772697846398415000,2.4284150390625,-0.24029541015625,0.564208984375,1.1714630126953125
1772697846408464100,2.438464111328125,-0.23382568359375,0.5666656494140625,1.1444244384765625
1772697846418513200,2.44851318359375,-0.1930999755859375,0.5507965087890625,1.0295257568359375
1772697846428561200,2.45856103515625,-0.1387176513671875,0.533660888671875,0.9430694580078125
1772697846438610200,2.468610107421875,-0.0916290283203125,0.5165252685546875,0.8917236328125
1772697846448659200,2.4786591796875,-0.059112548828125,0.4947662353515625,0.8626861572265625
1772697846458707200,2.488707275390625,-0.040618896484375,0.4674224853515625,0.8377838134765625
1772697846468756200,2.498756103515625,-0.043914794921875,0.4253692626953125,0.829498291015625
1772697846478805000,2.508804931640625,-0.0605316162109375,0.3875732421875,0.821502685546875
1772697846488854300,2.518854248046875,-0.0800018310546875,0.3665313720703125,0.8163909912109375
1772697846498902000,2.528902099609375,-0.0967254638671875,0.38250732421875,0.7940826416015625
1772697846508951300,2.538951416015625,-0.0931243896484375,0.4499664306640625,0.7746124267578125
1772697846519000300,2.549000244140625,-0.061279296875,0.5185699462890625,0.7921142578125
1772697846529048300,2.55904833984375,-0.017974853515625,0.581298828125,0.825775146484375
1772697846539097000,2.56909716796875,0.006744384765625,0.6224517822265625,0.8652801513671875
1772697846549146000,2.57914599609375,0.0072784423828125,0.6095733642578125,0.9071197509765625
1772697846559194000,2.589194091796875,-0.0274200439453125,0.5255584716796875,0.9853668212890625
1772697846569243100,2.5992431640625,-0.093902587890625,0.4269561767578125,1.0256805419921875
1772697846579292200,2.609292236328125,-0.144561767578125,0.370330810546875,1.01885986328125
1772697846589340200,2.619340087890625,-0.1452789306640625,0.3531494140625,0.9669342041015625
1772697846599389200,2.62938916015625,-0.0670166015625,0.38323974609375,0.8805389404296875
1772697846609438200,2.639438232421875,0.0308837890625,0.4251861572265625,0.816314697265625
1772697846619486200,2.649486328125,0.0887298583984375,0.4451446533203125,0.7748565673828125
1772697846629535200,2.65953515625,0.128631591796875,0.4608154296875,0.7506561279296875
1772697846639584000,2.669583984375,0.1495513916015625,0.464508056640625,0.7585906982421875
1772697846649632300,2.67963232421875,0.1455841064453125,0.4392547607421875,0.7970428466796875
1772697846659681000,2.689680908203125,0.120574951171875,0.399505615234375,0.837890625
1772697846669730300,2.699730224609375,0.103912353515625,0.375152587890625,0.853240966796875
1772697846679778000,2.709778076171875,0.099151611328125,0.3624267578125,0.857879638671875
1772697846689827300,2.719827392578125,0.0976409912109375,0.367034912109375,0.8606414794921875
1772697846699876000,2.7298759765625,0.116180419921875,0.3672943115234375,0.8652496337890625
1772697846709924000,2.739924072265625,0.1271820068359375,0.3703460693359375,0.8801727294921875
1772697846719973000,2.74997314453125,0.117584228515625,0.37939453125,0.9024658203125
1772697846730022100,2.760022216796875,0.102935791015625,0.3859405517578125,0.9359283447265625
1772697846740070100,2.770070068359375,0.0748748779296875,0.3936920166015625,0.971588134765625
1772697846750119200,2.780119140625,0.0381011962890625,0.3986358642578125,1.00579833984375
1772697846760168200,2.790168212890625,-0.0003509521484375,0.4015655517578125,1.0178375244140625
1772697846770216200,2.80021630859375,-0.03875732421875,0.3970184326171875,1.0128631591796875
1772697846780265200,2.81026513671875,-0.07196044921875,0.393157958984375,0.9992523193359375
1772697846790314200,2.820314208984375,-0.0837554931640625,0.394317626953125,0.992645263671875
1772697846800362000,2.830362060546875,-0.084320068359375,0.4020843505859375,0.985443115234375
1772697846810411300,2.840411376953125,-0.0835418701171875,0.41156005859375,0.983612060546875
1772697846820460000,2.8504599609375,-0.0795440673828125,0.4145660400390625,0.9670562744140625
1772697846830508300,2.86050830078125,-0.069580078125,0.414581298828125,0.9517822265625
1772697846840557000,2.87055712890625,-0.0545501708984375,0.4099884033203125,0.92523193359375
1772697846850606000,2.880606201171875,-0.0372314453125,0.395050048828125,0.882843017578125
1772697846860654000,2.890654052734375,-0.008056640625,0.3707122802734375,0.8482666015625
1772697846870703000,2.900703125,0.021240234375,0.34307861328125,0.8337249755859375
1772697846880752000,2.910752197265625,0.042572021484375,0.3159942626953125,0.832550048828125
1772697846890800000,2.920800048828125,0.05804443359375,0.3022613525390625,0.838165283203125
1772697846900849200,2.93084912109375,0.069427490234375,0.2998504638671875,0.8507537841796875
1772697846910898200,2.940898193359375,0.077880859375,0.3082122802734375,0.8671112060546875
1772697846920946200,2.9509462890625,0.08135986328125,0.30999755859375,0.8860931396484375
1772697846930995200,2.9609951171875,0.077178955078125,0.296661376953125,0.9073944091796875
1772697846941044000,2.9710439453125,0.0773162841796875,0.2918243408203125,0.9211273193359375
1772697846951092200,2.98109228515625,0.0835723876953125,0.2947540283203125,0.9330902099609375
1772697846961141000,2.99114111328125,0.0840301513671875,0.2882843017578125,0.9540863037109375
1772697846971190300,3.001190185546875,0.0753936767578125,0.2767181396484375,0.9570465087890625
1772697846981238000,3.011238037109375,0.0610504150390625,0.278656005859375,0.9524688720703125
1772697846991287300,3.021287353515625,0.0523681640625,0.2760009765625,0.9600982666015625
1772697847001336000,3.031336181640625,0.0406341552734375,0.2741241455078125,0.973876953125
1772697847011384300,3.04138427734375,0.03228759765625,0.2845916748046875,0.980255126953125
1772697847021433000,3.05143310546875,0.0178070068359375,0.2815093994140625,0.980621337890625
1772697847031482000,3.061482177734375,0.0062255859375,0.278717041015625,0.9778594970703125
1772697847041530000,3.071530029296875,-0.0070648193359375,0.28192138671875,0.966094970703125
1772697847051579100,3.0815791015625,-0.017059326171875,0.2913970947265625,0.9522705078125
1772697847061628200,3.091628173828125,-0.021881103515625,0.3096466064453125,0.950592041015625
1772697847071676200,3.10167626953125,-0.0243377685546875,0.321990966796875,0.9508514404296875
1772697847081725200,3.11172509765625,-0.03302001953125,0.32977294921875,0.947296142578125
1772697847091774200,3.121774169921875,-0.0466766357421875,0.337371826171875,0.940185546875
1772697847101822200,3.131822265625,-0.06036376953125,0.3396148681640625,0.937042236328125
1772697847111871200,3.141871337890625,-0.067108154296875,0.3406982421875,0.934906005859375
1772697847121920000,3.151919921875,-0.074554443359375,0.33843994140625,0.935089111328125
1772697847131968300,3.16196826171875,-0.0760498046875,0.3301239013671875,0.932159423828125
1772697847142017000,3.17201708984375,-0.0741424560546875,0.317474365234375,0.9297027587890625
1772697847152066300,3.18206640625,-0.0663909912109375,0.301025390625,0.9269256591796875
1772697847162114000,3.192114013671875,-0.061920166015625,0.294219970703125,0.9232177734375
1772697847172163300,3.202163330078125,-0.056243896484375,0.2922210693359375,0.925811767578125
1772697847182212000,3.212212158203125,-0.0510406494140625,0.2895355224609375,0.9313201904296875
1772697847192260400,3.22226025390625,-0.051239013671875,0.2821044921875,0.9344482421875
1772697847202309000,3.23230908203125,-0.0532379150390625,0.276031494140625,0.9376068115234375
1772697847212358100,3.242358154296875,-0.0543975830078125,0.2744293212890625,0.94036865234375
1772697847222406100,3.25240625,-0.0578460693359375,0.27362060546875,0.936676025390625
1772697847232455200,3.262455078125,-0.0606231689453125,0.2739410400390625,0.9382476806640625
1772697847242504200,3.272504150390625,-0.074127197265625,0.2817230224609375,0.9384307861328125
1772697847252552200,3.28255224609375,-0.0908203125,0.292022705078125,0.939453125
1772697847262601200,3.292601318359375,-0.1073455810546875,0.3047943115234375,0.94293212890625
1772697847272650200,3.302650146484375,-0.1253662109375,0.315338134765625,0.9519195556640625
1772697847282698200,3.3126982421875,-0.1376953125,0.3143768310546875,0.960662841796875
1772697847292747300,3.322747314453125,-0.1421966552734375,0.305999755859375,0.96441650390625
1772697847302796000,3.332796142578125,-0.13916015625,0.295623779296875,0.96844482421875
1772697847312844300,3.34284423828125,-0.1338653564453125,0.2835235595703125,0.9658050537109375
1772697847322893000,3.35289306640625,-0.1242828369140625,0.2704315185546875,0.957275390625
1772697847332942300,3.3629423828125,-0.1085662841796875,0.2641143798828125,0.9589080810546875
1772697847342990000,3.372989990234375,-0.10089111328125,0.26708984375,0.95159912109375
1772697847353039400,3.383039306640625,-0.102996826171875,0.2760162353515625,0.9544219970703125
1772697847363088100,3.393088134765625,-0.1064300537109375,0.2904205322265625,0.9637603759765625
1772697847373137200,3.40313720703125,-0.11798095703125,0.310150146484375,0.962005615234375
1772697847383185200,3.41318505859375,-0.138458251953125,0.3238372802734375,0.9687957763671875
1772697847393234200,3.423234130859375,-0.15704345703125,0.3341522216796875,0.972442626953125
1772697847403283200,3.433283203125,-0.169403076171875,0.341949462890625,0.967529296875
1772697847413331200,3.443331298828125,-0.1729888916015625,0.3421630859375,0.9699859619140625
1772697847423380200,3.453380126953125,-0.1767120361328125,0.340423583984375,0.980804443359375
1772697847433429200,3.46342919921875,-0.1832122802734375,0.33660888671875,0.98907470703125
1772697847443477200,3.473477294921875,-0.1951446533203125,0.332275390625,0.9861602783203125
1772697847453526300,3.4835263671875,-0.1845550537109375,0.3143768310546875,1.001129150390625
1772697847463575000,3.493574951171875,-0.13311767578125,0.2949066162109375,1.061676025390625
1772697847473623300,3.503623291015625,-0.075592041015625,0.3069305419921875,1.15869140625
1772697847483672000,3.513672119140625,-0.0435028076171875,0.3443450927734375,1.2775115966796875
1772697847493721300,3.523721435546875,-0.0203094482421875,0.3719635009765625,1.341552734375
1772697847503769000,3.53376904296875,0.015380859375,0.3564453125,1.35028076171875
1772697847513818400,3.543818359375,0.066741943359375,0.3092803955078125,1.339324951171875
1772697847523867100,3.5538671875,0.1306304931640625,0.2636260986328125,1.2733917236328125
1772697847533915400,3.563915283203125,0.1949462890625,0.2177276611328125,1.1533203125
1772697847543964200,3.573964111328125,0.2226715087890625,0.1740875244140625,0.9964599609375
1772697847554013200,3.58401318359375,0.1761627197265625,0.1667327880859375,0.8240509033203125
1772697847564061200,3.594061279296875,0.070159912109375,0.1739349365234375,0.697174072265625
1772697847574110200,3.604110107421875,-0.040283203125,0.1904296875,0.6415252685546875
1772697847584159200,3.6141591796875,-0.1003875732421875,0.2371978759765625,0.628204345703125
1772697847594207200,3.624207275390625,-0.111419677734375,0.2830657958984375,0.66571044921875
1772697847604256300,3.63425634765625,-0.0621795654296875,0.324005126953125,0.74407958984375
1772697847614305300,3.64430517578125,-0.0033111572265625,0.3680419921875,0.843475341796875
1772697847624353300,3.654353271484375,0.017120361328125,0.4033355712890625,0.9434814453125
1772697847634402300,3.66440234375,-0.00482177734375,0.4504241943359375,1.0082244873046875
1772697847644451000,3.674451171875,-0.070404052734375,0.4847259521484375,0.993316650390625
1772697847654499300,3.684499267578125,-0.1269683837890625,0.474212646484375,0.9554901123046875
1772697847664548000,3.694548095703125,-0.1285552978515625,0.4301605224609375,0.91217041015625
1772697847674597400,3.704597412109375,-0.080230712890625,0.3903045654296875,0.8912200927734375
1772697847684645000,3.71464501953125,-0.010345458984375,0.3591766357421875,0.88787841796875
1772697847694694400,3.7246943359375,0.055877685546875,0.33551025390625,0.8737945556640625
1772697847704743200,3.7347431640625,0.1017913818359375,0.322357177734375,0.883392333984375
1772697847714791200,3.744791259765625,0.1387176513671875,0.300811767578125,0.930206298828125
1772697847724840200,3.754840087890625,0.1754913330078125,0.2774810791015625,0.957275390625
1772697847734889200,3.76488916015625,0.1833953857421875,0.265869140625,0.9687347412109375
1772697847744937200,3.774937255859375,0.1508636474609375,0.2683563232421875,0.9808807373046875
1772697847754986200,3.784986328125,0.097381591796875,0.284515380859375,0.98974609375
1772697847765035300,3.79503515625,0.0604095458984375,0.304656982421875,0.9940338134765625
1772697847775083000,3.8050830078125,0.0531158447265625,0.323974609375,1.00140380859375
1772697847785132300,3.81513232421875,0.06427001953125,0.345123291015625,1.0062103271484375
1772697847795181300,3.825181396484375,0.0688018798828125,0.3645477294921875,1.010650634765625
1772697847805229300,3.835229248046875,0.0577392578125,0.3763885498046875,1.0003814697265625
1772697847815278300,3.8452783203125,0.0414276123046875,0.3751068115234375,0.976898193359375
1772697847825327000,3.8553271484375,0.02130126953125,0.3743133544921875,0.947784423828125
1772697847835375000,3.865375,0.0064239501953125,0.38104248046875,0.917327880859375
1772697847845424000,3.875424072265625,0.0020904541015625,0.4017333984375,0.8944549560546875
1772697847855473200,3.88547314453125,-0.000640869140625,0.42645263671875,0.86785888671875
1772697847865521200,3.895521240234375,-0.013275146484375,0.4485626220703125,0.840789794921875
1772697847875570200,3.905570068359375,-0.0227813720703125,0.4744873046875,0.828460693359375
1772697847885619200,3.915619140625,-0.0267791748046875,0.49102783203125,0.82513427734375
1772697847895667200,3.925667236328125,-0.0267486572265625,0.4951324462890625,0.8355865478515625
1772697847905716200,3.93571630859375,-0.022674560546875,0.49261474609375,0.865966796875
1772697847915765200,3.94576513671875,-0.0294952392578125,0.494171142578125,0.8808135986328125
1772697847925813200,3.955813232421875,-0.051055908203125,0.49951171875,0.88885498046875
1772697847935862000,3.965862060546875,-0.0802459716796875,0.4984893798828125,0.9062042236328125
1772697847945911300,3.975911376953125,-0.1113433837890625,0.4941558837890625,0.9134674072265625
1772697847955959000,3.985958984375,-0.1283416748046875,0.491851806640625,0.9217376708984375
1772697847966008300,3.99600830078125,-0.1389007568359375,0.4878692626953125,0.9125518798828125
1772697847976057600,4.0060576171875,-0.14892578125,0.4779815673828125,0.8939666748046875
1772697847986106400,4.0161064453125,-0.148101806640625,0.457977294921875,0.8896636962890625
1772697847996154400,4.026154296875,-0.137176513671875,0.4375762939453125,0.8847808837890625
1772697848006203400,4.036203369140625,-0.122314453125,0.428253173828125,0.8640899658203125
1772697848016251400,4.04625146484375,-0.1055908203125,0.416900634765625,0.8475799560546875
1772697848026300400,4.056300537109375,-0.0908966064453125,0.4100189208984375,0.846527099609375
1772697848036349400,4.066349365234375,-0.07440185546875,0.3955078125,0.8532867431640625
1772697848046398500,4.0763984375,-0.0623779296875,0.3799896240234375,0.8635711669921875
1772697848056446200,4.0864462890625,-0.059600830078125,0.3773040771484375,0.8773193359375
1772697848066495500,4.09649560546875,-0.05712890625,0.37384033203125,0.8882293701171875
1772697848076544500,4.10654443359375,-0.057708740234375,0.38330078125,0.89617919921875
1772697848086592500,4.116592529296875,-0.06298828125,0.387115478515625,0.896636962890625
1772697848096641500,4.1266416015625,-0.0692901611328125,0.395233154296875,0.8904876708984375
1772697848106690300,4.136690185546875,-0.067718505859375,0.3972930908203125,0.876220703125
1772697848116738300,4.14673828125,-0.0785064697265625,0.39862060546875,0.8640899658203125
1772697848126787300,4.156787353515625,-0.093109130859375,0.4018707275390625,0.84759521484375
1772697848136836600,4.166836669921875,-0.1105499267578125,0.414947509765625,0.8271331787109375
1772697848146884400,4.17688427734375,-0.129150390625,0.4332122802734375,0.8152008056640625
1772697848156933400,4.186933349609375,-0.152069091796875,0.452880859375,0.80804443359375
1772697848166982400,4.196982421875,-0.1744232177734375,0.46502685546875,0.8139190673828125
1772697848177030400,4.207030517578125,-0.194000244140625,0.4532318115234375,0.82733154296875
1772697848187079400,4.217079345703125,-0.2066802978515625,0.43768310546875,0.8346099853515625
1772697848197128400,4.22712841796875,-0.220123291015625,0.4141693115234375,0.8433685302734375
1772697848207176400,4.237176513671875,-0.236358642578125,0.3907470703125,0.8559417724609375
1772697848217225200,4.24722509765625,-0.2594146728515625,0.3820648193359375,0.863555908203125
1772697848227274500,4.2572744140625,-0.2835235595703125,0.387054443359375,0.8710479736328125
1772697848237322200,4.267322265625,-0.307861328125,0.388153076171875,0.8787689208984375
1772697848247371500,4.27737158203125,-0.3290557861328125,0.38372802734375,0.8724517822265625
1772697848257420500,4.287420654296875,-0.3517913818359375,0.378143310546875,0.87567138671875
1772697848267468500,4.297468505859375,-0.3609771728515625,0.37310791015625,0.8888092041015625
1772697848277517300,4.307517333984375,-0.3554534912109375,0.3759002685546875,0.902008056640625
1772697848287566300,4.31756640625,-0.34185791015625,0.3760986328125,0.919677734375
1772697848297614300,4.3276142578125,-0.32562255859375,0.3722381591796875,0.927978515625
1772697848307663400,4.337663330078125,-0.30999755859375,0.3610382080078125,0.928985595703125
1772697848317712400,4.34771240234375,-0.2917022705078125,0.3680572509765625,0.92401123046875
1772697848327760400,4.357760498046875,-0.269134521484375,0.3764190673828125,0.916656494140625
1772697848337809400,4.367809326171875,-0.251922607421875,0.386932373046875,0.90679931640625
1772697848347858400,4.3778583984375,-0.2444305419921875,0.4074249267578125,0.9062652587890625
1772697848357906400,4.387906494140625,-0.2493896484375,0.4272003173828125,0.9078216552734375
1772697848367955500,4.39795556640625,-0.2641754150390625,0.4454193115234375,0.9053192138671875
1772697848378004200,4.408004150390625,-0.2786865234375,0.4671173095703125,0.897796630859375
1772697848388052500,4.418052490234375,-0.2824554443359375,0.4905242919921875,0.87579345703125
1772697848398101200,4.428101318359375,-0.2641448974609375,0.533599853515625,0.8625946044921875
1772697848408150500,4.438150634765625,-0.2270965576171875,0.5999603271484375,0.8944244384765625
1772697848418198300,4.4481982421875,-0.215118408203125,0.6564483642578125,1.0047454833984375
1772697848428247600,4.45824755859375,-0.2295989990234375,0.6859130859375,1.118377685546875
1772697848438296300,4.46829638671875,-0.22344970703125,0.6929473876953125,1.1417083740234375
1772697848448344600,4.478344482421875,-0.1929779052734375,0.6728668212890625,1.10595703125
1772697848458393300,4.488393310546875,-0.14794921875,0.6297607421875,1.03741455078125
1772697848468442400,4.4984423828125,-0.1036376953125,0.5973052978515625,0.9556427001953125
1772697848478490400,4.508490478515625,-0.0570068359375,0.5786590576171875,0.8621368408203125
1772697848488539400,4.518539306640625,-0.0375213623046875,0.5193634033203125,0.784210205078125
1772697848498588400,4.52858837890625,-0.0826568603515625,0.414520263671875,0.74969482421875
1772697848508636400,4.538636474609375,-0.17108154296875,0.313690185546875,0.7580718994140625
1772697848518685400,4.548685546875,-0.239349365234375,0.28076171875,0.7600250244140625
1772697848528734500,4.558734375,-0.2522430419921875,0.30126953125,0.801025390625
1772697848538782500,4.568782470703125,-0.2283935546875,0.36895751953125,0.9010772705078125
1772697848548831500,4.57883154296875,-0.213226318359375,0.43682861328125,0.990509033203125
1772697848558880300,4.58888037109375,-0.2181396484375,0.4599609375,1.042449951171875
1772697848568929500,4.598929443359375,-0.226226806640625,0.4318695068359375,1.05291748046875
1772697848578977300,4.608977294921875,-0.207061767578125,0.3992156982421875,1.00042724609375
1772697848589026600,4.619026611328125,-0.1556396484375,0.363616943359375,0.9274139404296875
1772697848599075300,4.629075439453125,-0.09222412109375,0.3379364013671875,0.8549041748046875
1772697848609123600,4.63912353515625,-0.0309600830078125,0.33880615234375,0.8020782470703125
1772697848619172400,4.64917236328125,0.0178070068359375,0.35614013671875,0.7720489501953125
1772697848629221400,4.659221435546875,0.0511016845703125,0.3760833740234375,0.765869140625
1772697848639269400,4.669269287109375,0.05975341796875,0.38592529296875,0.7843780517578125
1772697848649318400,4.679318359375,0.0470428466796875,0.3798828125,0.8032379150390625
1772697848659367400,4.689367431640625,0.030792236328125,0.366943359375,0.824493408203125
1772697848669415400,4.69941552734375,0.0249481201171875,0.3498077392578125,0.8518524169921875
1772697848679464400,4.70946435546875,0.029296875,0.3333892822265625,0.8773193359375
1772697848689513500,4.719513427734375,0.0294647216796875,0.3213348388671875,0.89678955078125
1772697848699561500,4.7295615234375,0.0317840576171875,0.318756103515625,0.9084320068359375
1772697848709610500,4.739610595703125,0.0431671142578125,0.327545166015625,0.9234771728515625
1772697848719659300,4.7496591796875,0.0580902099609375,0.3437347412109375,0.9409332275390625
1772697848729707500,4.75970751953125,0.0751800537109375,0.349700927734375,0.9581451416015625
1772697848739756300,4.76975634765625,0.0831146240234375,0.3451690673828125,0.9662017822265625
1772697848749805600,4.7798056640625,0.0801239013671875,0.3326568603515625,0.9642791748046875
1772697848759853300,4.789853271484375,0.0659027099609375,0.3141021728515625,0.9505615234375
1772697848769902600,4.799902587890625,0.050506591796875,0.3089752197265625,0.9417572021484375
1772697848779951400,4.809951416015625,0.038970947265625,0.3190460205078125,0.9440155029296875
1772697848789999400,4.819999267578125,0.0290069580078125,0.33746337890625,0.94915771484375
1772697848800048400,4.83004833984375,0.0160980224609375,0.35540771484375,0.95379638671875
1772697848810097400,4.840097412109375,-0.0139007568359375,0.3709716796875,0.9546661376953125
1772697848820145400,4.8501455078125,-0.0433502197265625,0.387664794921875,0.957611083984375
1772697848830194400,4.8601943359375,-0.0645294189453125,0.4002227783203125,0.9612274169921875
1772697848840243500,4.870243408203125,-0.0743560791015625,0.4102630615234375,0.9635467529296875
1772697848850291500,4.88029150390625,-0.0820465087890625,0.4161376953125,0.9617919921875
1772697848860340500,4.890340576171875,-0.0836334228515625,0.425140380859375,0.943603515625
1772697848870389500,4.900389404296875,-0.0752716064453125,0.4291229248046875,0.9211883544921875
1772697848880437200,4.910437255859375,-0.0662384033203125,0.4312896728515625,0.890838623046875
1772697848890486500,4.920486572265625,-0.0537109375,0.4285125732421875,0.8759002685546875
1772697848900535300,4.930535400390625,-0.0473785400390625,0.4191436767578125,0.86517333984375
1772697848910583600,4.94058349609375,-0.0484619140625,0.409393310546875,0.85546875
1772697848920632300,4.95063232421875,-0.0442047119140625,0.4017181396484375,0.8705596923828125
1772697848930681300,4.960681396484375,-0.0422210693359375,0.401092529296875,0.888153076171875
1772697848940729300,4.970729248046875,-0.04962158203125,0.4049072265625,0.9058837890625
1772697848950778400,4.9807783203125,-0.0544586181640625,0.400146484375,0.9234161376953125
1772697848960827600,4.99082763671875,-0.050201416015625,0.376556396484375,0.937408447265625
1772697848970875400,5.00087548828125,-0.040069580078125,0.3468475341796875,0.9353485107421875
1772697848980924700,5.010924560546875,-0.0285797119140625,0.3167877197265625,0.93426513671875
1772697848990973400,5.020973388671875,-0.022552490234375,0.2976226806640625,0.9359893798828125
1772697849001021700,5.031021728515625,-0.025054931640625,0.288604736328125,0.93524169921875
1772697849011070500,5.041070556640625,-0.021209716796875,0.28851318359375,0.94036865234375
1772697849021119500,5.051119384765625,-0.0113067626953125,0.283416748046875,0.9425506591796875
1772697849031167500,5.06116748046875,0.0038604736328125,0.2756805419921875,0.9384918212890625
1772697849041216500,5.071216552734375,0.0252838134765625,0.2724761962890625,0.9273529052734375
1772697849051265500,5.081265625,0.0415191650390625,0.27490234375,0.9287567138671875
1772697849061313500,5.0913134765625,0.035919189453125,0.2780914306640625,0.9415130615234375
1772697849071362600,5.101362548828125,0.015625,0.2818450927734375,0.9353485107421875
1772697849081411600,5.11141162109375,-0.001373291015625,0.288299560546875,0.933135986328125
1772697849091460400,5.12146044921875,-0.0187835693359375,0.2990570068359375,0.93194580078125
1772697849101508600,5.131508544921875,-0.0426025390625,0.3101348876953125,0.9320526123046875
1772697849111557400,5.141557373046875,-0.07135009765625,0.3196258544921875,0.936431884765625
1772697849121606700,5.151606689453125,-0.10498046875,0.325714111328125,0.935302734375
1772697849131654400,5.161654296875,-0.13043212890625,0.329254150390625,0.939422607421875
1772697849141703700,5.17170361328125,-0.148345947265625,0.326446533203125,0.9393463134765625
1772697849151752400,5.18175244140625,-0.16400146484375,0.3208770751953125,0.941619873046875
1772697849161800700,5.19180078125,-0.1832427978515625,0.31475830078125,0.94036865234375
1772697849171849500,5.201849365234375,-0.192291259765625,0.3115234375,0.93719482421875
1772697849181898500,5.2118984375,-0.19049072265625,0.3088531494140625,0.9342193603515625
1772697849191946500,5.221946533203125,-0.1765899658203125,0.3052978515625,0.935089111328125
1772697849201995500,5.23199560546875,-0.1597137451171875,0.304412841796875,0.940032958984375
1772697849212044500,5.24204443359375,-0.13885498046875,0.3048248291015625,0.94287109375
1772697849222092500,5.252092529296875,-0.1129150390625,0.3031158447265625,0.9397430419921875
1772697849232141600,5.2621416015625,-0.0921478271484375,0.3033599853515625,0.9311370849609375
1772697849242190600,5.272190673828125,-0.072235107421875,0.309478759765625,0.9307861328125
1772697849252238600,5.282238525390625,-0.0532684326171875,0.3140869140625,0.9346160888671875
1772697849262287600,5.29228759765625,-0.037811279296875,0.3198089599609375,0.928802490234375
1772697849272336400,5.30233642578125,-0.0302886962890625,0.3354339599609375,0.921051025390625
1772697849282384600,5.312384521484375,-0.03314208984375,0.3602447509765625,0.920166015625
1772697849292433400,5.322433349609375,-0.03997802734375,0.3785247802734375,0.9158935546875
1772697849302481700,5.332481689453125,-0.0584259033203125,0.3871917724609375,0.9279937744140625
1772697849312530400,5.342530517578125,-0.0840606689453125,0.394287109375,0.94635009765625
1772697849322579700,5.352579833984375,-0.1119842529296875,0.4012298583984375,0.9500732421875
1772697849332627500,5.36262744140625,-0.1367340087890625,0.40167236328125,0.9605712890625
1772697849342676700,5.3726767578125,-0.1526641845703125,0.3998870849609375,0.971099853515625
1772697849352725500,5.3827255859375,-0.1706390380859375,0.38934326171875,0.9666748046875
1772697849362773800,5.392773681640625,-0.177734375,0.3827056884765625,0.9584503173828125
1772697849372822500,5.402822509765625,-0.1836395263671875,0.3595428466796875,0.961334228515625
1772697849382871600,5.41287158203125,-0.19110107421875,0.33172607421875,0.9492950439453125
1772697849392919600,5.42291943359375,-0.1978912353515625,0.31005859375,0.942474365234375
1772697849402968600,5.432968505859375,-0.20721435546875,0.279296875,0.94952392578125
1772697849413017600,5.443017578125,-0.2165069580078125,0.2587432861328125,0.9595489501953125
1772697849423066600,5.453066650390625,-0.2233428955078125,0.2537689208984375,0.965362548828125
1772697849433114600,5.463114501953125,-0.239776611328125,0.2576141357421875,0.9610137939453125
1772697849443163600,5.47316357421875,-0.2540740966796875,0.2709197998046875,0.953338623046875
1772697849453212400,5.48321240234375,-0.2586822509765625,0.279449462890625,0.959991455078125
1772697849463260700,5.4932607421875,-0.244964599609375,0.290740966796875,0.9718475341796875
1772697849473309400,5.503309326171875,-0.1916046142578125,0.294677734375,1.01568603515625
1772697849483358700,5.513358642578125,-0.101959228515625,0.3125762939453125,1.1341400146484375
1772697849493406500,5.523406494140625,-0.0388946533203125,0.3641815185546875,1.2739715576171875
1772697849503455700,5.533455810546875,0.010650634765625,0.400054931640625,1.344757080078125
1772697849513504500,5.54350439453125,0.0614776611328125,0.36016845703125,1.2888336181640625
1772697849523552800,5.553552734375,0.1077423095703125,0.2669677734375,1.169525146484375
1772697849533601500,5.5636015625,0.148223876953125,0.1886444091796875,1.0757598876953125
1772697849543650600,5.573650634765625,0.202728271484375,0.154052734375,1.0184173583984375
1772697849553698600,5.583698486328125,0.2355194091796875,0.14300537109375,0.981597900390625
1772697849563747600,5.59374755859375,0.2061767578125,0.1631927490234375,0.9333343505859375
1772697849573796600,5.603796630859375,0.11053466796875,0.227447509765625,0.8734283447265625
1772697849583844600,5.6138447265625,0.00445556640625,0.3002471923828125,0.8200531005859375
1772697849593893600,5.6238935546875,-0.0811767578125,0.3369598388671875,0.7657928466796875
1772697849603942700,5.633942626953125,-0.1456756591796875,0.3470916748046875,0.7320556640625
1772697849613990700,5.64399072265625,-0.16259765625,0.3544464111328125,0.7381134033203125
1772697849624039700,5.654039794921875,-0.1259613037109375,0.3665618896484375,0.7815704345703125
1772697849634088400,5.66408837890625,-0.0793304443359375,0.36285400390625,0.84783935546875
1772697849644136700,5.67413671875,-0.0656585693359375,0.356048583984375,0.9260101318359375
1772697849654185500,5.684185546875,-0.066925048828125,0.369293212890625,0.983154296875
1772697849664234800,5.69423486328125,-0.0495147705078125,0.4057159423828125,0.996490478515625
1772697849674282500,5.704282470703125,-0.0353851318359375,0.4326324462890625,0.985260009765625
1772697849684331800,5.714331787109375,-0.0281219482421875,0.4295501708984375,0.9668731689453125
1772697849694380500,5.724380615234375,-0.0312652587890625,0.412139892578125,0.9556427001953125
1772697849704428500,5.734428466796875,-0.0101470947265625,0.3880767822265625,0.931182861328125
1772697849714477600,5.7444775390625,0.029083251953125,0.3740997314453125,0.899139404296875
1772697849724526600,5.754526611328125,0.0600433349609375,0.3677215576171875,0.8731842041015625
1772697849734575600,5.76457568359375,0.1053009033203125,0.357879638671875,0.8664703369140625
1772697849744623600,5.77462353515625,0.1479339599609375,0.342926025390625,0.880462646484375
1772697849754672600,5.784672607421875,0.176605224609375,0.3408966064453125,0.9050750732421875
1772697849764721700,5.7947216796875,0.1815643310546875,0.35028076171875,0.9246368408203125
1772697849774769700,5.804769775390625,0.16363525390625,0.3717803955078125,0.9439239501953125
1772697849784818700,5.814818603515625,0.1411285400390625,0.3939208984375,0.9757537841796875
1772697849794867500,5.824867431640625,0.1225433349609375,0.4020233154296875,1.0140838623046875
1772697849804915700,5.834915771484375,0.113372802734375,0.3972320556640625,1.044677734375
1772697849814964500,5.844964599609375,0.110504150390625,0.391845703125,1.0662689208984375
1772697849825013800,5.855013671875,0.10565185546875,0.3963470458984375,1.05926513671875
1772697849835061500,5.8650615234375,0.10174560546875,0.393463134765625,1.0308685302734375
1772697849845110500,5.875110595703125,0.0936279296875,0.3847503662109375,0.9956207275390625
1772697849855159600,5.88515966796875,0.07159423828125,0.3822021484375,0.9597930908203125
1772697849865207600,5.89520751953125,0.0491180419921875,0.4052581787109375,0.9058990478515625
1772697849875256600,5.905256591796875,0.021087646484375,0.428253173828125,0.85400390625
1772697849885305600,5.9153056640625,-0.0107269287109375,0.4386138916015625,0.8380126953125
1772697849895353600,5.925353515625,-0.0335235595703125,0.4331207275390625,0.8260345458984375
1772697849905402600,5.935402587890625,-0.039703369140625,0.4261474609375,0.80914306640625
1772697849915451600,5.94545166015625,-0.027557373046875,0.4181365966796875,0.8024444580078125
1772697849925499400,5.95549951171875,-0.0093536376953125,0.42327880859375,0.806060791015625
1772697849935548400,5.96554833984375,0.0062408447265625,0.435699462890625,0.8191070556640625
1772697849945597700,5.97559765625,0.0137786865234375,0.4548187255859375,0.8276519775390625
1772697849955645400,5.9856455078125,0.0158843994140625,0.469879150390625,0.842498779296875
1772697849965695200,5.9956953125,0.0092010498046875,0.479248046875,0.842864990234375
1772697849975744300,6.005744140625,0.0004425048828125,0.4870452880859375,0.8390960693359375
1772697849985792300,6.015792236328125,-0.0060272216796875,0.4942779541015625,0.8472900390625
1772697849995841300,6.02584130859375,-0.0100860595703125,0.5028228759765625,0.8506317138671875
1772697850005890000,6.03589013671875,-0.0091400146484375,0.51116943359375,0.8407440185546875
1772697850015938300,6.045938232421875,-0.0037078857421875,0.51568603515625,0.838134765625
1772697850025987000,6.055987060546875,0.0022735595703125,0.512237548828125,0.850982666015625
1772697850036036400,6.066036376953125,-0.0050506591796875,0.50787353515625,0.87176513671875
1772697850046084000,6.076083984375,-0.022216796875,0.495574951171875,0.8834991455078125
1772697850056133400,6.08613330078125,-0.0377349853515625,0.4771270751953125,0.89532470703125
1772697850066182100,6.09618212890625,-0.0441131591796875,0.4512939453125,0.9170684814453125
1772697850076231200,6.106231201171875,-0.048248291015625,0.4256744384765625,0.934417724609375
1772697850086279200,6.116279052734375,-0.04571533203125,0.395599365234375,0.9571380615234375
1772697850096328200,6.126328125,-0.0472412109375,0.376373291015625,0.9583892822265625
1772697850106377200,6.136377197265625,-0.057830810546875,0.3782958984375,0.9396209716796875
1772697850116425200,6.14642529296875,-0.0670013427734375,0.39404296875,0.92303466796875
1772697850126474200,6.15647412109375,-0.07476806640625,0.4189453125,0.8948822021484375
1772697850136523300,6.166523193359375,-0.0775299072265625,0.4480438232421875,0.8662567138671875
1772697850146571300,6.1765712890625,-0.083038330078125,0.480194091796875,0.8480377197265625
1772697850156620300,6.186620361328125,-0.08355712890625,0.495880126953125,0.8545074462890625
1772697850166669000,6.1966689453125,-0.0924530029296875,0.503753662109375,0.84564208984375
1772697850176717300,6.20671728515625,-0.114013671875,0.511749267578125,0.8379974365234375
1772697850186766000,6.21676611328125,-0.1452789306640625,0.5105133056640625,0.8313751220703125
1772697850196815400,6.2268154296875,-0.170928955078125,0.5059967041015625,0.8548126220703125
1772697850206863000,6.236863037109375,-0.1965484619140625,0.5000152587890625,0.869354248046875
1772697850216912400,6.246912353515625,-0.1998291015625,0.482177734375,0.8878173828125
1772697850226961200,6.256961181640625,-0.184173583984375,0.4586944580078125,0.899505615234375
1772697850237009400,6.267009521484375,-0.1555328369140625,0.4431915283203125,0.904388427734375
1772697850247058200,6.27705810546875,-0.1408233642578125,0.4411163330078125,0.8895263671875
1772697850257107200,6.287107177734375,-0.1322479248046875,0.43426513671875,0.860443115234375
1772697850267155200,6.2971552734375,-0.1208038330078125,0.43719482421875,0.8448333740234375
1772697850277204200,6.307204345703125,-0.1207275390625,0.444915771484375,0.8311767578125
1772697850287253200,6.317253173828125,-0.13311767578125,0.4543914794921875,0.825347900390625
1772697850297301200,6.32730126953125,-0.1369781494140625,0.455230712890625,0.8297119140625
1772697850307350300,6.337350341796875,-0.1233673095703125,0.453369140625,0.8485870361328125
1772697850317399300,6.3473994140625,-0.119476318359375,0.457763671875,0.85882568359375
1772697850327447300,6.357447265625,-0.124603271484375,0.4574127197265625,0.8645172119140625
1772697850337496300,6.367496337890625,-0.124786376953125,0.4544525146484375,0.8734283447265625
1772697850347545000,6.377545166015625,-0.1285247802734375,0.448150634765625,0.87646484375
1772697850357593000,6.387593017578125,-0.12957763671875,0.439971923828125,0.871337890625
1772697850367642000,6.39764208984375,-0.123443603515625,0.4372711181640625,0.870391845703125
1772697850377691400,6.40769140625,-0.1177215576171875,0.4462127685546875,0.8716278076171875
1772697850387740200,6.417740234375,-0.1084747314453125,0.453338623046875,0.8751220703125
1772697850397788200,6.4277880859375,-0.095550537109375,0.4669189453125,0.873565673828125
1772697850407837200,6.437837158203125,-0.0664825439453125,0.49334716796875,0.882232666015625
1772697850417886200,6.44788623046875,-0.0340728759765625,0.5303497314453125,0.9411163330078125
1772697850427934200,6.457934326171875,-0.04827880859375,0.55328369140625,1.038665771484375
1772697850437983200,6.467983154296875,-0.1042633056640625,0.5435638427734375,1.0761871337890625
1772697850448032300,6.4780322265625,-0.1250762939453125,0.5179595947265625,1.0153656005859375
1772697850458080300,6.488080322265625,-0.0749359130859375,0.4891204833984375,0.9302215576171875
1772697850468129300,6.49812939453125,0.006561279296875,0.4694061279296875,0.8931427001953125
1772697850478178300,6.50817822265625,0.0591583251953125,0.4842376708984375,0.9117889404296875
1772697850488226000,6.51822607421875,0.0657806396484375,0.4904632568359375,0.952392578125
1772697850498275300,6.528275390625,0.0440521240234375,0.498016357421875,0.9644622802734375
1772697850508324000,6.538323974609375,0.0147857666015625,0.5128326416015625,0.9465179443359375
1772697850518372000,6.5483720703125,0.00128173828125,0.5060882568359375,0.909210205078125
1772697850528421000,6.558421142578125,0.005279541015625,0.490631103515625,0.8486175537109375
1772697850538470100,6.56847021484375,0.00408935546875,0.4754180908203125,0.8050689697265625
1772697850548518100,6.57851806640625,0.0037384033203125,0.439666748046875,0.76763916015625
1772697850558567200,6.588567138671875,0.00225830078125,0.4073638916015625,0.753570556640625
1772697850568616200,6.5986162109375,-0.0072784423828125,0.3850250244140625,0.766815185546875
1772697850578664200,6.608664306640625,-0.0437164306640625,0.370635986328125,0.83306884765625
1772697850588713200,6.618713134765625,-0.10272216796875,0.364349365234375,0.9225311279296875
1772697850598762200,6.62876220703125,-0.171142578125,0.3781585693359375,0.9644622802734375
1772697850608810200,6.638810302734375,-0.1588897705078125,0.3974456787109375,0.9348907470703125
1772697850618859300,6.648859375,-0.0424652099609375,0.39239501953125,0.9296417236328125
1772697850628908000,6.658907958984375,0.0321044921875,0.3934326171875,0.9391326904296875
1772697850638957300,6.668957275390625,0.0504302978515625,0.403228759765625,0.9020843505859375
1772697850649005000,6.679005126953125,0.050933837890625,0.410675048828125,0.8668060302734375
1772697850659054300,6.689054443359375,0.0321807861328125,0.4207000732421875,0.8465576171875
1772697850669103000,6.69910302734375,-0.0002593994140625,0.427703857421875,0.84136962890625
1772697850679151000,6.709151123046875,-0.0331878662109375,0.4380340576171875,0.8621368408203125
1772697850689200000,6.7192001953125,-0.042816162109375,0.4541015625,0.8837432861328125
1772697850699249200,6.729249267578125,-0.03375244140625,0.4915313720703125,0.8840484619140625
1772697850709297200,6.739297119140625,-0.0055389404296875,0.5065765380859375,0.8730316162109375
1772697850719346200,6.74934619140625,0.0100250244140625,0.4874267578125,0.8655548095703125
1772697850729395200,6.759395263671875,0.003082275390625,0.456939697265625,0.8529510498046875
1772697850739443000,6.76944287109375,-0.006561279296875,0.4460906982421875,0.8436279296875
1772697850749492200,6.7794921875,-0.0141448974609375,0.4502105712890625,0.8314208984375
1772697850759541200,6.789541259765625,-0.0433349609375,0.469512939453125,0.816619873046875
1772697850769589200,6.79958935546875,-0.0675201416015625,0.4916534423828125,0.8260650634765625
1772697850779638300,6.80963818359375,-0.075775146484375,0.4976654052734375,0.8587646484375
1772697850789687000,6.81968701171875,-0.063690185546875,0.4825439453125,0.9114532470703125
1772697850799735000,6.829735107421875,-0.0612030029296875,0.4619293212890625,0.9357452392578125
1772697850809784000,6.8397841796875,-0.07000732421875,0.4492950439453125,0.9394378662109375
1772697850819833300,6.849833251953125,-0.081329345703125,0.4459228515625,0.9303131103515625
1772697850829881000,6.859881103515625,-0.08233642578125,0.442108154296875,0.9097442626953125
1772697850839930000,6.86993017578125,-0.0704345703125,0.448028564453125,0.8983001708984375
1772697850849979100,6.879979248046875,-0.054901123046875,0.4640350341796875,0.903350830078125
1772697850860027100,6.890027099609375,-0.049835205078125,0.47796630859375,0.902496337890625
1772697850870076200,6.900076171875,-0.043975830078125,0.485504150390625,0.92657470703125
1772697850880125200,6.910125244140625,-0.02984619140625,0.4906158447265625,0.945281982421875
1772697850890173200,6.920173095703125,-0.02362060546875,0.5040740966796875,0.9328765869140625
1772697850900222000,6.930221923828125,-0.034393310546875,0.515411376953125,0.907379150390625
1772697850910271200,6.940271240234375,-0.040771484375,0.5222930908203125,0.8923797607421875
1772697850920319000,6.950319091796875,-0.0294036865234375,0.526214599609375,0.8775634765625
1772697850930368300,6.9603681640625,-0.0130767822265625,0.51971435546875,0.863616943359375
1772697850940417300,6.970417236328125,-0.00189208984375,0.508056640625,0.84942626953125
1772697850950466000,6.980466064453125,-0.0005340576171875,0.49365234375,0.8493804931640625
1772697850960514000,6.99051416015625,-0.006103515625,0.48095703125,0.8642730712890625
1772697850970562600,7.0005625,-0.0195159912109375,0.4820098876953125,0.8810882568359375
1772697850980611600,7.010611572265625,-0.046875,0.49072265625,0.8791961669921875
1772697850990659600,7.02065966796875,-0.068695068359375,0.5043182373046875,0.8722076416015625
1772697851000708600,7.03070849609375,-0.0809783935546875,0.5091552734375,0.8707733154296875
1772697851010757400,7.04075732421875,-0.0857391357421875,0.5116424560546875,0.867156982421875
1772697851020805600,7.0508056640625,-0.0822906494140625,0.51068115234375,0.869659423828125
1772697851030854400,7.0608544921875,-0.071868896484375,0.51275634765625,0.85980224609375
1772697851040903700,7.070903564453125,-0.0583038330078125,0.515716552734375,0.850189208984375
1772697851050951400,7.080951416015625,-0.0462493896484375,0.50927734375,0.8609466552734375
1772697851061000700,7.091000732421875,-0.0391082763671875,0.5065765380859375,0.882659912109375
1772697851071049500,7.101049560546875,-0.025482177734375,0.5072479248046875,0.8968963623046875
1772697851081097700,7.11109765625,-0.0175323486328125,0.505401611328125,0.8990325927734375
1772697851091146500,7.121146484375,-0.00946044921875,0.4993438720703125,0.896820068359375
1772697851101195500,7.131195556640625,-0.0043792724609375,0.492706298828125,0.893218994140625
1772697851111243500,7.141243408203125,0.0012969970703125,0.4871673583984375,0.88720703125
1772697851121292500,7.15129248046875,0.0062103271484375,0.48223876953125,0.88916015625
1772697851131341600,7.161341552734375,0.000030517578125,0.4741058349609375,0.8887176513671875
1772697851141389600,7.1713896484375,-0.0113372802734375,0.468505859375,0.8863067626953125
1772697851151438600,7.1814384765625,-0.0224151611328125,0.4688262939453125,0.8778839111328125
1772697851161487600,7.191487548828125,-0.0279998779296875,0.478179931640625,0.866119384765625
1772697851171535600,7.20153564453125,-0.0157012939453125,0.4840545654296875,0.865325927734375
1772697851181584600,7.211584716796875,-0.0014495849609375,0.48931884765625,0.87969970703125
1772697851191633400,7.22163330078125,-0.0042266845703125,0.4935302734375,0.8831787109375
1772697851201682700,7.2316826171875,-0.010162353515625,0.49371337890625,0.872528076171875
1772697851211730400,7.24173046875,0.0099945068359375,0.4859619140625,0.861114501953125
1772697851221779700,7.25177978515625,0.0689697265625,0.4950103759765625,0.86663818359375
1772697851231828500,7.261828369140625,0.0552825927734375,0.501953125,0.8780364990234375
1772697851241876500,7.27187646484375,0.0065155029296875,0.49346923828125,0.87738037109375
1772697851251925500,7.281925537109375,-0.0156707763671875,0.49853515625,0.8787689208984375
1772697851261974500,7.291974609375,-0.0323028564453125,0.495941162109375,0.8880615234375
1772697851272022500,7.3020224609375,-0.063629150390625,0.4785919189453125,0.9102935791015625
1772697851282071600,7.312071533203125,-0.1251983642578125,0.4630584716796875,0.90972900390625
1772697851292120600,7.32212060546875,-0.19134521484375,0.480377197265625,0.8841552734375
1772697851302168600,7.33216845703125,-0.2008514404296875,0.5002899169921875,0.8524627685546875
1772697851312217600,7.342217529296875,-0.1581268310546875,0.490142822265625,0.8448333740234375
1772697851322266600,7.3522666015625,-0.1025238037109375,0.4758148193359375,0.85595703125
