time,seconds_elapsed,z,y,x
1772697844043259600,0.073259765625,-0.28440438612401486,0.18125176242440938,-0.16148293985426426
1772697844053307600,0.0833076171875,-0.3142687785118818,0.21786855168193578,-0.17139526205956934
1772697844063356700,0.093356689453125,-0.3517529982537031,0.22776129240393636,-0.15056874713003635
1772697844073405400,0.103405517578125,-0.376460738530755,0.21180735194683073,-0.11600538327097892
1772697844083453700,0.11345361328125,-0.39823198696449397,0.1885927728369832,-0.0781266112536192
1772697844093502500,0.12350244140625,-0.3708900987915694,0.21420418395549057,-0.05680792889297008
1772697844103551700,0.1335517578125,-0.32317674598023294,0.23330782061517238,-0.04362579123675823
1772697844113599500,0.143599609375,-0.3256890210621059,0.2298649866849184,-0.059446460703015326
1772697844123648800,0.153648681640625,-0.3042003889620304,0.23618308379054068,-0.09038111267089843
1772697844133697500,0.163697509765625,-0.2983269668839872,0.22197014178186653,-0.08958324029147624
1772697844143745500,0.17374560546875,-0.2932949640661478,0.18906039034873245,-0.15395254434943198
1772697844153794600,0.183794677734375,-0.27116277336552735,0.2148416050761938,-0.272581846383214
1772697844163843600,0.193843505859375,-0.314409209895879,0.27954233304560183,-0.32733050465881824
1772697844173891600,0.2038916015625,-0.43834348646998406,0.2881327589973807,-0.3304822466880083
1772697844183940600,0.213940673828125,-0.5309259085774422,0.2643471020013094,-0.29181612368524074
1772697844193989600,0.22398974609375,-0.5579812348939478,0.2647138894870877,-0.19561609560251234
1772697844204037600,0.23403759765625,-0.5396368921689689,0.2806108390599489,-0.1311468383014202
1772697844214086700,0.244086669921875,-0.4868776541449129,0.280045606392622,-0.09626315644681453
1772697844224135700,0.2541357421875,-0.456524601457268,0.24721973385065793,-0.08224047631323338
1772697844234183400,0.264183349609375,-0.43906756296083327,0.1887076313883066,-0.12413140658140182
1772697844244232700,0.274232666015625,-0.41107773227319117,0.19484511123001574,-0.17539806796014307
1772697844254281500,0.284281494140625,-0.3998175025902688,0.25790391721129413,-0.17674013021886348
1772697844264329500,0.29432958984375,-0.4218849574916064,0.2816895742073655,-0.1533943259447813
1772697844274378500,0.30437841796875,-0.39540786945447326,0.24680180069953203,-0.063604164904356
1772697844284427500,0.314427490234375,-0.32768706301152706,0.2468178750514984,-0.08778115930557251
1772697844294475500,0.3244755859375,-0.3367877765730023,0.2630433259263635,-0.1388508368074894
1772697844304524500,0.334524658203125,-0.3225958773523569,0.2970771129533648,-0.19707155510783195
1772697844314573600,0.344573486328125,-0.35576471811309457,0.26343495559245345,-0.1580523808836937
1772697844324621300,0.354621337890625,-0.4365145174771547,0.21783201906383037,-0.10470891323089598
1772697844334670600,0.364670654296875,-0.5354752424448729,0.32169775946885343,-0.14208207381367682
1772697844344719600,0.3747197265625,-0.6485195839531719,0.2669604993700981,0.017699907341599465
1772697844354767600,0.384767578125,-0.6573400192685425,0.11859364619851112,0.04956453363597393
1772697844364816600,0.394816650390625,-0.5389117927648127,0.007974632140994071,0.05146306073367595
1772697844374865400,0.404865478515625,-0.44163083757758137,0.02801233478039503,0.031518589335680004
1772697844384913400,0.414913330078125,-0.3606102584481239,0.08602379424422979,-0.040595045238733286
1772697844394962400,0.42496240234375,-0.33726313899978994,0.18338292923420665,-0.05893032787442207
1772697844405011700,0.43501171875,-0.32012101167142387,0.24783231279104947,-0.06214928992092609
1772697844415059500,0.4450595703125,-0.244656166972965,0.28882512517571446,-0.05032850374579429
1772697844425108500,0.4551083984375,-0.1868112962476909,0.3449786818131804,-0.1171346795618534
1772697844435157500,0.465157470703125,-0.16441782426238058,0.4655506423473358,-0.24689210933148859
1772697844445205500,0.47520556640625,-0.2627501881986856,0.41321284460574387,-0.2347013208001852
1772697844455254500,0.485254638671875,-0.39062911074534057,0.24682751966267824,-0.11378595365583896
1772697844465303600,0.495303466796875,-0.464744586661458,0.08494973527193068,0.0920814868479967
1772697844475351600,0.5053515625,-0.4675836094796657,0.07997253138124942,0.2994558247834444
1772697844485400300,0.515400390625,-0.4333044693894684,0.013203472705185413,0.4900380178719759
1772697844495449600,0.52544970703125,-0.3659919514864683,0.15679448977708815,0.4529927740693092
1772697844505497300,0.535497314453125,-0.40882060099616646,0.36569384532272814,0.32810207355320453
1772697844515546600,0.545546630859375,-0.4265332216888666,0.5443269496813417,0.059226680472493166
1772697844525595600,0.555595703125,-0.4223018677294254,0.6709604022115468,-0.1410638366818428
1772697844535643600,0.5656435546875,-0.349119727140665,0.746906746816635,-0.19421675019860266
1772697844545692400,0.5756923828125,-0.25624380197934804,0.8000172824963927,-0.17546645702123642
1772697844555741400,0.585741455078125,-0.1671742833636701,0.8066773249074817,-0.18415654395520686
1772697844565789400,0.59578955078125,-0.14731230261735617,0.7534522229373455,-0.28319091868102547
1772697844575838500,0.60583837890625,-0.13087905421070753,0.6176856158807873,-0.4033662811130285
1772697844585887500,0.615887451171875,0.01547054085433483,0.4421969470277428,-0.5258592728376388
1772697844595935500,0.625935546875,0.2372072392065078,0.2514423199817538,-0.6699246294230222
1772697844605984500,0.635984619140625,0.5312662464477121,0.10310615420937537,-0.953458077931404
1772697844616033500,0.646033447265625,0.8587468271017074,0.038247313068807125,-1.316390057325363
1772697844626081500,0.65608154296875,1.087105062485486,-0.08005524122864008,-1.4829945779770612
1772697844636130600,0.666130615234375,1.1253420733559876,-0.28209757048636674,-1.356982179954648
1772697844646179300,0.676179443359375,1.0266728056155145,-0.44750119091570373,-1.0344605368822812
1772697844656227600,0.6862275390625,0.8791074780851602,-0.45482203532308335,-0.6213315711677074
1772697844666276400,0.6962763671875,0.7130518234878778,-0.26298516599833965,-0.2747252881526947
1772697844676325600,0.70632568359375,0.47894028527438637,-0.06315116043984889,0.10574234793186187
1772697844686373400,0.716373291015625,0.27211232917532324,0.27071312990188595,0.32482875097095965
1772697844696422700,0.726422607421875,-0.004947539404779672,0.5281348165541887,0.6189560742080211
1772697844706471400,0.736471435546875,-0.40240941877961156,0.6277507905602455,0.9795751004844904
1772697844716519700,0.746519775390625,-0.9123018186133355,0.6806380388781428,1.3378420106768607
1772697844726568400,0.756568359375,-1.2740198191076517,0.7463742473751306,1.6381109054088592
1772697844736617500,0.766617431640625,-1.4429671034932137,0.6415376161113381,1.6899217566668987
1772697844746665500,0.77666552734375,-1.3933996472477912,0.37735505702197547,1.3545949925571679
1772697844756714500,0.786714599609375,-1.2042144614756107,0.09153525114208459,0.7720441106826067
1772697844766763500,0.796763427734375,-0.862354496204853,-0.12477145805060863,0.14234861579537392
1772697844776811500,0.8068115234375,-0.43866438898742194,-0.25931407627016306,-0.31170565002560613
1772697844786860500,0.816860595703125,0.0027408231407403945,-0.26530571790039537,-0.5902823529094458
1772697844796909600,0.82690966796875,0.3018822482127696,-0.3623348902836442,-0.43984746129214763
1772697844806957600,0.83695751953125,0.6484990526217966,-0.28948125099688765,-0.32366146075725555
1772697844817006600,0.847006591796875,1.0056384200889616,-0.10471855784207582,-0.3855903859257698
1772697844827055400,0.857055419921875,1.113542841425538,-0.024077333419024943,-0.5066045372694731
1772697844837103600,0.867103515625,1.0502227541595697,-0.0567547374010086,-0.5540992788940667
1772697844847152400,0.87715234375,1.001492479390651,-0.052794893859326834,-0.6218155552923679
1772697844857201700,0.88720166015625,0.9212420809160917,0.08720423620045184,-0.6068629008322953
1772697844867249400,0.89724951171875,0.6785106714606285,0.2289645307138562,-0.4839537295222282
1772697844877298700,0.907298583984375,0.3527987079143524,0.21030600747317074,-0.33203532134890557
1772697844887347500,0.917347412109375,0.08135200304090977,0.0174848032861948,-0.15328677391707896
1772697844897395700,0.927395751953125,0.020994272711873055,-0.1352925598040223,-0.07730185086727141
1772697844907444500,0.937444580078125,0.08049502088539302,-0.10389672006517649,-0.0872889918744564
1772697844917493500,0.947493408203125,0.04272913465797901,-0.011630816560983658,-0.1251525663226843
1772697844927541500,0.95754150390625,-0.07955985892713069,0.05729454336613416,-0.1273912851601839
1772697844937590500,0.967590576171875,-0.22861060270965097,0.14508447050005197,-0.10890694944262504
1772697844947639600,0.9776396484375,-0.3134843136033043,0.2355161443144083,-0.1979103440195322
1772697844957687300,0.987687255859375,-0.4195189224800095,0.30726562175154687,-0.23384908788502215
1772697844967736300,0.997736328125,-0.5680850976159796,0.3292547507196665,-0.26753800699710845
1772697844977785300,1.007785400390625,-0.672544967989251,0.3284177153736353,-0.2976818008482456
1772697844987833300,1.017833251953125,-0.6734545571148395,0.19895254654884337,-0.3119552408725023
1772697844997882400,1.02788232421875,-0.6125561440378428,0.06713496937900781,-0.2632341723233461
1772697845007931100,1.03793115234375,-0.5584883806984872,-0.0865247295036912,-0.18760639214813707
1772697845017979400,1.0479794921875,-0.47273675445914265,-0.34777298870682716,-0.054664487123489376
1772697845028028200,1.058028076171875,-0.47955582335684444,-0.5268196423023939,0.016013561689853666
1772697845038077400,1.068077392578125,-0.4649491327902302,-0.6187205118864775,0.11031681624054908
1772697845048125200,1.078125244140625,-0.3873421614965424,-0.5694090762287378,0.16126666675508022
1772697845058174500,1.088174560546875,-0.29116964247524735,-0.42106472714990373,0.12734043175578116
1772697845068223200,1.09822314453125,-0.3123638216733932,-0.25471827291250226,0.0871411078363657
1772697845078271500,1.108271484375,-0.2751829687923193,-0.16470803938061,0.02101706906557083
1772697845088320300,1.1183203125,-0.2242213913073763,-0.10142711508125066,-0.05560498284399509
1772697845098369300,1.128369384765625,-0.2709896452883258,-0.07106850943565368,-0.12511398787796496
1772697845108417300,1.138417236328125,-0.432424033293128,-0.1747656152755022,-0.08929390195608139
1772697845118466300,1.14846630859375,-0.5050918311515823,-0.26526772397756576,0.007455576702952385
1772697845128515300,1.158515380859375,-0.5190104663887992,-0.36697716313153506,0.08379413549602031
1772697845138563300,1.168563232421875,-0.5655354496657848,-0.39369682775288817,0.13565525563657282
1772697845148612400,1.1786123046875,-0.6643149728477,-0.5123790290176868,0.13979776226878166
1772697845158661400,1.188661376953125,-0.7012129171341657,-0.44962622024565935,0.05400631547570228
1772697845168709400,1.19870947265625,-0.7630436426252126,-0.5434373073652387,0.13075228602588176
1772697845178758400,1.20875830078125,-0.8174579543799162,-0.5016407773822545,0.09250818782746792
1772697845188807200,1.21880712890625,-0.8371358837962151,-0.5317255345225333,0.17280337529182432
1772697845198855400,1.22885546875,-0.8269950135320424,-0.4685638526886701,0.10828384910821914
1772697845208904200,1.238904296875,-0.862813345888257,-0.36574382194429633,0.08272504495978356
1772697845218953500,1.248953369140625,-1.043687214910984,-0.3111027156963944,0.013428805893659591
1772697845229001200,1.259001220703125,-1.170095334252715,-0.23669600174874067,-0.07101356437802314
1772697845239050500,1.269050537109375,-1.1512912650614977,-0.1477592426672578,-0.06778349641561508
1772697845249099300,1.279099365234375,-1.076938327127695,-0.13879326140135526,-0.05377426028549671
1772697845259148300,1.289148193359375,-0.984935750734806,-0.18826105666458606,-0.0118511813133955
1772697845269196300,1.2991962890625,-0.9550941547006369,-0.3049710810735822,-0.08033610399663448
1772697845279245300,1.309245361328125,-0.9166296917498111,-0.44522477041631936,-0.21872224590182304
1772697845289293300,1.319293212890625,-0.8341215044111013,-0.4706128941729665,-0.24624738168716429
1772697845299342300,1.32934228515625,-0.7976286337941885,-0.4451236481294036,-0.17765139984488487
1772697845309391400,1.339391357421875,-0.9383335740357637,-0.4129986173331737,-0.11932371403872966
1772697845319440400,1.3494404296875,-1.1621148568928241,-0.36379707179069515,-0.11641045694053172
1772697845329488400,1.35948828125,-1.278519468614459,-0.300088861989975,-0.08557809630334377
1772697845339537400,1.369537353515625,-1.3242764266610145,-0.24373218399584293,-0.02852642178237438
1772697845349586200,1.379586181640625,-1.336280752709508,-0.27008243078291416,-0.020445406657457352
1772697845359634400,1.389634521484375,-1.2935685691863297,-0.4018345415011048,0.013818681994080543
1772697845369683200,1.39968310546875,-1.1804559847474096,-0.6300666662871838,0.06088496907353401
1772697845379732500,1.409732421875,-1.106225284953788,-0.8636351836651563,0.18186112649440764
1772697845389780200,1.4197802734375,-1.0504466260433196,-1.0745654605165122,0.3746621646761894
1772697845399829500,1.42982958984375,-1.045160137007758,-1.1893263966843486,0.5954863512933254
1772697845409878300,1.439878173828125,-0.9389169268816709,-1.3033622334480286,0.989036756312847
1772697845419926500,1.449926513671875,-0.6541016218692064,-1.3872887631520627,1.5813380478292702
1772697845429975300,1.459975341796875,-0.3349468248814344,-1.0929723470836876,2.3636902020365
1772697845440024300,1.4700244140625,-0.17263269490003585,-0.49710079586505884,3.2742408661335705
1772697845450072300,1.480072265625,-0.11763619934320449,-0.1082309498772025,3.2347032209932802
1772697845460121300,1.490121337890625,0.16792152153439818,-0.026100948201119897,2.6143641679942604
1772697845470170400,1.50017041015625,0.7176473345845937,-0.009886310981214046,2.3858307221740485
1772697845480218400,1.51021826171875,1.2584364655286073,0.018190905728936193,2.4524662175983187
1772697845490267400,1.520267333984375,1.5862912863224743,-0.07842296385169029,2.4277508785367012
1772697845500316400,1.53031640625,1.604865638411045,-0.3462105616956949,1.7999661857068538
1772697845510364400,1.540364501953125,1.4346265606492756,-0.842988116955757,0.8162000632733106
1772697845520413400,1.550413330078125,1.1788543947696686,-1.2462927310094236,-0.24288988795280456
1772697845530462200,1.560462158203125,0.7227654082506895,-1.360874511218071,-1.130910155811906
1772697845540510500,1.570510498046875,0.05527063632309436,-1.3125155539795756,-1.8748358409911392
1772697845550559200,1.580559326171875,-0.4612409624546766,-1.0942720315054058,-2.367858427631855
1772697845560608500,1.5906083984375,-0.520817771539092,-0.7454980490624904,-2.332885313928127
1772697845570656300,1.60065625,-0.4348976933976635,-0.25151275486946106,-1.8594792819052934
1772697845580705300,1.610705322265625,-0.5859252902111038,0.32516777366697786,-1.307260994452238
1772697845590754300,1.62075439453125,-0.864350053936243,0.8306500289082527,-0.7555506565213203
1772697845600802300,1.63080224609375,-1.1559814687043428,1.1862979887738823,-0.2537497201412916
1772697845610851300,1.640851318359375,-1.1881482928156852,1.2274509601563215,0.06653086600601672
1772697845620900400,1.650900390625,-0.9562988543152808,1.0759957855805753,0.11513386113345622
1772697845630948400,1.6609482421875,-0.6287544146448374,0.8726040875405072,0.010881459498405455
1772697845640997400,1.670997314453125,-0.1558592547535896,0.6352233183979987,-0.09925240139067172
1772697845651046400,1.68104638671875,0.3677695190856233,0.45681613174974917,-0.1953828713685274
1772697845661094100,1.69109423828125,0.7565157752264291,0.38537674317508935,-0.2995920183837414
1772697845671143200,1.70114306640625,0.9407599243998527,0.30076719964295623,-0.28652210893034935
1772697845681192400,1.7111923828125,1.0468915639102458,0.06421762062758207,-0.3650859425574541
1772697845691240200,1.721240234375,1.169049040070176,-0.16190876405090093,-0.4212596652001142
1772697845701289500,1.73128955078125,1.3738660947382448,-0.2724740020945668,-0.3983779713064432
1772697845711338200,1.741338134765625,1.305791506421566,-0.2698877849936485,-0.2297550965696573
1772697845721386200,1.75138623046875,1.114445343223214,-0.15852613587528466,-0.13439444192051886
1772697845731435300,1.761435302734375,0.9863391877919435,-0.11209960800409316,-0.19494623351693152
1772697845741484300,1.771484375,0.9563269113659858,-0.09717530285567044,-0.31324411163926125
1772697845751532300,1.7815322265625,0.9907745398908853,0.020562018774449825,-0.4478694397062063
1772697845761581000,1.7915810546875,1.0275205084860324,0.1678445838406682,-0.5150181453496218
1772697845771630300,1.80163037109375,1.0782423954635858,0.39148178205192086,-0.4583423184037208
1772697845781678000,1.811677978515625,1.0853449209451675,0.6815136526688933,-0.19959084445238112
1772697845791727400,1.821727294921875,1.033198554122448,0.9496411499917506,0.11088029534220695
1772697845801776400,1.8317763671875,0.8183949429690838,1.214072423145175,0.33903204836845396
1772697845811824400,1.841824462890625,0.3874275382250547,1.377937289699912,0.486755342939496
1772697845821873200,1.851873046875,-0.07133154428601264,1.351291859358549,0.5900111347526311
1772697845831922200,1.861922119140625,-0.3986643870323896,1.0986480546325446,0.5491425332695246
1772697845841970200,1.87197021484375,-0.540174798437953,0.8288669448837638,0.475104652634263
1772697845852019200,1.882019287109375,-0.64516135956645,0.5760056980147957,0.41744624439179895
1772697845862068500,1.892068359375,-0.7273129885524511,0.4027762062653899,0.36579321404397486
1772697845872116200,1.9021162109375,-0.7794581863313913,0.29830986961871386,0.38409693249762056
1772697845882165200,1.912165283203125,-0.747912124466896,0.2588312611892819,0.2531283733725548
1772697845892214300,1.92221435546875,-0.6099070908337831,0.3210065623342991,0.17170973483622073
1772697845902262300,1.93226220703125,-0.36846393109057096,0.3926575478330254,0.14018588480353356
1772697845912311300,1.942311279296875,-0.07983984491229057,0.5181967753857374,-0.017436287969350813
1772697845922360000,1.952360107421875,0.17367719898428766,0.6478393466040492,-0.2181575977563858
1772697845932408300,1.962408203125,0.4092015631377697,0.7242001172289252,-0.45029403650462624
1772697845942457000,1.97245703125,0.6173983233720064,0.7225371524527668,-0.6446341208219528
1772697845952506400,1.98250634765625,0.739939245891571,0.7341340667441487,-0.7327835289180278
1772697845962554000,1.99255419921875,0.7512339623659848,0.6098132750704884,-0.7910258745282888
1772697845972603100,2.00260302734375,0.7470973009526729,0.41927170625329013,-0.697004944050312
1772697845982652200,2.012652099609375,0.6726783120453357,0.2673936300903559,-0.5734603974461555
1772697845992700200,2.0227001953125,0.5484206852683797,0.11309797139167785,-0.46751872754991053
1772697846002749200,2.032749267578125,0.3784305407663807,0.028200843089818954,-0.30728608001768587
1772697846012798000,2.0427978515625,0.20261340714395046,-0.04784983867257833,-0.11292203030288218
1772697846022846200,2.05284619140625,0.04131988891456276,-0.08087211056947707,0.039808278775215145
1772697846032895000,2.06289501953125,-0.13863335813190789,-0.17357845131754873,0.19427754047513007
1772697846042944300,2.0729443359375,-0.26274083584845065,-0.21168986304700374,0.2076695214897394
1772697846052992000,2.082991943359375,-0.34418691038098187,-0.28564737192243334,0.22052958758473395
1772697846063041300,2.093041259765625,-0.3999684188356623,-0.3705298871770501,0.1427846691250801
1772697846073090000,2.103090087890625,-0.4519920725941658,-0.4767933363735676,0.06056406655609607
1772697846083138300,2.11313818359375,-0.5137298591047526,-0.5354597526147962,-0.010675123271346091
1772697846093187000,2.12318701171875,-0.49481699577681715,-0.5798629579648376,-0.07495908713340758
1772697846103236000,2.133236083984375,-0.4962765834679827,-0.5284007740139961,-0.17878887944221494
1772697846113284000,2.1432841796875,-0.5114835049500689,-0.48323505985885856,-0.31623160301744935
1772697846123333000,2.1533330078125,-0.437377235253714,-0.48152357976585625,-0.3665022390961647
1772697846133382100,2.163382080078125,-0.4073281704813242,-0.4582891269117593,-0.34339959592819214
1772697846143430100,2.17343017578125,-0.46717444415688514,-0.4120478924795985,-0.4063350677907467
1772697846153479200,2.183479248046875,-0.4985357240390032,-0.40891134801954027,-0.5124573549509048
1772697846163528200,2.193528076171875,-0.5928302838265895,-0.4171723958864808,-0.6388286494135856
1772697846173576200,2.203576171875,-0.7452520384121686,-0.37778555739372965,-0.7158996141344308
1772697846183625200,2.213625244140625,-0.7368401108324527,-0.43952363616526124,-0.7077209838539361
1772697846193674000,2.223674072265625,-0.7121055556137115,-0.5023983177512884,-0.601675269061327
1772697846203722200,2.23372216796875,-0.895821881520748,-0.577696719841659,-0.42641690183281894
1772697846213771000,2.24377099609375,-1.1605471691846847,-0.6623746524348855,-0.29711247652769085
1772697846223820300,2.2538203125,-1.462322961348295,-0.6344941273406147,-0.21696458857953546
1772697846233868000,2.263867919921875,-1.7088924145966766,-0.4657894195392728,-0.21190438258051872
1772697846243917300,2.273917236328125,-1.8937632443010806,-0.3999836529374122,-0.05240589454174041
1772697846253966000,2.283966064453125,-2.0953455548316238,-0.3348965559989214,-0.002884615525603294
1772697846264014300,2.294014404296875,-2.250006539711356,-0.17250176199674605,0.03749707922339439
1772697846274063000,2.30406298828125,-2.2741987316817043,-0.11380056670308113,0.18899521615803241
1772697846284112100,2.314112060546875,-2.1868249841332434,-0.13854279377162457,0.4685568384259939
1772697846294160100,2.32416015625,-2.0316087034583092,-0.14347615852057932,0.7436316706687212
1772697846304209200,2.334209228515625,-1.8154928406625985,-0.13927315387278794,0.9324795873105526
1772697846314258200,2.344258056640625,-1.4689543621867893,-0.10537029974907636,1.0727578265726565
1772697846324306200,2.35430615234375,-0.9995927101839334,-0.003994622594118118,0.9766244339853525
1772697846334355200,2.364355224609375,-0.635223391463235,-0.013409516671299934,0.7285796474874019
1772697846344404200,2.374404296875,-0.38739948117434975,0.06341594885587692,0.3811947813153267
1772697846354452200,2.3844521484375,-0.3050368397861719,0.1300005908757448,0.17209610380530357
1772697846364501200,2.394501220703125,-0.3834854495357722,0.1908475660264492,0.06967208664119243
1772697846374550000,2.404550048828125,-0.46093343087546523,0.29876433538794517,0.3575958790630102
1772697846384598300,2.414598388671875,-0.6176818164885044,0.7983169083192944,1.0369909321427344
1772697846394647000,2.42464697265625,-1.029146429187432,1.4413555766433477,1.981483028808236
1772697846404696300,2.4346962890625,-1.3058400217384099,1.7307725302323698,2.5331214705467224
1772697846414744000,2.444744140625,-1.1802203493606298,1.7256307834297417,2.145985608744621
1772697846424793300,2.45479345703125,-0.7534294265836476,1.5645280750647186,0.989171196347475
1772697846434842000,2.464842041015625,-0.2050637229055166,1.376137254540622,0.20909166324734688
1772697846444890400,2.474890380859375,0.2221224097341299,1.198642798823118,-0.25695056200921534
1772697846454939100,2.484939208984375,0.5283733014851808,0.94457889816612,-0.5160971727579832
1772697846464988200,2.49498828125,0.6490964339930564,0.6294418123871087,-0.7460393163323402
1772697846475036200,2.5050361328125,0.5704566125202923,0.1979427849844098,-0.8084113090932369
1772697846485085200,2.515085205078125,0.387584628482908,-0.18742109870910642,-0.8681617211788892
1772697846495134200,2.52513427734375,0.18591420127749442,-0.37672494242489335,-0.9281751681149005
1772697846505183200,2.535183349609375,0.048490913055092094,-0.15312398457080126,-1.1653893485188485
1772697846515231200,2.545231201171875,0.10494330650866031,0.5310384290412068,-1.3049416115939616
1772697846525280300,2.5552802734375,0.4190441811077297,1.203719663695991,-1.1136351958841084
1772697846535328300,2.565328369140625,0.790075295805186,1.831573622369766,-0.7820750908315182
1772697846545377300,2.575377197265625,0.9680641839761286,2.2025728806242344,-0.41506022603809833
1772697846555426000,2.585426025390625,0.8931231439560652,2.02104142447561,0.018818682238459585
1772697846565475300,2.595475341796875,0.4697843343943357,1.1679767346635461,0.763867233967781
1772697846575523000,2.605523193359375,-0.18683664988465606,0.2762719330728054,1.0776140344321727
1772697846585572400,2.615572265625,-0.6409568936139345,-0.18711130210757254,0.9482248534530401
1772697846595621000,2.62562109375,-0.5531996997058392,-0.2769008786261081,0.3568675647884607
1772697846605669400,2.63566943359375,0.28709954349212347,0.08743921400010585,-0.5025286661326885
1772697846615718100,2.64571826171875,1.1849439438164233,0.4980865920320153,-1.098117308756709
1772697846625767200,2.65576708984375,1.6871733347415923,0.7017804878890513,-1.501238675197959
1772697846635815200,2.665815185546875,2.015375361537933,0.868738352023065,-1.7178689172565935
1772697846645864200,2.6758642578125,2.146485959482193,0.8996700813814997,-1.5995570106089114
1772697846655913200,2.685913330078125,2.0253262621879577,0.6451482078239321,-1.214083529061079
1772697846665961200,2.695961181640625,1.7332979570567606,0.2738566886246204,-0.8495429454267025
1772697846676010200,2.70601025390625,1.5578870296150444,0.07039192534834146,-0.733542238330841
1772697846686059300,2.716059326171875,1.4766788189589977,-0.0032379590079188343,-0.7122153726637364
1772697846696107300,2.726107177734375,1.4632880069881677,0.0494961445748806,-0.6866226662456989
1772697846706156300,2.73615625,1.6440712751179933,0.0698021427616477,-0.6331804143935441
1772697846716205000,2.746205078125,1.704011072295904,0.11318711097985505,-0.4862929861247539
1772697846726253300,2.75625341796875,1.5955471904456615,0.20965543460994956,-0.2544686820656061
1772697846736302000,2.766302001953125,1.4139268869698047,0.28498072470724584,0.06939969944059848
1772697846746351400,2.776351318359375,1.0907400579869746,0.3691898707449436,0.421418655154109
1772697846756399000,2.786399169921875,0.7109194876343011,0.431010367102921,0.7333411628007889
1772697846766448400,2.796448486328125,0.3148836955398321,0.4737696046382189,0.8190373325258493
1772697846776497200,2.8064970703125,-0.0768102314254269,0.4301975894153118,0.7414391290605068
1772697846786545200,2.816545166015625,-0.3941291182229295,0.4264885057643056,0.6057283438444138
1772697846796594200,2.82659423828125,-0.4921008321532979,0.46575201013833284,0.5443260728985071
1772697846806643200,2.836643310546875,-0.49460839452743527,0.5613529032841325,0.46469431777894493
1772697846816691200,2.846691162109375,-0.47943069913983344,0.6818903770267963,0.42721945038735865
1772697846826740200,2.856740234375,-0.4298135950664058,0.721925158034265,0.2413017419785261
1772697846836789200,2.866789306640625,-0.3155670016288757,0.7437713714003562,0.08945815260708331
1772697846846837200,2.876837158203125,-0.1590495386948809,0.7154132919222116,-0.2019967365503311
1772697846856886300,2.88688623046875,0.0040139483490958805,0.5807365259289741,-0.6387766269654035
1772697846866935300,2.896935302734375,0.28527477575037624,0.3552466855883598,-0.9601081834703683
1772697846876983000,2.906983154296875,0.5240823262929916,0.10646452472656964,-1.0935171214848756
1772697846887032300,2.9170322265625,0.6931307329654693,-0.11348550940454005,-1.0968313605993985
1772697846897081000,2.9270810546875,0.7996639390140772,-0.2159548270151019,-1.0423732097029685
1772697846907129300,2.93712939453125,0.8643436241954564,-0.20821195780336857,-0.9199281487733125
1772697846917178000,2.94717822265625,0.9024065206080675,-0.1079568091109395,-0.7683797429561614
1772697846927227100,2.95722705078125,0.8931763354480267,-0.09929770183712243,-0.5887737019121646
1772697846937275100,2.967275146484375,0.8197311600089072,-0.21561434301435947,-0.3815793967187404
1772697846947324200,2.97732421875,0.8029378461182117,-0.22892624453008173,-0.2558493227690458
1772697846957373200,2.987373291015625,0.8379571370512247,-0.18027444182485342,-0.13807692982554434
1772697846967421200,2.997421142578125,0.8191033834993838,-0.254666542725265,0.05167991835474968
1772697846977470200,3.00747021484375,0.708840343272686,-0.332327290032804,0.056821957418322556
1772697846987519200,3.017519287109375,0.5699696327209473,-0.2844663454443216,0.014113865548372267
1772697846997567200,3.027567138671875,0.48696284821033475,-0.3133554630592465,0.10959259361922741
1772697847007616300,3.0376162109375,0.37609073617458344,-0.2904860441252589,0.21835575067698954
1772697847017665000,3.0476650390625,0.28273206899762154,-0.19085487255007028,0.27268822936713694
1772697847027713000,3.057713134765625,0.13822773647308348,-0.225471720162034,0.26997721684277054
1772697847037762000,3.067761962890625,0.02277413958268007,-0.22878917414695024,0.23831541964411734
1772697847047811300,3.077811279296875,-0.11733809317946434,-0.19732026917189358,0.11060206292271614
1772697847057859000,3.087859130859375,-0.2094564049065113,-0.09974193847328423,-0.01349251877963543
1772697847067908400,3.097908447265625,-0.25226795715093614,0.06603431466072797,-0.02185702702105045
1772697847077957000,3.10795703125,-0.29436873077750203,0.17135609909296035,-0.019092823004722596
1772697847088005000,3.118005126953125,-0.40506314815878863,0.2548722944304347,-0.05867664537429809
1772697847098054100,3.12805419921875,-0.5476724607169627,0.3031020723313093,-0.12307459100484848
1772697847108103200,3.138103271484375,-0.7034463752746581,0.32482144444733857,-0.138967156663537
1772697847118151200,3.148151123046875,-0.7922387574493884,0.3091366763204336,-0.1559820043504238
1772697847128200200,3.1582001953125,-0.8714905733406543,0.2715942966505885,-0.15318682067394257
1772697847138249200,3.168249267578125,-0.9066647625744342,0.18182810100764035,-0.18975100296139716
1772697847148297000,3.178296875,-0.8863713316082954,0.034302959357202054,-0.19559505281448364
1772697847158346200,3.18834619140625,-0.8187491632342339,-0.13407529296874998,-0.23248189118504523
1772697847168395300,3.198395263671875,-0.7835270432054996,-0.2084276463806629,-0.2514887894719839
1772697847178443300,3.208443359375,-0.7163736613869667,-0.23839842175245285,-0.21282383551299572
1772697847188492000,3.218491943359375,-0.6821171715199947,-0.28347645762413737,-0.1619721846759319
1772697847198541000,3.228541015625,-0.6878185980319976,-0.372038830435276,-0.12319032633900642
1772697847208589000,3.238589111328125,-0.7059551432251929,-0.4369365422815084,-0.08924071046411991
1772697847218638000,3.24863818359375,-0.7143325109481811,-0.46190644062608477,-0.06622925271093845
1772697847228687400,3.258687255859375,-0.7490601254582404,-0.4881397830352187,-0.08606266494989395
1772697847238736100,3.268736083984375,-0.773375067025423,-0.4984019415915012,-0.06877835267186165
1772697847248784100,3.2787841796875,-0.9179097946882248,-0.4325394763663411,-0.0693424162954092
1772697847258833200,3.288833251953125,-1.057941365712881,-0.3388479239732027,-0.04088555261790752
1772697847268881200,3.298881103515625,-1.205571721303463,-0.2265896182760596,-0.002068038445711136
1772697847278930200,3.30893017578125,-1.3327905725061893,-0.14373773206621407,0.09665127898156642
1772697847288979200,3.318979248046875,-1.41732997341156,-0.1761401184991002,0.17277999441623687
1772697847299027200,3.329027099609375,-1.3935598062455654,-0.2705632000371814,0.21320435926318168
1772697847309076000,3.339075927734375,-1.3155465922385454,-0.39800358503609895,0.2563286307185888
1772697847319125200,3.349125244140625,-1.2186749485045671,-0.5238996632024645,0.21229484320282935
1772697847329174300,3.35917431640625,-1.0939075821071862,-0.6652633596137165,0.15353519572019575
1772697847339222300,3.36922216796875,-0.9198305336177348,-0.7257561144992709,0.17476386170983313
1772697847349271000,3.37927099609375,-0.83278119571805,-0.6989628001198173,0.0941296515494585
1772697847359319300,3.3893193359375,-0.8289584225594997,-0.627749913777411,0.164566292822361
1772697847369368000,3.3993681640625,-0.8546949213624,-0.49558922225832935,0.2417114918231964
1772697847379417000,3.4094169921875,-0.9476029221624136,-0.31876170601695775,0.23307693446874617
1772697847389466400,3.41946630859375,-1.101071482387185,-0.2015849408790469,0.31085107902288434
1772697847399514000,3.42951416015625,-1.239231414321065,-0.12650339640974997,0.3407435284614563
1772697847409563100,3.439563232421875,-1.2789777337759733,-0.05530132372230291,0.30442776797711846
1772697847419612200,3.449612060546875,-1.2533189763844013,-0.07429039409160614,0.351779301738739
1772697847429660200,3.45966015625,-1.220592180302739,-0.0974909446761012,0.4661439320653677
1772697847439709200,3.469709228515625,-1.2431564788103102,-0.13891893360763788,0.5309966357260942
1772697847449758200,3.47975830078125,-1.2883581410616636,-0.1918999976888299,0.5075789352595805
1772697847459806200,3.48980615234375,-1.0893389590173959,-0.37609599687159057,0.7015683064430952
1772697847469855000,3.49985498046875,-0.5256161847967654,-0.5254121135920286,1.3354168293565511
1772697847479904300,3.509904296875,0.013503624695539474,-0.35133740319013596,2.332820431998372
1772697847489952000,3.519951904296875,0.28582886596918106,0.049990065571665764,3.4567993272423743
1772697847500001300,3.530001220703125,0.46202305274307726,0.3176730339974165,3.9840731430530547
1772697847510050000,3.540050048828125,0.7486229030847549,0.13552929116934537,4.033289886164665
1772697847520098300,3.550098388671875,1.187082124888897,-0.30303368327021596,3.853492121940851
1772697847530147000,3.56014697265625,1.7108008785665034,-0.7244412325084209,3.114308078330755
1772697847540196000,3.570196044921875,2.2154817542970178,-1.167087092347443,1.8850953691989183
1772697847550244000,3.580244140625,2.289335510537028,-1.571041694742441,0.30646073510944843
1772697847560293000,3.590293212890625,1.6748247253000734,-1.6405267343789338,-1.3482628669261931
1772697847570342100,3.600342041015625,0.5653700299710035,-1.6005749554798006,-2.5000597434222698
1772697847580390100,3.61039013671875,-0.44995735189616676,-1.4671712781623005,-2.954376459571719
1772697847590439200,3.620439208984375,-0.9276005830973386,-1.0220151890680194,-3.011210691949725
1772697847600488200,3.63048828125,-0.9079460345566273,-0.6418643638476729,-2.570731362494826
1772697847610536200,3.6405361328125,-0.298318929708004,-0.27059768682867286,-1.7472008102029561
1772697847620585200,3.650585205078125,0.3002700637757778,0.11799568030536174,-0.7454945419311523
1772697847630634000,3.660634033203125,0.5064894229898229,0.4667901210144162,0.21744097391963005
1772697847640682200,3.67068212890625,0.2789882062941789,0.9012728404030204,0.7715098576754331
1772697847650731000,3.68073095703125,-0.31711770166959613,1.1856623212188482,0.5810287868738174
1772697847660780300,3.6907802734375,-0.7560556834340095,1.0215247752025722,0.20842121663987637
1772697847670828000,3.700828125,-0.6469657786399126,0.5712538273125887,-0.20612287656962872
1772697847680877300,3.710877197265625,-0.0822602769922465,0.18926351170539854,-0.3655266720622778
1772697847690926000,3.720926025390625,0.6382249113667756,-0.12284107450991869,-0.3974842373371124
1772697847700974300,3.730974365234375,1.2764011612862347,-0.36159196296185253,-0.5307008676499128
1772697847711023000,3.741023193359375,1.6840227617561816,-0.5043289935529232,-0.36111703892648217
1772697847721072000,3.751072021484375,2.0195488478302956,-0.7587132122054696,0.09695990653932093
1772697847731120000,3.7611201171875,2.315949376696348,-1.0028168598622083,0.3446656703412533
1772697847741169200,3.771169189453125,2.280458376598358,-1.1097963483735918,0.4429121095597744
1772697847751218200,3.78121826171875,1.8553186550945042,-1.0818109016001225,0.5728226840645074
1772697847761266200,3.79126611328125,1.27734282605052,-0.9334735667839645,0.6569640255630016
1772697847771315200,3.801315185546875,0.9069605306506157,-0.7460510067701339,0.7045476145148277
1772697847781364200,3.8113642578125,0.8384446283072232,-0.5662111569702625,0.7748100682646035
1772697847791412200,3.821412109375,0.9479150568515062,-0.36786212927252054,0.8232710245728492
1772697847801461200,3.831461181640625,0.9715946231245994,-0.17774375430345535,0.8619044143497944
1772697847811510000,3.841510009765625,0.8454097911447286,-0.09243804520070552,0.7419821498960256
1772697847821558300,3.851558349609375,0.6807873842209577,-0.11214549297243356,0.49994274129271504
1772697847831607000,3.86160693359375,0.5052653976202011,-0.1233306115925312,0.21927929526269435
1772697847841656300,3.87165625,0.40157647508680816,-0.043697102907299994,-0.06636544631123542
1772697847851704000,3.8817041015625,0.41857904781401156,0.1573003934726119,-0.2768997095823288
1772697847861753300,3.89175341796875,0.42233405296597626,0.37097178572565315,-0.5373439589262008
1772697847871802000,3.901802001953125,0.3682225235501304,0.5806774892181158,-0.7793886282265186
1772697847881850400,3.911850341796875,0.36207507030367847,0.8024497703403234,-0.8782166667252779
1772697847891899100,3.921899169921875,0.41109081095047295,0.9355500807970761,-0.879210353937745
1772697847901948200,3.9319482421875,0.5101923326283693,0.9341314461708068,-0.7267915950268506
1772697847911996200,3.94199609375,0.627851839781925,0.8993038784176111,-0.41492812409102914
1772697847922045200,3.952045166015625,0.627134777553752,0.9024795858442782,-0.27908874405920503
1772697847932094200,3.96209423828125,0.4890742143411189,0.9397115843906998,-0.17427987758517263
1772697847942142200,3.97214208984375,0.26869777149148283,0.9034078066051006,0.0019248305827379226
1772697847952191200,3.982191162109375,0.03961772463917732,0.853480869397521,0.08453414020836353
1772697847962240500,3.992240478515625,-0.05932897180318832,0.8225707673490047,0.17238427309691906
1772697847972288300,4.002288330078125,-0.12233926246762275,0.7716840451985597,0.06646013885736465
1772697847982337500,4.012337646484375,-0.17411723436936735,0.6556289775669575,-0.0971931307733059
1772697847992386300,4.02238623046875,-0.12255071326121687,0.4306619920566678,-0.12629472209513187
1772697848002434600,4.0324345703125,0.0066284782290458675,0.24030367085188625,-0.18358488154709338
1772697848012483300,4.0424833984375,0.1640337933808565,0.14381167408525944,-0.379198639062047
1772697848022532400,4.052532470703125,0.3445645480543375,0.025479016910493372,-0.5280646739274263
1772697848032580400,4.062580322265625,0.49100247898995875,-0.055257484580576416,-0.5208592725932598
1772697848042629400,4.07262939453125,0.640281624700874,-0.2305348487704992,-0.4404185391783714
1772697848052678400,4.082678466796875,0.730830641284585,-0.3779012927278876,-0.3235135767191648
1772697848062727400,4.0927275390625,0.7348848851114511,-0.42462446545809507,-0.17517828772962094
1772697848072775400,4.102775390625,0.7331167063951491,-0.4618269456490874,-0.06971651030480862
1772697848082824400,4.112824462890625,0.6883231865532696,-0.41587680311799047,0.00891103620827198
1772697848092873200,4.122873291015625,0.6181259069941938,-0.40203853964060543,0.01872574325799942
1772697848102921500,4.13292138671875,0.5397224515605717,-0.3620698096066713,-0.03095335666835308
1772697848112970200,4.14297021484375,0.5641489637434483,-0.37884938723295924,-0.16529811422824858
1772697848123019500,4.15301953125,0.456098338869214,-0.3985460213497281,-0.2612304312855005
1772697848133067300,4.1630673828125,0.3368003437936306,-0.38869478168189525,-0.41190030070245265
1772697848143116500,4.173116455078125,0.21666896663382648,-0.2780234529152512,-0.592402413803339
1772697848153165300,4.183165283203125,0.05856091004014015,-0.10972469556629658,-0.6830611743718386
1772697848163213600,4.193213623046875,-0.11919321952685713,0.07207067221552133,-0.7264660163342952
1772697848173262300,4.203262451171875,-0.29833003562390803,0.15006722734868524,-0.6442904219508171
1772697848183311400,4.213311279296875,-0.4523743499100208,0.022680033841729164,-0.5210930813491345
1772697848193359400,4.223359375,-0.5584447607524693,-0.12568418898135422,-0.4390151021212339
1772697848203408400,4.233408447265625,-0.668031947544217,-0.3575380113959312,-0.3667968381285667
1772697848213457400,4.24345751953125,-0.8222771912299096,-0.5728796749487519,-0.22458558497726916
1772697848223505400,4.25350537109375,-1.046757123875618,-0.6137298639923334,-0.18015958327353
1772697848233554400,4.263554443359375,-1.2645574326269329,-0.5447124418675899,-0.09623919104933738
1772697848243603500,4.273603515625,-1.4783493825197218,-0.5313333203345537,-0.033491935235261915
1772697848253651500,4.2836513671875,-1.6482028219647704,-0.5535875299796462,-0.11533844379484653
1772697848263700500,4.293700439453125,-1.8295218044064938,-0.585324730502069,-0.04912964935004711
1772697848273749200,4.303749267578125,-1.8718847361005841,-0.6150786482527851,0.05837269399166107
1772697848283797500,4.313797607421875,-1.786068447127193,-0.5679249751508235,0.18627426676154135
1772697848293846300,4.32384619140625,-1.6488960649259388,-0.5529208827644586,0.3489116373479366
1772697848303895600,4.3338955078125,-1.500603446034342,-0.5840516418263316,0.4178320288389921
1772697848313943300,4.343943359375,-1.3715946426749228,-0.6614797494217753,0.4046083901286125
1772697848323992600,4.35399267578125,-1.204391717738658,-0.5507523065537214,0.3303285174310207
1772697848334041300,4.364041259765625,-0.9853962078534066,-0.4577878993913531,0.23502397688329218
1772697848344089600,4.374089599609375,-0.8323110939882695,-0.31319968797564507,0.1458604233086109
1772697848354138400,4.384138427734375,-0.765541889181733,-0.07367781515121459,0.12476444378793239
1772697848364187400,4.3941875,-0.806930130624771,0.14858692566305398,0.13120470596849917
1772697848374235400,4.4042353515625,-0.937754897364974,0.37223493752926584,0.09518354451656341
1772697848384284400,4.414284423828125,-1.048495930366963,0.6243363059416412,-0.009493804532289504
1772697848394333400,4.42433349609375,-1.0598455918990075,0.8993816198289394,-0.25936931358873844
1772697848404381400,4.43438134765625,-0.8677519713342189,1.3929998342752457,-0.3655640814632177
1772697848414430500,4.444430419921875,-0.5471535514093935,2.057002380172908,0.02601765383183956
1772697848424479500,4.4544794921875,-0.5394144815899431,2.5880630210459232,1.1507160955220461
1772697848434527500,4.464527587890625,-0.7463451674111187,2.866056078822911,2.17192961281836
1772697848444576500,4.474576416015625,-0.7230697980247438,2.9399405224621296,2.270598076841235
1772697848454625300,4.484625244140625,-0.4528986660450697,2.7334277697920797,1.849813627937436
1772697848464673500,4.494673583984375,-0.056784401886910196,2.365612402270734,1.1211761127829551
1772697848474722300,4.504722412109375,0.33423502335026856,2.0996450055912135,0.2908323733448982
1772697848484771600,4.514771484375,0.7747878564327955,1.9044687627106904,-0.6397270595580339
1772697848494819300,4.5248193359375,0.8944161063760518,1.2607806905671954,-1.370161979523301
1772697848504868600,4.53486865234375,0.43503158544301984,0.17014029356241225,-1.6064853485673665
1772697848514917400,4.54491748046875,-0.36823359293341634,-0.7492915961265564,-1.5140765294611453
1772697848524965600,4.554965576171875,-0.9174649735301732,-0.9955676193863153,-1.4717846171766518
1772697848535014400,4.565014404296875,-0.9403659566462039,-0.7293810269981622,-0.9776724817335605
1772697848545063400,4.5750634765625,-0.6990582233183086,-0.04023322618901729,0.02853518961071968
1772697848555111400,4.585111328125,-0.602058569290489,0.6004942425832152,0.8527040398061275
1772697848565160400,4.595160400390625,-0.6917306569091975,0.7715405450746416,1.3140578149855136
1772697848575209500,4.60520947265625,-0.777258045938611,0.48209553443491454,1.3236837214648722
1772697848585258500,4.615258544921875,-0.5536071114629507,0.19926409671604634,0.742395406872034
1772697848595306500,4.625306396484375,-0.0424846583776176,-0.11309329521656036,0.004796002104878425
1772697848605355500,4.63535546875,0.5683230345577002,-0.30345336998701095,-0.7023030504584312
1772697848615404300,4.645404296875,1.1428713733710347,-0.2505056236535311,-1.207559680250287
1772697848625452500,4.65545263671875,1.5728461138159036,-0.051748015154898165,-1.48394793317914
1772697848635501300,4.665501220703125,1.836652533069253,0.16124650074988603,-1.5269143837243317
1772697848645550600,4.675550537109375,1.8520675443440675,0.2372106732726097,-1.338395552906394
1772697848655598300,4.685598388671875,1.6753661387003957,0.1734957414701581,-1.1650795519173145
1772697848665647600,4.695647705078125,1.4781687652558086,0.052123862729966636,-0.957145242011547
1772697848675696400,4.7056962890625,1.3949217422485352,-0.09922405207902192,-0.7065735673844814
1772697848685744600,4.71574462890625,1.3988824625730514,-0.23748393725603817,-0.46509997597038744
1772697848695793400,4.72579345703125,1.366089030995965,-0.3335845966175198,-0.30231062969267364
1772697848705842400,4.735842529296875,1.376805801451951,-0.3223714209467172,-0.19030863684415816
1772697848715890400,4.745890380859375,1.467784149363637,-0.20372253742963076,-0.045241994261741636
1772697848725939500,4.755939453125,1.604101083779335,-0.02109159560650587,0.11198387266993522
1772697848735988500,4.765988525390625,1.7458166623681783,0.036620296388864514,0.2641442729055881
1772697848746036500,4.776036376953125,1.7866876019388436,-0.009203589414060116,0.3299818959504366
1772697848756085500,4.78608544921875,1.7330051115900278,-0.13553338282257318,0.2927431754022837
1772697848766134500,4.796134521484375,1.5691249013356863,-0.3090712098687887,0.14056173237860203
1772697848776182500,4.8061826171875,1.4046651376277208,-0.34858167474120855,0.07441255916655064
1772697848786231600,4.8162314453125,1.2640776862859726,-0.24127777658104896,0.10063304209411143
1772697848796280300,4.8262802734375,1.1498270377278328,-0.060714873203635215,0.15908347749710083
1772697848806328600,4.83632861328125,0.982216554903984,0.09581073650419711,0.19934183812737463
1772697848816377300,4.84637744140625,0.6515180351167917,0.23571517401784656,0.2034486889243126
1772697848826426600,4.856426513671875,0.35182438298948104,0.38837943212240933,0.2416770050317049
1772697848836474400,4.866474365234375,0.13377777132689952,0.5113467633605003,0.2779536025494337
1772697848846523600,4.876523681640625,0.030808395239710806,0.6014388299569488,0.30032910048663614
1772697848856572400,4.886572509765625,-0.05707395941801369,0.6623427959918975,0.26313363455832
1772697848866620400,4.896620361328125,-0.06042553486824035,0.7545546312212944,0.06453530827462672
1772697848876669400,4.90666943359375,0.020202245551347732,0.7914397160261869,-0.16572715329527854
1772697848886718500,4.916718505859375,0.08639284675233065,0.8200701827049255,-0.45875148372650143
1772697848896766500,4.926766357421875,0.17381167555153368,0.7943103030264377,-0.5943079551637173
1772697848906815500,4.9368154296875,0.16504143605343996,0.6970064053550362,-0.7105629292815924
1772697848916864500,4.946864501953125,0.1044207439392805,0.6094710375040769,-0.7885983551204204
1772697848926912300,4.956912353515625,0.08347560759875923,0.5462152476459742,-0.6308779826700687
1772697848936961500,4.96696142578125,0.01662150098774582,0.5473968586459755,-0.46172202396988865
1772697848947010600,4.977010498046875,-0.12484386569969355,0.5904240994676947,-0.2932242369174957
1772697848957058300,4.987058349609375,-0.23047109935190527,0.5216159361794591,-0.12084990069270134
1772697848967107600,4.997107666015625,-0.22794892393052577,0.2851774163231253,-0.0030465280890464783
1772697848977156600,5.007156494140625,-0.1639186608348973,0.009428045819699764,-0.04365969350636005
1772697848987204600,5.01720458984375,-0.08062896772967651,-0.26768442973047496,-0.04417757990062236
1772697848997253600,5.027253662109375,-0.06393675785958766,-0.44533261470496655,-0.04711597144007683
1772697849007302400,5.037302490234375,-0.11443477295339106,-0.5107824074760079,-0.04390986887514591
1772697849017350400,5.047350341796875,-0.09029285899871028,-0.5099389423891901,0.009178747233748435
1772697849027399400,5.0573994140625,0.00003973835534416139,-0.566551640971005,0.018147651109099387
1772697849037448700,5.06744873046875,0.13456862944364548,-0.6449184907212853,-0.029001638078689572
1772697849047496400,5.077496337890625,0.33421734156310556,-0.6716893010079861,-0.14479074825048446
1772697849057545700,5.087545654296875,0.46627194235920905,-0.6543640721976757,-0.08108546105921267
1772697849067594500,5.097594482421875,0.37825522073209283,-0.6311816417917608,0.02238426576554775
1772697849077643500,5.1076435546875,0.18806231922209263,-0.5986158814907073,-0.04179916033148765
1772697849087691500,5.11769140625,0.046816687099402766,-0.5424263767570257,-0.047287236353754994
1772697849097740500,5.127740478515625,-0.1182587151557207,-0.4518775063037872,-0.06778349641561508
1772697849107789600,5.13778955078125,-0.3273211523085832,-0.3505500522047281,-0.04343582162261009
1772697849117837600,5.147837646484375,-0.5893862808525562,-0.28811025490462777,-0.0070996028721332545
1772697849127886600,5.157886474609375,-0.8766115696161985,-0.239287771807611,-0.01435994926393032
1772697849137935600,5.167935546875,-1.0761533142298458,-0.2126043475434184,0.029689620342850682
1772697849147983600,5.177983642578125,-1.2005822424530983,-0.25659400365650653,0.04209083675444126
1772697849158032600,5.18803271484375,-1.3256886315464973,-0.32939094431996346,0.06759294227957725
1772697849168081400,5.198081298828125,-1.4794892002046107,-0.39274844098687167,0.06036474459171295
1772697849178129400,5.20812939453125,-1.5346633904159068,-0.421390598103404,0.023976503393054006
1772697849188178400,5.218178466796875,-1.4814783281952142,-0.4676341706231236,0.0008908113598823546
1772697849198227700,5.228227783203125,-1.3399223240822553,-0.5056587808519601,0.016752981880307195
1772697849208275500,5.238275390625,-1.1816413951396942,-0.5186249376699328,0.07448971605598927
1772697849218324700,5.24832470703125,-0.9781167183697224,-0.5118395153135061,0.09055354662835598
1772697849228373500,5.25837353515625,-0.7403238612949847,-0.5354381253048778,0.05902618946433067
1772697849238421500,5.26842138671875,-0.5488256858726963,-0.5243105820909142,-0.026131635600328443
1772697849248470500,5.278470458984375,-0.36567221801280975,-0.4643693236082792,-0.013803484424948692
1772697849258519600,5.28851953125,-0.18483754848930983,-0.4208937544971704,0.01084814175069332
1772697849268567600,5.298567626953125,-0.035247254469990726,-0.3639896717533469,-0.05918693298399448
1772697849278616600,5.308616455078125,0.023793548041582107,-0.18048048579096793,-0.11554536454379558
1772697849288665600,5.31866552734375,0.005944587618112564,0.05627367588579654,-0.13702595946788787
1772697849298713300,5.32871337890625,-0.05327796466853469,0.224835760346055,-0.1585743589311838
1772697849308762600,5.3387626953125,-0.214527680288814,0.30070524032264945,-0.022265023300051687
1772697849318811600,5.348811767578125,-0.4413338639250025,0.3722618255361914,0.13755904343128203
1772697849328859600,5.358859619140625,-0.6935667862951755,0.43777650023698805,0.16793080081939696
1772697849338908400,5.368908447265625,-0.8899362575482577,0.44387394032925365,0.2926759553849697
1772697849348957400,5.37895751953125,-1.019764487531781,0.4120359097808599,0.373202613517642
1772697849359005400,5.38900537109375,-1.1481138040691614,0.3107365127325058,0.3219190010040998
1772697849369054500,5.399054443359375,-1.164367604255676,0.24983663835078476,0.2585691031217575
1772697849379103700,5.409103759765625,-1.1843231815695763,-0.0008577858731150627,0.2772656202852726
1772697849389151500,5.4191513671875,-1.2223183465082197,-0.25664105766862627,0.14810615640878677
1772697849399200500,5.429200439453125,-1.2431073789715765,-0.47807870000898833,0.1040069024413824
1772697849409249500,5.43924951171875,-1.3003835098981857,-0.7752136806294322,0.1893710637331009
1772697849419297500,5.449297607421875,-1.3472662571042775,-0.9512626137137412,0.28290041130185123
1772697849429346600,5.4593466796875,-1.3997095610469579,-0.9946507968023419,0.33981238509118555
1772697849439395600,5.4693955078125,-1.5401321772158145,-0.9543144024997949,0.2783972546637058
1772697849449443600,5.479443603515625,-1.658143055090308,-0.8322796759366988,0.22834639881551264
1772697849459492400,5.489492431640625,-1.6873030986011028,-0.7444599381864071,0.3042833910703659
1772697849469541600,5.499541748046875,-1.5121324096560478,-0.6437137911066413,0.4405056329399347
1772697849479589400,5.50958935546875,-0.9360638755381107,-0.5859452004879713,0.9354892905205487
1772697849489638700,5.519638671875,-0.08988770313076674,-0.35068186189085243,2.1655583242207763
1772697849499687400,5.5296875,0.4557278250563889,0.2115869871944189,3.4706402210682628
1772697849509735700,5.539735595703125,0.8719126712102443,0.5285559645757079,4.0137563336551185
1772697849519784400,5.549784423828125,1.2927449778437614,0.07895195616185664,3.3189392550379035
1772697849529833500,5.55983349609375,1.650987338116765,-0.8248743681162595,2.127639804714918
1772697849539881500,5.569881591796875,1.9809002604842185,-1.5178607241749762,1.2432155155211686
1772697849549930500,5.579930419921875,2.4383447532653806,-1.810499270159006,0.7031149513632059
1772697849559979500,5.5899794921875,2.629935831135511,-1.8704653708219527,0.3473305056363344
1772697849570027500,5.600027587890625,2.1952888610959054,-1.6226383187279105,-0.16418460002839563
1772697849580076500,5.61007666015625,1.175742984750867,-0.9610592005848884,-0.7386334239900112
1772697849590125600,5.62012548828125,0.1336684839998372,-0.29099545495212076,-1.261131695961952
1772697849600173600,5.630173583984375,-0.6837029794067144,-0.0035629531785845753,-1.773633474576473
1772697849610222600,5.64022265625,-1.2326245634019375,0.06026537587046623,-2.050191238853335
1772697849620271400,5.650271240234375,-1.2763947315454482,0.10373743785023688,-1.9299878193706272
1772697849630319600,5.660319580078125,-0.824690828242898,0.1909820060610771,-1.4532307233542203
1772697849640368400,5.670368408203125,-0.34112580577731133,0.10311696786433458,-0.7648211736917495
1772697849650417700,5.680417724609375,-0.20305293107237665,0.055035366262495514,-0.0021510405540466305
1772697849660465400,5.69046533203125,-0.16438096285071224,0.2098857362344861,0.5206640422821045
1772697849670514700,5.7005146484375,0.04289868253860622,0.5754410498693585,0.6004144553452729
1772697849680563500,5.7105634765625,0.18204466636776923,0.7860039547130465,0.4762123216152191
1772697849690611700,5.72061181640625,0.2652735691964626,0.7359004918947816,0.31109014847576616
1772697849700660500,5.730660400390625,0.2582482006043196,0.5284782231643795,0.20027473506331442
1772697849710709500,5.74070947265625,0.500004773678258,0.29099750077873465,-0.058413610523939126
1772697849720757500,5.750757568359375,0.8775959044784307,0.13080518525689838,-0.35337446197569367
1772697849730806500,5.760806640625,1.1639461639732123,0.04488017521202564,-0.594341857433319
1772697849740855600,5.77085546875,1.594164211654663,-0.08906155450493097,-0.6041945584058761
1772697849750904600,5.780904541015625,1.9517676895022391,-0.24730185917615888,-0.45120472160875796
1772697849760952600,5.79095263671875,2.160008288878202,-0.27841099092811344,-0.20119360347390175
1772697849771001600,5.801001708984375,2.100277750536799,-0.18213935891389846,-0.007539163333177566
1772697849781050400,5.81105029296875,1.8350790001422166,0.028828619599342343,0.19202830024361608
1772697849791098600,5.8210986328125,1.5609417410105466,0.22215017452389,0.52555882858634
1772697849801147400,5.8311474609375,1.32051736638844,0.2740413975417614,0.8931073618650436
1772697849811196700,5.84119677734375,1.190329143986106,0.20313012449443338,1.1958727495878934
1772697849821244400,5.851244384765625,1.1262018319904803,0.15631635087132453,1.370171331873536
1772697849831293700,5.861293701171875,1.0653665472775697,0.20418051033020018,1.270744158437848
1772697849841342500,5.871342529296875,1.0353700529426335,0.14765519777089356,0.9847411049455403
1772697849851390700,5.881390625,0.9690162970691919,0.055117199327051634,0.6408475880205631
1772697849861439500,5.891439453125,0.7818389439880847,0.05030512287020683,0.29189328057467934
1772697849871488500,5.901488525390625,0.6191624104350805,0.26860183683633804,-0.25997838539779183
1772697849881536500,5.91153662109375,0.39516602352261543,0.4533689139053225,-0.7196791326731443
1772697849891585500,5.92158544921875,0.16300792093183844,0.5132531815037131,-0.8419920916557312
1772697849901634600,5.931634521484375,0.0324468100965023,0.41999271400421856,-0.9515735793590545
1772697849911682600,5.9416826171875,0.07355506555438042,0.32939269788563247,-1.0868763682961464
1772697849921731600,5.951731689453125,0.2760311100542545,0.20591332547217606,-1.1258528724223376
1772697849931780600,5.961780517578125,0.5053934079140424,0.23566695096194742,-1.0454518864959477
1772697849941828600,5.97182861328125,0.6961849329043179,0.31907997818589207,-0.8910387388974428
1772697849951877600,5.981877685546875,0.7877659959495067,0.45899259900599715,-0.782229989132285
1772697849961926400,5.991926513671875,0.8230996865939348,0.5511731623142957,-0.6145540398567915
1772697849971975200,6.00197509765625,0.7602852838277816,0.5806158221587538,-0.6059282503306865
1772697849982024200,6.012024169921875,0.6928000397063792,0.6037196343705058,-0.6079331604123115
1772697849992073000,6.022072998046875,0.6326690308053046,0.626671763151884,-0.49661856530606746
1772697850002121200,6.032121337890625,0.5916863014232366,0.6587418488904834,-0.4717249470680952
1772697850012170000,6.042169921875,0.6038923605889082,0.6952820657804608,-0.5422451749712228
1772697850022219300,6.05221923828125,0.64516135956645,0.6861354672506451,-0.5279430933743715
1772697850032268300,6.062268310546875,0.6741635821670293,0.6146499014467001,-0.3619710254073143
1772697850042316300,6.07231640625,0.5559171419709921,0.546705953772366,-0.15528642330169676
1772697850052365000,6.082364990234375,0.36675533707439895,0.39467560965716836,-0.04422434165179729
1772697850062413300,6.092413330078125,0.20950667378902435,0.1823252368748188,0.08895429473817348
1772697850072462000,6.102462158203125,0.13767072364483027,-0.07834639148414134,0.3049287032365799
1772697850082511000,6.112510986328125,0.10445347716510295,-0.3402306105032563,0.4834294133871793
1772697850092560400,6.122560302734375,0.1290332436809316,-0.6458084252983332,0.7071721177995205
1772697850102608100,6.132608154296875,0.12423077530264853,-0.8214122449636458,0.6967226199775933
1772697850112657200,6.1426572265625,0.031657121023535725,-0.8064110751867294,0.5264999088287353
1772697850122706200,6.1527060546875,-0.025344284614920616,-0.6627575142726302,0.35334172874987124
1772697850132754200,6.162754150390625,-0.07088489649705589,-0.43445290877223014,0.09467734856009483
1772697850142803200,6.17280322265625,-0.08466799572110176,-0.15379004726409912,-0.1818283932685852
1772697850152852000,6.18285205078125,-0.10637231639847158,0.14642448693215845,-0.3186222975462675
1772697850162900200,6.192900146484375,-0.0762169051747769,0.27770021231025455,-0.2544692665874958
1772697850172949000,6.202948974609375,-0.14498897423632442,0.3467813473209739,-0.34190438893437386
1772697850182998300,6.212998291015625,-0.34301490745954216,0.4229679304227233,-0.4123942216992378
1772697850193046000,6.2230458984375,-0.5979803600661456,0.3986588340744376,-0.45580549340248105
1772697850203095300,6.23309521484375,-0.825809603139758,0.3714803197696805,-0.20782032813727855
1772697850213144000,6.24314404296875,-1.0427485458213834,0.31129706922471523,-0.08670271641910075
1772697850223192300,6.2531923828125,-1.034428899635002,0.14659750541150568,0.09009294337928295
1772697850233241000,6.263240966796875,-0.851885270769149,-0.07340864282101392,0.1771224075347185
1772697850243290000,6.2732900390625,-0.5510428139328957,-0.18267068931162356,0.2226794590950012
1772697850253338000,6.283338134765625,-0.4053244294434786,-0.18054595224261283,0.027781156373023985
1772697850263387100,6.29338720703125,-0.2948894667159766,-0.21802169641703367,-0.2555371880799532
1772697850273436200,6.303436279296875,-0.17261099452488124,-0.16975626268088817,-0.3993587990373373
1772697850283484200,6.313484130859375,-0.17255312685780227,-0.05759820248782634,-0.5517430711567402
1772697850293533200,6.323533203125,-0.2930295180629939,0.04852028528004884,-0.6030564942866563
1772697850303582200,6.333582275390625,-0.2969054096482694,0.06645604720413685,-0.5589034643054008
1772697850313630200,6.343630126953125,-0.14664185600988566,0.08422054421454668,-0.36985914830863476
1772697850323679200,6.35367919921875,-0.11685403598956763,0.1546358504384756,-0.30448154399096966
1772697850333728000,6.36372802734375,-0.13717486641928553,0.18039836046546698,-0.2594628370910883
1772697850343776300,6.3737763671875,-0.12691584966816008,0.1801528612717986,-0.18107260646522044
1772697850353825000,6.383824951171875,-0.13720073151290416,0.14031301831454038,-0.18263094182312486
1772697850363874300,6.393874267578125,-0.10832593468427658,0.09726999540179967,-0.24210136792361736
1772697850373923000,6.403923095703125,-0.02410042203366756,0.12448621136844157,-0.2570002463698387
1772697850383971300,6.413971435546875,0.04740253329649567,0.2460509823322296,-0.2551262691915035
1772697850394020000,6.42402001953125,0.15011523120887577,0.3557841534659266,-0.2433668578147888
1772697850404069000,6.434069091796875,0.29528306914344427,0.5311117865383624,-0.2780412808328867
1772697850414117000,6.4441171875,0.5944926640808582,0.8381175883099437,-0.15719956344664096
1772697850424166100,6.454166259765625,0.854033315648511,1.2303908130005001,0.4685165064156055
1772697850434215200,6.464215087890625,0.6197101074457169,1.4304860998436808,1.4101228185117245
1772697850444263200,6.47426318359375,0.06068097093403339,1.3305799107193945,1.6360183170437812
1772697850454312200,6.484312255859375,-0.052607554593682285,1.090978250657022,0.9438958843380212
1772697850464361200,6.494361328125,0.5240146678842604,0.802411484156549,0.14078560426235198
1772697850474409200,6.5044091796875,1.328949094647169,0.6660957187846303,-0.14092705855965615
1772697850484458200,6.514458251953125,1.797142798849195,0.8139525766074657,0.09664251115322113
1772697850494507000,6.524507080078125,1.8112158939957617,0.851828426015377,0.4903413847327232
1772697850504555300,6.53455517578125,1.5548231119997797,0.9239821003392338,0.5554787505537271
1772697850514604000,6.54460400390625,1.2333384107597172,1.0520642903730273,0.36012919693291184
1772697850524653300,6.5546533203125,1.1089701997477561,0.9317971580043435,-0.024723522368073462
1772697850534701000,6.564701171875,1.1557242790728808,0.7616118562564254,-0.6155436354160309
1772697850544750300,6.574750244140625,1.1720961526811122,0.5654363732054829,-1.0074749148011206
1772697850554799000,6.584799072265625,1.21773255308792,0.17532617176771162,-1.3353379189014434
1772697850564847000,6.59484716796875,1.2687984311975538,-0.1511085530951619,-1.4207657930791378
1772697850574896000,6.604896240234375,1.186216447970271,-0.38636516969054935,-1.2287222952663899
1772697850584945200,6.614945068359375,0.8295337382294237,-0.5426046559333801,-0.5069061505645513
1772697850594993200,6.6249931640625,0.19905410722717642,-0.5979696925416589,0.365170113709569
1772697850605042200,6.635042236328125,-0.48172845468819137,-0.44538697524070736,0.6657517276525498
1772697850615091200,6.64509130859375,-0.28284795046225186,-0.2843935724690556,0.33609424135088917
1772697850625139200,6.65513916015625,0.8308749237053096,-0.35726474741250275,0.34974341199696063
1772697850635188200,6.665188232421875,1.4024649972349403,-0.3295417509675026,0.3818646434009075
1772697850645237200,6.6752373046875,1.5222797096610068,-0.2584825938820839,0.0025222119539976117
1772697850655285200,6.68528515625,1.4709914209723471,-0.19580635747760533,-0.318294965288043
1772697850665334300,6.695334228515625,1.2460222435049713,-0.11412380730807781,-0.5042489140540362
1772697850675383000,6.705383056640625,0.8829226524591446,-0.058928282047808166,-0.521675849673152
1772697850685432300,6.715432373046875,0.5527238988876343,0.012908289150893688,-0.27686522279083725
1772697850695480000,6.72547998046875,0.4193248246800154,0.18138298758864402,-0.09362287107110023
1772697850705529000,6.735529052734375,0.4961988785892725,0.5247933971717953,-0.10909925714433193
1772697850715578000,6.745578125,0.7302589788764715,0.6030921501219272,-0.2135474736124277
1772697850725626000,6.755626220703125,0.8282499820291995,0.3777373343378305,-0.27156244020760056
1772697850735675100,6.765675048828125,0.7241694298297167,0.06926525940597057,-0.38495910228490826
1772697850745724200,6.77572412109375,0.6280694280553609,-0.04088555261790752,-0.47464404938519
1772697850755772200,6.785772216796875,0.5111059403419494,-0.004371639212965965,-0.5909276650756597
1772697850765821200,6.7958212890625,0.19558219333291052,0.18345920934081075,-0.7132441311895847
1772697850775870200,6.8058701171875,-0.06172141989767551,0.3682879534691572,-0.5750450362890959
1772697850785918200,6.815918212890625,-0.15637253803797066,0.38587680165171623,-0.22531682186126709
1772697850795967000,6.825967041015625,-0.06463759960532188,0.2113251213878393,0.28642566281855103
1772697850806016300,6.836016357421875,-0.10369706930723041,0.008054711639881133,0.4893734164834022
1772697850816064000,6.84606396484375,-0.20811142003834246,-0.12088088035285473,0.5178998382657766
1772697850826113300,6.85611328125,-0.35119010367393494,-0.15609920098930596,0.40591362750828264
1772697850836162000,6.866162109375,-0.3466548348644748,-0.20646423735320568,0.21726678639650343
1772697850846210300,6.876210205078125,-0.24525248889829962,-0.14277151738256216,0.13564005806744098
1772697850856259000,6.886259033203125,-0.1250683586379513,0.015249299319088458,0.18239245689213274
1772697850866308000,6.89630810546875,-0.11527652100715785,0.12133680742681026,0.2053255887120962
1772697850876356000,6.906356201171875,-0.08292498797867447,0.1878460461229086,0.44863399433791634
1772697850886405000,6.916405029296875,0.03934007674157619,0.24378829809725283,0.6187187583208084
1772697850896454100,6.9264541015625,0.03133797207176685,0.36058892339915033,0.4565653718590736
1772697850906502100,6.936502197265625,-0.10512100116312503,0.4495619228377938,0.2301736142426729
1772697850916551200,6.94655126953125,-0.17402972048269583,0.5159554261997342,0.07661036147177219
1772697850926600200,6.95660009765625,-0.06915301293684169,0.529609565281868,-0.05633914233744144
1772697850936649000,6.96664892578125,0.07907645932435989,0.4623340183883905,-0.19273206459879874
1772697850946697200,6.976697265625,0.17092939811348914,0.3352335328683257,-0.31231063018143174
1772697850956746000,6.98674609375,0.17551672590374945,0.19091010986864565,-0.3081739687681198
1772697850966794500,6.99679443359375,0.11155192925976588,0.06571575023084879,-0.13625614413917064
1772697850976842800,7.0068427734375,-0.04023792063044384,0.09380465737879276,0.011871055057644844
1772697850986891500,7.0168916015625,-0.31303894445598124,0.18715163411796093,-0.017925532791018484
1772697850996940500,7.0269404296875,-0.5148597399175167,0.30843554231375453,-0.08865034335553645
1772697851006988500,7.036988525390625,-0.6251870775520801,0.3429296403288841,-0.09791910696029663
1772697851017037600,7.04703759765625,-0.6686071170836687,0.36618542823195455,-0.12369886038303375
1772697851027086600,7.057086669921875,-0.6318214010000228,0.3501028929591179,-0.11031915432810782
1772697851037134600,7.067134521484375,-0.5358434547027573,0.37733985945284365,-0.2126151611983776
1772697851047183600,7.07718359375,-0.42676936853229996,0.3845131120830774,-0.28951193839609624
1772697851057232600,7.087232666015625,-0.33524726913273334,0.3203112735465169,-0.14991057548224926
1772697851067280600,7.09728076171875,-0.284155964320898,0.3000736644208431,0.05642506705522537
1772697851077329700,7.10732958984375,-0.17339432692229748,0.29699060371369124,0.1786076776564121
1772697851087378400,7.11737841796875,-0.10798808103203773,0.2740305838868022,0.18956337143480775
1772697851097426700,7.1274267578125,-0.04938625445961952,0.21099340521544216,0.16851882984042166
1772697851107475500,7.137475341796875,-0.0061252048820257185,0.14204583345651625,0.1283241820961237
1772697851117524700,7.147524658203125,0.0497007272362709,0.08993366116434336,0.08879939643740653
1772697851127572500,7.157572509765625,0.08262918336987495,0.029486498986184596,0.10367547852993012
1772697851137621800,7.167621826171875,0.010316226831078528,-0.044827275981009,0.11032792215645312
1772697851147670500,7.17767041015625,-0.09963526322841644,-0.10860182901620864,0.07827098816037177
1772697851157718800,7.18771875,-0.2104880860418081,-0.08841770364344119,-0.007023615026473999
1772697851167767600,7.197767578125,-0.2524135031014681,-0.0028340543821454046,-0.11837912666499614
1772697851177816600,7.207816650390625,-0.1153396128386259,0.05364274286031723,-0.10061784452497959
1772697851187864600,7.217864501953125,-0.006308745326209464,0.08881897792071103,0.03146072166860103
1772697851197913600,7.22791357421875,-0.05674889218211174,0.13912468531280756,0.05035363818705082
1772697851207962600,7.237962646484375,-0.08616787889003753,0.1281453183978796,-0.04981704709231853
1772697851218011600,7.24801171875,0.20682254927158356,0.05238397497087717,-0.16458207491338253
1772697851228059600,7.2580595703125,0.7837433163046836,0.1665343780249357,-0.08086042013168335
1772697851238108700,7.268108642578125,0.6020820962965489,0.21218466082662343,0.004655132329463958
1772697851248157400,7.278157470703125,0.21031272947490215,0.12864479235261678,0.01064472813308239
1772697851258205700,7.288205810546875,0.06674540380584075,0.20138006595671176,0.018103811967372894
1772697851268254500,7.29825439453125,-0.037319969090819353,0.12724924634099005,0.1401923145443201
1772697851278303700,7.3083037109375,-0.35876901449561116,-0.054796004548668856,0.3531330544352531
1772697851288351500,7.3183515625,-0.9942910235792398,-0.18674363783895967,0.3140957600325346
1772697851298400800,7.32840087890625,-1.6310732618570327,0.029155367335677144,0.047075054907798765
1772697851308449500,7.338449462890625,-1.6950252172857523,0.17926263443380594,-0.25574410882890225
1772697851318497500,7.34849755859375,-1.2936749521702526,0.04958353059738874,-0.2906558477342129
1772697851328546600,7.358546630859375,-0.8014654354780912,-0.07651742249131202,-0.18017594988644123
