time,seconds_elapsed,z,y,x
1772697844043259600,0.073259765625,0.011638561263680458,-0.03786846250295639,-0.024675941094756126
1772697844053307600,0.0833076171875,0.012892377562820911,-0.013828108087182045,-0.04495404660701752
1772697844063356700,0.093356689453125,0.010877520777285099,0.007703859359025955,-0.06702592223882675
1772697844073405400,0.103405517578125,0.015687722712755203,0.003880358301103115,-0.08888088911771774
1772697844083453700,0.11345361328125,0.019665921106934547,-0.0016212565824389458,-0.10294345021247864
1772697844093502500,0.12350244140625,0.02792038768529892,-0.009899692609906197,-0.1101483628153801
1772697844103551700,0.1335517578125,0.03666665777564049,-0.002898954786360264,-0.10565000772476196
1772697844113599500,0.143599609375,0.04325291886925697,0.006808001082390547,-0.08446402847766876
1772697844123648800,0.153648681640625,0.04546677693724632,0.002481506671756506,-0.06152820587158203
1772697844133697500,0.163697509765625,0.042174842208623886,-0.013948598876595497,-0.046519163995981216
1772697844143745500,0.17374560546875,0.042146820574998856,-0.02994406223297119,-0.04144890233874321
1772697844153794600,0.183794677734375,0.052313704043626785,-0.02270852029323578,-0.04824129492044449
1772697844163843600,0.193843505859375,0.0616910420358181,0.00562143512070179,-0.047915223985910416
1772697844173891600,0.2038916015625,0.06278347223997116,0.047777675092220306,-0.04095878079533577
1772697844183940600,0.213940673828125,0.0685211569070816,0.07823167741298676,-0.03436652943491936
1772697844193989600,0.22398974609375,0.07219738513231277,0.09529348462820053,-0.02108508162200451
1772697844204037600,0.23403759765625,0.07501596212387085,0.07771292328834534,-0.011170662008225918
1772697844214086700,0.244086669921875,0.07796301692724228,0.04782054200768471,-0.009967179037630558
1772697844224135700,0.2541357421875,0.0715477243065834,0.028589587658643723,-0.012531536631286144
1772697844234183400,0.264183349609375,0.07548307627439499,0.03428555652499199,-0.01944696716964245
1772697844244232700,0.274232666015625,0.08170970529317856,0.06236235052347183,-0.025070874020457268
1772697844254281500,0.284281494140625,0.09211387485265732,0.10618067532777786,-0.016771400347352028
1772697844264329500,0.29432958984375,0.10152430087327957,0.10434339195489883,-0.012687969952821732
1772697844274378500,0.30437841796875,0.1047336757183075,0.06540824472904205,-0.013874674215912819
1772697844284427500,0.314427490234375,0.10663546621799469,0.027746807783842087,-0.024033181369304657
1772697844294475500,0.3244755859375,0.10350332409143448,0.009467404335737228,-0.04883573576807976
1772697844304524500,0.334524658203125,0.09785399585962296,-0.005197498947381973,-0.08453033864498138
1772697844314573600,0.344573486328125,0.09335219115018845,-0.01630687527358532,-0.11555589735507965
1772697844324621300,0.354621337890625,0.09581557661294937,0.015768051147460938,-0.12134496867656708
1772697844334670600,0.364670654296875,0.11696799844503403,0.05558044835925102,-0.09458845853805542
1772697844344719600,0.3747197265625,0.12022259086370468,0.08293498307466507,-0.06854911148548126
1772697844354767600,0.384767578125,0.10896354913711548,0.08952577412128448,-0.05475447326898575
1772697844364816600,0.394816650390625,0.10456368327140808,0.09519033133983612,-0.051694899797439575
1772697844374865400,0.404865478515625,0.11174862086772919,0.08676035702228546,-0.059091560542583466
1772697844384913400,0.414913330078125,0.12351090461015701,0.08702117949724197,-0.06427942216396332
1772697844394962400,0.42496240234375,0.13499179482460022,0.11172173172235489,-0.062154751271009445
1772697844405011700,0.43501171875,0.13910266757011414,0.15590129792690277,-0.05822617560625076
1772697844415059500,0.4450595703125,0.14277596771717072,0.19548332691192627,-0.05130888149142265
1772697844425108500,0.4551083984375,0.15013162791728973,0.23735414445400238,-0.034314174205064774
1772697844435157500,0.465157470703125,0.17127341032028198,0.25749456882476807,0.00475919246673584
1772697844445205500,0.47520556640625,0.18014661967754364,0.2919307351112366,0.07505438476800919
1772697844455254500,0.485254638671875,0.18037964403629303,0.3308166265487671,0.15774206817150116
1772697844465303600,0.495303466796875,0.17702245712280273,0.3654860556125641,0.22888244688510895
1772697844475351600,0.5053515625,0.17266340553760529,0.33147189021110535,0.2728336453437805
1772697844485400300,0.515400390625,0.17703847587108612,0.26319408416748047,0.2918124198913574
1772697844495449600,0.52544970703125,0.1954968422651291,0.2103537917137146,0.3093533217906952
1772697844505497300,0.535497314453125,0.21268801391124725,0.23163950443267822,0.32715120911598206
1772697844515546600,0.545546630859375,0.22570155560970306,0.31709104776382446,0.3656000792980194
1772697844525595600,0.555595703125,0.22310632467269897,0.41223570704460144,0.41405972838401794
1772697844535643600,0.5656435546875,0.22646324336528778,0.4647735059261322,0.47038957476615906
1772697844545692400,0.5756923828125,0.23755408823490143,0.4253419041633606,0.516305148601532
1772697844555741400,0.585741455078125,0.2586577832698822,0.3288220167160034,0.5521944165229797
1772697844565789400,0.59578955078125,0.2740696966648102,0.2874951660633087,0.5867825150489807
1772697844575838500,0.60583837890625,0.26329800486564636,0.31078025698661804,0.6018698811531067
1772697844585887500,0.615887451171875,0.23688779771327972,0.3666591942310333,0.5926001667976379
1772697844595935500,0.625935546875,0.17247845232486725,0.43304434418678284,0.5533608794212341
1772697844605984500,0.635984619140625,0.09906546026468277,0.47649016976356506,0.49291688203811646
1772697844616033500,0.646033447265625,0.039124634116888046,0.46889591217041016,0.4185102880001068
1772697844626081500,0.65608154296875,0.005899334326386452,0.4098391532897949,0.34164148569107056
1772697844636130600,0.666130615234375,-0.02377520315349102,0.32512667775154114,0.264798104763031
1772697844646179300,0.676179443359375,-0.04758667200803757,0.254088431596756,0.1778022199869156
1772697844656227600,0.6862275390625,-0.03641977161169052,0.21963803470134735,0.10223156213760376
1772697844666276400,0.6962763671875,0.001478985301218927,0.226620152592659,0.042886584997177124
1772697844676325600,0.70632568359375,0.04889843240380287,0.2544637620449066,-0.0005485049332492054
1772697844686373400,0.716373291015625,0.08775921911001205,0.2677984833717346,-0.01859395019710064
1772697844696422700,0.726422607421875,0.12709598243236542,0.24942801892757416,0.012947998009622097
1772697844706471400,0.736471435546875,0.1680968850851059,0.21698486804962158,0.11791875958442688
1772697844716519700,0.746519775390625,0.21938510239124298,0.19045019149780273,0.27860990166664124
1772697844726568400,0.756568359375,0.2574455738067627,0.16702339053153992,0.44490984082221985
1772697844736617500,0.766617431640625,0.2720809876918793,0.16353225708007812,0.5984642505645752
1772697844746665500,0.77666552734375,0.2732195258140564,0.18634366989135742,0.7153186798095703
1772697844756714500,0.786714599609375,0.2589961290359497,0.24081623554229736,0.8041310906410217
1772697844766763500,0.796763427734375,0.2385205328464508,0.3171218931674957,0.8553431630134583
1772697844776811500,0.8068115234375,0.20464512705802917,0.4258369505405426,0.8763232827186584
1772697844786860500,0.816860595703125,0.16767284274101257,0.6080101728439331,0.9113113284111023
1772697844796909600,0.82690966796875,0.13247571885585785,0.6940616965293884,0.9279219508171082
1772697844806957600,0.83695751953125,0.12267397344112396,0.5834380388259888,0.8944122791290283
1772697844817006600,0.847006591796875,0.1257999837398529,0.4395975172519684,0.8482099175453186
1772697844827055400,0.857055419921875,0.12141863256692886,0.37368327379226685,0.7970259189605713
1772697844837103600,0.867103515625,0.11216601729393005,0.3734443783760071,0.7272630929946899
1772697844847152400,0.87715234375,0.10236136615276337,0.3835601806640625,0.6444867253303528
1772697844857201700,0.88720166015625,0.1056533008813858,0.3675295412540436,0.5757113695144653
1772697844867249400,0.89724951171875,0.114221952855587,0.44252097606658936,0.545741081237793
1772697844877298700,0.907298583984375,0.110728420317173,0.5674528479576111,0.5601450800895691
1772697844887347500,0.917347412109375,0.09600046277046204,0.5881392359733582,0.5719158053398132
1772697844897395700,0.927395751953125,0.08242978900671005,0.4617520272731781,0.5577408671379089
1772697844907444500,0.937444580078125,0.06870108097791672,0.3359713554382324,0.5468409657478333
1772697844917493500,0.947493408203125,0.05510484427213669,0.29466360807418823,0.5561460852622986
1772697844927541500,0.95754150390625,0.04250199347734451,0.30385157465934753,0.5804255604743958
1772697844937590500,0.967590576171875,0.022782618179917336,0.29871806502342224,0.6106441617012024
1772697844947639600,0.9776396484375,0.005106688477098942,0.2808521091938019,0.639549195766449
1772697844957687300,0.987687255859375,-0.009353476576507092,0.2892623543739319,0.6878757476806641
1772697844967736300,0.997736328125,-0.02427618019282818,0.3326304852962494,0.73712557554245
1772697844977785300,1.007785400390625,-0.047243811190128326,0.3964608609676361,0.7741101980209351
1772697844987833300,1.017833251953125,-0.07200849056243896,0.4580368399620056,0.7900413274765015
1772697844997882400,1.02788232421875,-0.08518926799297333,0.49345237016677856,0.7784757614135742
1772697845007931100,1.03793115234375,-0.08859862387180328,0.5365066528320312,0.7485655546188354
1772697845017979400,1.0479794921875,-0.10050295293331146,0.5664786696434021,0.7188944816589355
1772697845028028200,1.058028076171875,-0.11642107367515564,0.5728731751441956,0.6920290589332581
1772697845038077400,1.068077392578125,-0.13322003185749054,0.5510810613632202,0.6630685329437256
1772697845048125200,1.078125244140625,-0.1382065862417221,0.48987579345703125,0.6251683831214905
1772697845058174500,1.088174560546875,-0.14307831227779388,0.40967148542404175,0.6007897853851318
1772697845068223200,1.09822314453125,-0.14422807097434998,0.3460061252117157,0.5698076486587524
1772697845078271500,1.108271484375,-0.15168225765228271,0.31853562593460083,0.5255709290504456
1772697845088320300,1.1183203125,-0.1483786553144455,0.3073858916759491,0.4955930709838867
1772697845098369300,1.128369384765625,-0.14717143774032593,0.3187035322189331,0.4936359226703644
1772697845108417300,1.138417236328125,-0.13981300592422485,0.2981019616127014,0.4967905879020691
1772697845118466300,1.14846630859375,-0.14183542132377625,0.25545063614845276,0.5003118515014648
1772697845128515300,1.158515380859375,-0.13073033094406128,0.20674428343772888,0.51054447889328
1772697845138563300,1.168563232421875,-0.12386416643857956,0.18169352412223816,0.5166192054748535
1772697845148612400,1.1786123046875,-0.12372171878814697,0.1864357590675354,0.5264586806297302
1772697845158661400,1.188661376953125,-0.11575141549110413,0.18458805978298187,0.5333828926086426
1772697845168709400,1.19870947265625,-0.12084025889635086,0.2275361567735672,0.5513328909873962
1772697845178758400,1.20875830078125,-0.11819547414779663,0.24816152453422546,0.5676903128623962
1772697845188807200,1.21880712890625,-0.12788893282413483,0.2491224855184555,0.5707396864891052
1772697845198855400,1.22885546875,-0.12027256935834885,0.22870270907878876,0.5814831256866455
1772697845208904200,1.238904296875,-0.10968390107154846,0.22303403913974762,0.611175537109375
1772697845218953500,1.248953369140625,-0.11311138421297073,0.24580805003643036,0.6570210456848145
1772697845229001200,1.259001220703125,-0.11161886155605316,0.24577201902866364,0.7028896808624268
1772697845239050500,1.269050537109375,-0.10809337347745895,0.2007366418838501,0.7245417237281799
1772697845249099300,1.279099365234375,-0.1069728285074234,0.1509609818458557,0.7291725873947144
1772697845259148300,1.289148193359375,-0.11871257424354553,0.13066290318965912,0.7264612317085266
1772697845269196300,1.2991962890625,-0.14890269935131073,0.11454718559980392,0.7146006226539612
1772697845279245300,1.309245361328125,-0.1763353943824768,0.10088410973548889,0.6773536801338196
1772697845289293300,1.319293212890625,-0.18747110664844513,0.06586972624063492,0.6292149424552917
1772697845299342300,1.32934228515625,-0.18307609856128693,0.000881668645888567,0.5785816311836243
1772697845309391400,1.339391357421875,-0.17915402352809906,-0.061709214001894,0.5565407276153564
1772697845319440400,1.3494404296875,-0.1772458702325821,-0.0825204849243164,0.5477715134620667
1772697845329488400,1.35948828125,-0.18402190506458282,-0.05000864714384079,0.5491136908531189
1772697845339537400,1.369537353515625,-0.19096635282039642,0.01793072372674942,0.5802527070045471
1772697845349586200,1.379586181640625,-0.17870497703552246,0.0580291710793972,0.6251447200775146
1772697845359634400,1.389634521484375,-0.15973873436450958,0.029593270272016525,0.6610299944877625
1772697845369683200,1.39968310546875,-0.1347884237766266,-0.031813234090805054,0.6885316371917725
1772697845379732500,1.409732421875,-0.11581846326589584,-0.08766504377126694,0.6907305717468262
1772697845389780200,1.4197802734375,-0.11159802973270416,-0.11079449951648712,0.678666353225708
1772697845399829500,1.42982958984375,-0.06535356491804123,-0.07567992806434631,0.6393727660179138
1772697845409878300,1.439878173828125,0.005023805890232325,0.026091745123267174,0.5668267011642456
1772697845419926500,1.449926513671875,0.07917659729719162,0.1893821358680725,0.46239131689071655
1772697845429975300,1.459975341796875,0.16396816074848175,0.37300291657447815,0.3763170540332794
1772697845440024300,1.4700244140625,0.2414480298757553,0.490168958902359,0.3498702645301819
1772697845450072300,1.480072265625,0.3061565160751343,0.5372244715690613,0.360222190618515
1772697845460121300,1.490121337890625,0.3552044630050659,0.5867472887039185,0.34181469678878784
1772697845470170400,1.50017041015625,0.39193254709243774,0.6098231673240662,0.2750323712825775
1772697845480218400,1.51021826171875,0.40654638409614563,0.6045602560043335,0.18962320685386658
1772697845490267400,1.520267333984375,0.3426456153392792,0.5614060759544373,0.11209471523761749
1772697845500316400,1.53031640625,0.23629920184612274,0.5145072937011719,0.06225765496492386
1772697845510364400,1.540364501953125,0.1212097704410553,0.4302767217159271,0.037845104932785034
1772697845520413400,1.550413330078125,0.026301367208361626,0.2878604531288147,0.0595322884619236
1772697845530462200,1.560462158203125,-0.05348096042871475,0.0995272547006607,0.13620735704898834
1772697845540510500,1.570510498046875,-0.11726447194814682,-0.08573821187019348,0.23297198116779327
1772697845550559200,1.580559326171875,-0.13896150887012482,-0.214924156665802,0.26761865615844727
1772697845560608500,1.5906083984375,-0.10073689371347427,-0.2745283544063568,0.23437920212745667
1772697845570656300,1.60065625,-0.03745429590344429,-0.2490226775407791,0.18693524599075317
1772697845580705300,1.610705322265625,0.024799756705760956,-0.16841571033000946,0.1848824918270111
1772697845590754300,1.62075439453125,0.08202652633190155,-0.08257783949375153,0.2421543002128601
1772697845600802300,1.63080224609375,0.13583171367645264,-0.012164654210209846,0.3331574499607086
1772697845610851300,1.640851318359375,0.18337459862232208,0.04923921823501587,0.40879881381988525
1772697845620900400,1.650900390625,0.20869433879852295,0.06309059262275696,0.45883214473724365
1772697845630948400,1.6609482421875,0.208232581615448,0.06128595024347305,0.4658281207084656
1772697845640997400,1.670997314453125,0.18102972209453583,0.057637155055999756,0.43238309025764465
1772697845651046400,1.68104638671875,0.1309087723493576,0.03498603776097298,0.37285172939300537
1772697845661094100,1.69109423828125,0.0836014375090599,-0.012347124516963959,0.3199746608734131
1772697845671143200,1.70114306640625,0.03973553329706192,-0.04612221568822861,0.27808529138565063
1772697845681192400,1.7111923828125,-0.006013843230903149,-0.08311326056718826,0.21771995723247528
1772697845691240200,1.721240234375,-0.07206322997808456,-0.09775757044553757,0.11066111922264099
1772697845701289500,1.73128955078125,-0.13789096474647522,-0.015499982051551342,0.015351112000644207
1772697845711338200,1.741338134765625,-0.19246533513069153,0.11499599367380142,-0.0505974106490612
1772697845721386200,1.75138623046875,-0.22765076160430908,0.23051245510578156,-0.07707934826612473
1772697845731435300,1.761435302734375,-0.24328309297561646,0.3262990713119507,-0.0852162092924118
1772697845741484300,1.771484375,-0.2671207785606384,0.379509299993515,-0.09162431210279465
1772697845751532300,1.7815322265625,-0.2803363800048828,0.3762376010417938,-0.10968679934740067
1772697845761581000,1.7915810546875,-0.2851804196834564,0.3212127089500427,-0.14924326539039612
1772697845771630300,1.80163037109375,-0.2590249180793762,0.23164471983909607,-0.22007180750370026
1772697845781678000,1.811677978515625,-0.2145511955022812,0.09607650339603424,-0.3217792510986328
1772697845791727400,1.821727294921875,-0.18886861205101013,-0.06931076943874359,-0.4295913279056549
1772697845801776400,1.8317763671875,-0.17302758991718292,-0.18661342561244965,-0.48592543601989746
1772697845811824400,1.841824462890625,-0.16079531610012054,-0.2589251697063446,-0.47849202156066895
1772697845821873200,1.851873046875,-0.1627436876296997,-0.3116435110569,-0.43501564860343933
1772697845831922200,1.861922119140625,-0.17658424377441406,-0.362006276845932,-0.39962998032569885
1772697845841970200,1.87197021484375,-0.19855479896068573,-0.41025447845458984,-0.3709149658679962
1772697845852019200,1.882019287109375,-0.2357240915298462,-0.4247843623161316,-0.35359084606170654
1772697845862068500,1.892068359375,-0.26707643270492554,-0.35064008831977844,-0.33362460136413574
1772697845872116200,1.9021162109375,-0.3277517557144165,-0.22321555018424988,-0.31077465415000916
1772697845882165200,1.912165283203125,-0.41518068313598633,-0.09639635682106018,-0.2984500825405121
1772697845892214300,1.92221435546875,-0.5030140280723572,0.01742413081228733,-0.29329127073287964
1772697845902262300,1.93226220703125,-0.5756331086158752,0.11585749685764313,-0.2918262779712677
1772697845912311300,1.942311279296875,-0.6234909892082214,0.19340263307094574,-0.2888818681240082
1772697845922360000,1.952360107421875,-0.6432785391807556,0.19047050178050995,-0.28221413493156433
1772697845932408300,1.962408203125,-0.6462080478668213,0.08255719393491745,-0.29342037439346313
1772697845942457000,1.97245703125,-0.6457574367523193,-0.05045438930392265,-0.3142963647842407
1772697845952506400,1.98250634765625,-0.6352721452713013,-0.19083142280578613,-0.31449639797210693
1772697845962554000,1.99255419921875,-0.6054745316505432,-0.3233865201473236,-0.3122204840183258
1772697845972603100,2.00260302734375,-0.5746384859085083,-0.45437905192375183,-0.32162943482398987
1772697845982652200,2.012652099609375,-0.5615631937980652,-0.5435571670532227,-0.3244641125202179
1772697845992700200,2.0227001953125,-0.5519824624061584,-0.5866641402244568,-0.3324485421180725
1772697846002749200,2.032749267578125,-0.5250624418258667,-0.587244987487793,-0.3402539789676666
1772697846012798000,2.0427978515625,-0.4739879071712494,-0.5721203684806824,-0.33892202377319336
1772697846022846200,2.05284619140625,-0.404710590839386,-0.5295915603637695,-0.3317093849182129
1772697846032895000,2.06289501953125,-0.3311329483985901,-0.4702499508857727,-0.32110396027565
1772697846042944300,2.0729443359375,-0.26477736234664917,-0.41399678587913513,-0.3139757513999939
1772697846052992000,2.082991943359375,-0.2179981917142868,-0.35284072160720825,-0.3056231737136841
1772697846063041300,2.093041259765625,-0.17202776670455933,-0.28672081232070923,-0.28189414739608765
1772697846073090000,2.103090087890625,-0.1404232382774353,-0.2380126416683197,-0.24749861657619476
1772697846083138300,2.11313818359375,-0.11273833364248276,-0.21235442161560059,-0.21902915835380554
1772697846093187000,2.12318701171875,-0.07767395675182343,-0.18300794064998627,-0.17260870337486267
1772697846103236000,2.133236083984375,-0.04394954815506935,-0.15900246798992157,-0.12377431243658066
1772697846113284000,2.1432841796875,0.007201590109616518,-0.15072566270828247,-0.08276040107011795
1772697846123333000,2.1533330078125,0.040679920464754105,-0.1365230232477188,-0.05447683110833168
1772697846133382100,2.163382080078125,0.06438196450471878,-0.1594807207584381,-0.021841375157237053
1772697846143430100,2.17343017578125,0.09304530173540115,-0.18642976880073547,0.007820114493370056
1772697846153479200,2.183479248046875,0.12176154553890228,-0.23296697437763214,0.0427372120320797
1772697846163528200,2.193528076171875,0.13884678483009338,-0.31803762912750244,0.07375557720661163
1772697846173576200,2.203576171875,0.16425777971744537,-0.38590648770332336,0.06360160559415817
1772697846183625200,2.213625244140625,0.19144119322299957,-0.4173642694950104,0.00954689271748066
1772697846193674000,2.223674072265625,0.21705466508865356,-0.39973074197769165,-0.058925919234752655
1772697846203722200,2.23372216796875,0.2418886423110962,-0.33176207542419434,-0.11755940318107605
1772697846213771000,2.24377099609375,0.2598983943462372,-0.2300225794315338,-0.16109926998615265
1772697846223820300,2.2538203125,0.2560860514640808,-0.16259214282035828,-0.18796470761299133
1772697846233868000,2.263867919921875,0.26786038279533386,-0.17621399462223053,-0.21639636158943176
1772697846243917300,2.273917236328125,0.27825498580932617,-0.21521012485027313,-0.22977794706821442
1772697846253966000,2.283966064453125,0.29407647252082825,-0.24459987878799438,-0.22757282853126526
1772697846264014300,2.294014404296875,0.31363287568092346,-0.2568504214286804,-0.22289258241653442
1772697846274063000,2.30406298828125,0.32449835538864136,-0.2566267251968384,-0.23112189769744873
1772697846284112100,2.314112060546875,0.32949045300483704,-0.22846567630767822,-0.23892603814601898
1772697846294160100,2.32416015625,0.3109019100666046,-0.16858568787574768,-0.25155743956565857
1772697846304209200,2.334209228515625,0.3037981688976288,-0.131447896361351,-0.2690935730934143
1772697846314258200,2.344258056640625,0.3060155510902405,-0.18040601909160614,-0.30995240807533264
1772697846324306200,2.35430615234375,0.33483973145484924,-0.30034467577934265,-0.3739132881164551
1772697846334355200,2.364355224609375,0.3512822389602661,-0.41437068581581116,-0.4507996737957001
1772697846344404200,2.374404296875,0.364297091960907,-0.4870419502258301,-0.5383255481719971
1772697846354452200,2.3844521484375,0.359824001789093,-0.5180875658988953,-0.6383362412452698
1772697846364501200,2.394501220703125,0.30809104442596436,-0.5861180424690247,-0.7784624695777893
1772697846374550000,2.404550048828125,0.22822584211826324,-0.6716814041137695,-0.9292840957641602
1772697846384598300,2.414598388671875,0.19911696016788483,-0.63937908411026,-0.984588086605072
1772697846394647000,2.42464697265625,0.23120878636837006,-0.6059238910675049,-0.9246354103088379
1772697846404696300,2.4346962890625,0.22161662578582764,-0.5176462531089783,-0.7987496256828308
1772697846414744000,2.444744140625,0.11445789039134979,-0.3993038833141327,-0.671424925327301
1772697846424793300,2.45479345703125,-0.014846575446426868,-0.31482788920402527,-0.6061702370643616
1772697846434842000,2.464842041015625,-0.11537862569093704,-0.2633934020996094,-0.5926796793937683
1772697846444890400,2.474890380859375,-0.17312447726726532,-0.20530693233013153,-0.6315191984176636
1772697846454939100,2.484939208984375,-0.21060122549533844,-0.07589410990476608,-0.6789076328277588
1772697846464988200,2.49498828125,-0.21005873382091522,0.014479994773864746,-0.7112104296684265
1772697846475036200,2.5050361328125,-0.1648937612771988,-0.0407896414399147,-0.7140952348709106
1772697846485085200,2.515085205078125,-0.09851528704166412,-0.16628871858119965,-0.6447235941886902
1772697846495134200,2.52513427734375,-0.0600334033370018,-0.26846179366111755,-0.5214308500289917
1772697846505183200,2.535183349609375,-0.022320644930005074,-0.16268637776374817,-0.3679667115211487
1772697846515231200,2.545231201171875,0.05054968595504761,0.06662960350513458,-0.25409767031669617
1772697846525280300,2.5552802734375,0.16529837250709534,0.26310619711875916,-0.22234612703323364
1772697846535328300,2.565328369140625,0.26714760065078735,0.3605137765407562,-0.24373838305473328
1772697846545377300,2.575377197265625,0.32687512040138245,0.3565989136695862,-0.2664937674999237
1772697846555426000,2.585426025390625,0.3810288906097412,0.3073546290397644,-0.21038411557674408
1772697846565475300,2.595475341796875,0.4070242643356323,0.23184549808502197,-0.04106753319501877
1772697846575523000,2.605523193359375,0.3854934275150299,0.15226644277572632,0.21661846339702606
1772697846585572400,2.615572265625,0.33026373386383057,0.10721001774072647,0.47178682684898376
1772697846595621000,2.62562109375,0.24361184239387512,0.16892579197883606,0.5695177912712097
1772697846605669400,2.63566943359375,0.19472232460975647,0.3125881552696228,0.5524043440818787
1772697846615718100,2.64571826171875,0.19085821509361267,0.4552415609359741,0.47680529952049255
1772697846625767200,2.65576708984375,0.20295988023281097,0.5667009949684143,0.3688162565231323
1772697846635815200,2.665815185546875,0.22116906940937042,0.6411720514297485,0.26210513710975647
1772697846645864200,2.6758642578125,0.23262278735637665,0.6437188386917114,0.1883065402507782
1772697846655913200,2.685913330078125,0.24093416333198547,0.583097517490387,0.16361437737941742
1772697846665961200,2.695961181640625,0.22125926613807678,0.504859983921051,0.1695750653743744
1772697846676010200,2.70601025390625,0.18517111241817474,0.430959552526474,0.18049107491970062
1772697846686059300,2.716059326171875,0.15516313910484314,0.32899749279022217,0.18159867823123932
1772697846696107300,2.726107177734375,0.12507812678813934,0.23633557558059692,0.13370947539806366
1772697846706156300,2.73615625,0.10430334508419037,0.16931739449501038,0.06701751798391342
1772697846716205000,2.746205078125,0.09076397866010666,0.16427552700042725,-0.0032097632065415382
1772697846726253300,2.75625341796875,0.09173256903886795,0.18476802110671997,-0.059601664543151855
1772697846736302000,2.766302001953125,0.10727901011705399,0.20368692278862,-0.08300591260194778
1772697846746351400,2.776351318359375,0.14250464737415314,0.20454713702201843,-0.05795035883784294
1772697846756399000,2.786399169921875,0.16797097027301788,0.2182575911283493,0.01881738379597664
1772697846766448400,2.796448486328125,0.17930485308170319,0.2434348464012146,0.15500691533088684
1772697846776497200,2.8064970703125,0.18205231428146362,0.252772718667984,0.32265105843544006
1772697846786545200,2.816545166015625,0.1903669685125351,0.258186399936676,0.4960198998451233
1772697846796594200,2.82659423828125,0.20186598598957062,0.27938440442085266,0.6501258611679077
1772697846806643200,2.836643310546875,0.211250439286232,0.295722633600235,0.7848207950592041
1772697846816691200,2.846691162109375,0.21322967112064362,0.2750789523124695,0.8930078744888306
1772697846826740200,2.856740234375,0.22481656074523926,0.26816990971565247,0.9729575514793396
1772697846836789200,2.866789306640625,0.24659988284111023,0.3140510022640228,1.021445870399475
1772697846846837200,2.876837158203125,0.24712878465652466,0.4129631817340851,1.0440752506256104
1772697846856886300,2.88688623046875,0.24345391988754272,0.5304411053657532,1.0268940925598145
1772697846866935300,2.896935302734375,0.23834170401096344,0.6341254115104675,0.9712703227996826
1772697846876983000,2.906983154296875,0.22478243708610535,0.6845085024833679,0.8980844020843506
1772697846887032300,2.9170322265625,0.2153918594121933,0.6927046775817871,0.8211403489112854
1772697846897081000,2.9270810546875,0.1899629682302475,0.6827248930931091,0.7438965439796448
1772697846907129300,2.93712939453125,0.17154161632061005,0.645067036151886,0.6717142462730408
1772697846917178000,2.94717822265625,0.15728889405727386,0.6118413209915161,0.6119044423103333
1772697846927227100,2.95722705078125,0.15737465023994446,0.5569141507148743,0.5705165266990662
1772697846937275100,2.967275146484375,0.16233256459236145,0.5054870247840881,0.5364066958427429
1772697846947324200,2.97732421875,0.16944080591201782,0.4504637122154236,0.4980614483356476
1772697846957373200,2.987373291015625,0.18965144455432892,0.36795762181282043,0.4553264081478119
1772697846967421200,2.997421142578125,0.1821402609348297,0.2703370749950409,0.4125043749809265
1772697846977470200,3.00747021484375,0.16673018038272858,0.2028677612543106,0.38488173484802246
1772697846987519200,3.017519287109375,0.1656651794910431,0.1537953019142151,0.3734293580055237
1772697846997567200,3.027567138671875,0.16491036117076874,0.11040659248828888,0.36383071541786194
1772697847007616300,3.0376162109375,0.143182173371315,0.11342102289199829,0.3645646870136261
1772697847017665000,3.0476650390625,0.10416048020124435,0.14527973532676697,0.3865918219089508
1772697847027713000,3.057713134765625,0.058127209544181824,0.1866822987794876,0.4191417694091797
1772697847037762000,3.067761962890625,0.0017546480521559715,0.20887815952301025,0.4634566605091095
1772697847047811300,3.077811279296875,-0.033094145357608795,0.2153613567352295,0.5059497952461243
1772697847057859000,3.087859130859375,-0.04871230572462082,0.23689523339271545,0.540661633014679
1772697847067908400,3.097908447265625,-0.05708394944667816,0.2654491364955902,0.5594233274459839
1772697847077957000,3.10795703125,-0.06800191104412079,0.2915346622467041,0.5721663236618042
1772697847088005000,3.118005126953125,-0.08156192302703857,0.3252982199192047,0.586458683013916
1772697847098054100,3.12805419921875,-0.09435157477855682,0.38044852018356323,0.6100739240646362
1772697847108103200,3.138103271484375,-0.10518238693475723,0.4267348051071167,0.6322018504142761
1772697847118151200,3.148151123046875,-0.10212638229131699,0.4485354721546173,0.6539005041122437
1772697847128200200,3.1582001953125,-0.10135353356599808,0.43084701895713806,0.681450366973877
1772697847138249200,3.168249267578125,-0.10199663043022156,0.38902339339256287,0.7084189653396606
1772697847148297000,3.178296875,-0.11357951164245605,0.3327915370464325,0.7191778421401978
1772697847158346200,3.18834619140625,-0.1277937889099121,0.2756490707397461,0.7174364328384399
1772697847168395300,3.198395263671875,-0.1395215392112732,0.2445146143436432,0.7107737064361572
1772697847178443300,3.208443359375,-0.13967038691043854,0.23503077030181885,0.700346052646637
1772697847188492000,3.218491943359375,-0.13563676178455353,0.23286108672618866,0.6954804062843323
1772697847198541000,3.228541015625,-0.13184867799282074,0.22893981635570526,0.6927138566970825
1772697847208589000,3.238589111328125,-0.1356191784143448,0.2286817580461502,0.6939730048179626
1772697847218638000,3.24863818359375,-0.14342357218265533,0.23083655536174774,0.6977111101150513
1772697847228687400,3.258687255859375,-0.1433812379837036,0.2323841154575348,0.7041050791740417
1772697847238736100,3.268736083984375,-0.14617520570755005,0.20895348489284515,0.7232115864753723
1772697847248784100,3.2787841796875,-0.1440662443637848,0.15041720867156982,0.7556233406066895
1772697847258833200,3.288833251953125,-0.14427398145198822,0.06100716441869736,0.7958155274391174
1772697847268881200,3.298881103515625,-0.13666985929012299,-0.04513072222471237,0.8364382982254028
1772697847278930200,3.30893017578125,-0.12401094287633896,-0.12120728194713593,0.8772763609886169
1772697847288979200,3.318979248046875,-0.10948526114225388,-0.16665679216384888,0.8977283835411072
1772697847299027200,3.329027099609375,-0.10328112542629242,-0.16734181344509125,0.9039204120635986
1772697847309076000,3.339075927734375,-0.11782118678092957,-0.1256076842546463,0.8960174918174744
1772697847319125200,3.349125244140625,-0.13929559290409088,-0.048723168671131134,0.8829430937767029
1772697847329174300,3.35917431640625,-0.16124723851680756,0.013409178704023361,0.8547343611717224
1772697847339222300,3.36922216796875,-0.18851999938488007,0.038991209119558334,0.8290809392929077
1772697847349271000,3.37927099609375,-0.2007092833518982,0.05347134545445442,0.8173214793205261
1772697847359319300,3.3893193359375,-0.19659210741519928,0.05470241233706474,0.8249242901802063
1772697847369368000,3.3993681640625,-0.2016100287437439,0.018148664385080338,0.8504421710968018
1772697847379417000,3.4094169921875,-0.18776343762874603,-0.058586105704307556,0.8987512588500977
1772697847389466400,3.41946630859375,-0.18196547031402588,-0.14836737513542175,0.9623949527740479
1772697847399514000,3.42951416015625,-0.17346855998039246,-0.22543327510356903,1.0262154340744019
1772697847409563100,3.439563232421875,-0.15887603163719177,-0.25607746839523315,1.0698782205581665
1772697847419612200,3.449612060546875,-0.1263701319694519,-0.2744170129299164,1.0903319120407104
1772697847429660200,3.45966015625,-0.09705833345651627,-0.25994059443473816,1.0987943410873413
1772697847439709200,3.469709228515625,-0.07509825378656387,-0.23184578120708466,1.0999317169189453
1772697847449758200,3.47975830078125,-0.04071471467614174,-0.18966449797153473,1.0603017807006836
1772697847459806200,3.48980615234375,0.037668149918317795,-0.0747375562787056,0.9393753409385681
1772697847469855000,3.49985498046875,0.12012600898742676,0.12704935669898987,0.7612000107765198
1772697847479904300,3.509904296875,0.20715835690498352,0.373921662569046,0.5748903155326843
1772697847489952000,3.519951904296875,0.2599395513534546,0.61738121509552,0.4261844754219055
1772697847500001300,3.530001220703125,0.30424726009368896,0.8101439476013184,0.31251049041748047
1772697847510050000,3.540050048828125,0.346682071685791,0.9658339619636536,0.2031312733888626
1772697847520098300,3.550098388671875,0.32428863644599915,1.1137058734893799,0.07845663279294968
1772697847530147000,3.56014697265625,0.21557281911373138,1.2072840929031372,-0.07529884576797485
1772697847540196000,3.570196044921875,0.03467081859707832,1.152146816253662,-0.22482281923294067
1772697847550244000,3.580244140625,-0.1980585753917694,0.88316410779953,-0.2777952253818512
1772697847560293000,3.590293212890625,-0.4046471118927002,0.4843904972076416,-0.17541518807411194
1772697847570342100,3.600342041015625,-0.5176392197608948,0.07713272422552109,0.029043396934866905
1772697847580390100,3.61039013671875,-0.5634417533874512,-0.26684677600860596,0.2529657185077667
1772697847590439200,3.620439208984375,-0.5252714157104492,-0.5095510482788086,0.4154278635978699
1772697847600488200,3.63048828125,-0.4397236704826355,-0.611624002456665,0.4388221204280853
1772697847610536200,3.6405361328125,-0.34057313203811646,-0.5783523321151733,0.36753514409065247
1772697847620585200,3.650585205078125,-0.2503412067890167,-0.4883485734462738,0.26953959465026855
1772697847630634000,3.660634033203125,-0.199385866522789,-0.459565669298172,0.2238035351037979
1772697847640682200,3.67068212890625,-0.1828824132680893,-0.5161815881729126,0.2774167060852051
1772697847650731000,3.68073095703125,-0.1509694904088974,-0.5392935276031494,0.38975095748901367
1772697847660780300,3.6907802734375,-0.12065774947404861,-0.5143054723739624,0.45429760217666626
1772697847670828000,3.700828125,-0.10133465379476547,-0.4240671396255493,0.4247543513774872
1772697847680877300,3.710877197265625,-0.11257366836071014,-0.30152300000190735,0.29374465346336365
1772697847690926000,3.720926025390625,-0.16687898337841034,-0.16622483730316162,0.09394577890634537
1772697847700974300,3.730974365234375,-0.21049931645393372,-0.028021976351737976,-0.1383686363697052
1772697847711023000,3.741023193359375,-0.2027473896741867,0.09941880404949188,-0.40544986724853516
1772697847721072000,3.751072021484375,-0.1856217235326767,0.19366569817066193,-0.6946096420288086
1772697847731120000,3.7611201171875,-0.16278591752052307,0.23543311655521393,-0.9434780478477478
1772697847741169200,3.771169189453125,-0.13662029802799225,0.24490156769752502,-1.0946459770202637
1772697847751218200,3.78121826171875,-0.1253676414489746,0.1975415050983429,-1.124771237373352
1772697847761266200,3.79126611328125,-0.1092340350151062,0.09286670386791229,-1.0602920055389404
1772697847771315200,3.801315185546875,-0.08561339229345322,-0.03230319917201996,-0.9631227254867554
1772697847781364200,3.8113642578125,-0.05872354283928871,-0.13892516493797302,-0.8745632767677307
1772697847791412200,3.821412109375,-0.038157545030117035,-0.21893690526485443,-0.7966112494468689
1772697847801461200,3.831461181640625,-0.019925249740481377,-0.27647241950035095,-0.7243483662605286
1772697847811510000,3.841510009765625,-0.021425409242510796,-0.32375019788742065,-0.641464114189148
1772697847821558300,3.851558349609375,-0.034333955496549606,-0.3689969480037689,-0.5621746778488159
1772697847831607000,3.86160693359375,-0.07147786766290665,-0.43253597617149353,-0.47689545154571533
1772697847841656300,3.87165625,-0.1036292016506195,-0.5348864197731018,-0.4146645665168762
1772697847851704000,3.8817041015625,-0.14621928334236145,-0.6714333891868591,-0.36479875445365906
1772697847861753300,3.89175341796875,-0.1882622390985489,-0.8216503262519836,-0.3217974305152893
1772697847871802000,3.901802001953125,-0.21145038306713104,-0.9479901790618896,-0.2917138338088989
1772697847881850400,3.911850341796875,-0.2206284999847412,-1.054020643234253,-0.2985275983810425
1772697847891899100,3.921899169921875,-0.20988024771213531,-1.1320589780807495,-0.34319251775741577
1772697847901948200,3.9319482421875,-0.1749388724565506,-1.180518627166748,-0.4318801760673523
1772697847911996200,3.94199609375,-0.14428988099098206,-1.2094682455062866,-0.5290157794952393
1772697847922045200,3.952045166015625,-0.11747231334447861,-1.2006601095199585,-0.6070755124092102
1772697847932094200,3.96209423828125,-0.0854874849319458,-1.1471023559570312,-0.6505045294761658
1772697847942142200,3.97214208984375,-0.05008821561932564,-1.0477294921875,-0.6497417688369751
1772697847952191200,3.982191162109375,-0.02441108226776123,-0.9283692240715027,-0.6318352222442627
1772697847962240500,3.992240478515625,-0.030511168763041496,-0.800687849521637,-0.5994800925254822
1772697847972288300,4.002288330078125,-0.041620008647441864,-0.688088595867157,-0.5391770601272583
1772697847982337500,4.012337646484375,-0.03888201713562012,-0.5662941336631775,-0.47835221886634827
1772697847992386300,4.02238623046875,-0.02203858643770218,-0.4603644907474518,-0.4249371886253357
1772697848002434600,4.0324345703125,-0.023266037926077843,-0.3806884288787842,-0.40504932403564453
1772697848012483300,4.0424833984375,-0.029555892571806908,-0.32483500242233276,-0.40986964106559753
1772697848022532400,4.052532470703125,-0.03812401741743088,-0.25776398181915283,-0.44900962710380554
1772697848032580400,4.062580322265625,-0.0561315156519413,-0.19454559683799744,-0.5174382328987122
1772697848042629400,4.07262939453125,-0.0863388404250145,-0.13787966966629028,-0.6068956255912781
1772697848052678400,4.082678466796875,-0.1201881468296051,-0.10622559487819672,-0.6796417236328125
1772697848062727400,4.0927275390625,-0.16397564113140106,-0.08039318770170212,-0.7463117241859436
1772697848072775400,4.102775390625,-0.20731565356254578,-0.0650981217622757,-0.7848226428031921
1772697848082824400,4.112824462890625,-0.2519347071647644,-0.08077852427959442,-0.8047956824302673
1772697848092873200,4.122873291015625,-0.2826545238494873,-0.14697538316249847,-0.8045730590820312
1772697848102921500,4.13292138671875,-0.2825452983379364,-0.2980436682701111,-0.7980411052703857
1772697848112970200,4.14297021484375,-0.2662030756473541,-0.4720788598060608,-0.7857540845870972
1772697848123019500,4.15301953125,-0.23738326132297516,-0.6480311751365662,-0.7569895386695862
1772697848133067300,4.1630673828125,-0.20262475311756134,-0.795685350894928,-0.736006498336792
1772697848143116500,4.173116455078125,-0.1438019722700119,-0.8556107878684998,-0.6967686414718628
1772697848153165300,4.183165283203125,-0.0846792683005333,-0.8499539494514465,-0.6595160961151123
1772697848163213600,4.193213623046875,-0.011024403385818005,-0.7803831696510315,-0.6218254566192627
1772697848173262300,4.203262451171875,0.07449954748153687,-0.6932424306869507,-0.5899138450622559
1772697848183311400,4.213311279296875,0.13380959630012512,-0.6032257676124573,-0.5820599794387817
1772697848193359400,4.223359375,0.17119425535202026,-0.5229607224464417,-0.5932037234306335
1772697848203408400,4.233408447265625,0.21726344525814056,-0.4575812518596649,-0.6151067614555359
1772697848213457400,4.24345751953125,0.24386043846607208,-0.43816468119621277,-0.626823902130127
1772697848223505400,4.25350537109375,0.27569377422332764,-0.4702500104904175,-0.6398251056671143
1772697848233554400,4.263554443359375,0.31403103470802307,-0.5675866603851318,-0.652470052242279
1772697848243603500,4.273603515625,0.33195066452026367,-0.6934100985527039,-0.6707571744918823
1772697848253651500,4.2836513671875,0.3469735383987427,-0.7777287364006042,-0.696178674697876
1772697848263700500,4.293700439453125,0.35329708456993103,-0.7583089470863342,-0.734133243560791
1772697848273749200,4.303749267578125,0.35731765627861023,-0.6297435164451599,-0.7908406853675842
1772697848283797500,4.313797607421875,0.367373526096344,-0.4662254750728607,-0.8493145704269409
1772697848293846300,4.32384619140625,0.38520073890686035,-0.343250572681427,-0.8892681002616882
1772697848303895600,4.3338955078125,0.398983895778656,-0.27176496386528015,-0.8949475288391113
1772697848313943300,4.343943359375,0.39720702171325684,-0.24010984599590302,-0.8710089325904846
1772697848323992600,4.35399267578125,0.411527544260025,-0.24913640320301056,-0.8377496600151062
1772697848334041300,4.364041259765625,0.43876343965530396,-0.2839401960372925,-0.7887874841690063
1772697848344089600,4.374089599609375,0.46854203939437866,-0.38971373438835144,-0.7574235200881958
1772697848354138400,4.384138427734375,0.5006376504898071,-0.5122604370117188,-0.737388551235199
1772697848364187400,4.3941875,0.5420781970024109,-0.591873824596405,-0.7302044034004211
1772697848374235400,4.4042353515625,0.5862182378768921,-0.5837495923042297,-0.7255231142044067
1772697848384284400,4.414284423828125,0.6011141538619995,-0.4833962023258209,-0.7324799299240112
1772697848394333400,4.42433349609375,0.5269606113433838,-0.29019853472709656,-0.7931254506111145
1772697848404381400,4.43438134765625,0.3873322606086731,-0.09441621601581573,-0.9520825743675232
1772697848414430500,4.444430419921875,0.31439921259880066,0.08755278587341309,-1.0936973094940186
1772697848424479500,4.4544794921875,0.34783077239990234,0.26044392585754395,-1.1073647737503052
1772697848434527500,4.464527587890625,0.4300619959831238,0.3571462333202362,-1.010850429534912
1772697848444576500,4.474576416015625,0.534008800983429,0.35252875089645386,-0.8530251383781433
1772697848454625300,4.484625244140625,0.5841766595840454,0.30564168095588684,-0.6854526400566101
1772697848464673500,4.494673583984375,0.5260761976242065,0.23237605392932892,-0.5716726779937744
1772697848474722300,4.504722412109375,0.3379387855529785,0.10615180432796478,-0.5619545578956604
1772697848484771600,4.514771484375,0.10460448265075684,-0.15757443010807037,-0.6294894814491272
1772697848494819300,4.5248193359375,-0.03273925557732582,-0.5754470229148865,-0.6728771924972534
1772697848504868600,4.53486865234375,-0.01922069489955902,-1.0171664953231812,-0.6090663075447083
1772697848514917400,4.54491748046875,0.027150265872478485,-1.07505464553833,-0.47089216113090515
1772697848524965600,4.554965576171875,0.037784356623888016,-0.7116256952285767,-0.36348700523376465
1772697848535014400,4.565014404296875,0.04821861907839775,-0.28930824995040894,-0.351467102766037
1772697848545063400,4.5750634765625,0.08699142932891846,0.006655713077634573,-0.37435322999954224
1772697848555111400,4.585111328125,0.15825122594833374,0.1642320305109024,-0.34503766894340515
1772697848565160400,4.595160400390625,0.27195245027542114,0.19023746252059937,-0.21627865731716156
1772697848575209500,4.60520947265625,0.35894036293029785,0.17114205658435822,-0.05205855518579483
1772697848585258500,4.615258544921875,0.3822430670261383,0.16902239620685577,0.07879922538995743
1772697848595306500,4.625306396484375,0.3545033037662506,0.2007656842470169,0.13387367129325867
1772697848605355500,4.63535546875,0.2873571813106537,0.24753668904304504,0.10989750176668167
1772697848615404300,4.645404296875,0.2114296406507492,0.29505598545074463,0.02780689112842083
1772697848625452500,4.65545263671875,0.14980879426002502,0.32584890723228455,-0.07108771055936813
1772697848635501300,4.665501220703125,0.11798668652772903,0.3425077795982361,-0.1532297283411026
1772697848645550600,4.675550537109375,0.12102793157100677,0.370734304189682,-0.17525288462638855
1772697848655598300,4.685598388671875,0.14126209914684296,0.408170610666275,-0.1576770842075348
1772697848665647600,4.695647705078125,0.16532272100448608,0.4293428361415863,-0.11825056374073029
1772697848675696400,4.7056962890625,0.18746264278888702,0.41020748019218445,-0.08581565320491791
1772697848685744600,4.71574462890625,0.21629121899604797,0.3524959087371826,-0.04399529844522476
1772697848695793400,4.72579345703125,0.23731660842895508,0.2950661778450012,-0.008417596109211445
1772697848705842400,4.735842529296875,0.2463122308254242,0.2529331147670746,0.00503168860450387
1772697848715890400,4.745890380859375,0.22683945298194885,0.22201277315616608,-0.013110031373798847
1772697848725939500,4.755939453125,0.19962453842163086,0.19044972956180573,-0.06453821808099747
1772697848735988500,4.765988525390625,0.1669163852930069,0.14016179740428925,-0.12481540441513062
1772697848746036500,4.776036376953125,0.11612150073051453,0.09861085563898087,-0.18042513728141785
1772697848756085500,4.78608544921875,0.055536188185214996,0.10820329189300537,-0.2066548764705658
1772697848766134500,4.796134521484375,-0.009673234075307846,0.14466075599193573,-0.20691509544849396
1772697848776182500,4.8061826171875,-0.05543326586484909,0.15706443786621094,-0.2045840322971344
1772697848786231600,4.8162314453125,-0.08991765230894089,0.15389053523540497,-0.21372172236442566
1772697848796280300,4.8262802734375,-0.10822262614965439,0.16359162330627441,-0.20258519053459167
1772697848806328600,4.83632861328125,-0.10826180875301361,0.21990875899791718,-0.12663386762142181
1772697848816377300,4.84637744140625,-0.08896241337060928,0.2866276204586029,-0.0006383807049132884
1772697848826426600,4.856426513671875,-0.06238381564617157,0.31533122062683105,0.14990945160388947
1772697848836474400,4.866474365234375,-0.0401778481900692,0.3083327114582062,0.29870641231536865
1772697848846523600,4.876523681640625,-0.020380442962050438,0.27453336119651794,0.43101292848587036
1772697848856572400,4.886572509765625,-0.0022515070158988237,0.25163814425468445,0.5143986344337463
1772697848866620400,4.896620361328125,0.013531302101910114,0.2963345944881439,0.5559411644935608
1772697848876669400,4.90666943359375,0.020546866580843925,0.39236366748809814,0.5404886603355408
1772697848886718500,4.916718505859375,0.028925467282533646,0.5070547461509705,0.4829943776130676
1772697848896766500,4.926766357421875,0.03565341234207153,0.6172819137573242,0.4066556692123413
1772697848906815500,4.9368154296875,0.032156236469745636,0.7144894599914551,0.33641916513442993
1772697848916864500,4.946864501953125,0.023523598909378052,0.8103302717208862,0.2778317630290985
1772697848926912300,4.956912353515625,0.019300006330013275,0.8789701461791992,0.252320259809494
1772697848936961500,4.96696142578125,0.021514158695936203,0.878393828868866,0.2649646997451782
1772697848947010600,4.977010498046875,0.048827122896909714,0.81037437915802,0.30256387591362
1772697848957058300,4.987058349609375,0.08318136632442474,0.7023760080337524,0.3346821367740631
1772697848967107600,4.997107666015625,0.0987725481390953,0.5819879174232483,0.34600841999053955
1772697848977156600,5.007156494140625,0.09187549352645874,0.5033274292945862,0.3404810428619385
1772697848987204600,5.01720458984375,0.06793255358934402,0.45123615860939026,0.3426956832408905
1772697848997253600,5.027253662109375,0.04396303743124008,0.42073339223861694,0.3604342043399811
1772697849007302400,5.037302490234375,0.026187237352132797,0.39224183559417725,0.3763628304004669
1772697849017350400,5.047350341796875,0.010180839337408543,0.35860928893089294,0.37895461916923523
1772697849027399400,5.0573994140625,-0.0028240582905709743,0.3143348693847656,0.35224729776382446
1772697849037448700,5.06744873046875,-0.037388961762189865,0.2647942304611206,0.2861971855163574
1772697849047496400,5.077496337890625,-0.06146742403507233,0.19721418619155884,0.22215968370437622
1772697849057545700,5.087545654296875,-0.08480843156576157,0.11975347250699997,0.19091548025608063
1772697849067594500,5.097594482421875,-0.10866858065128326,0.04315733164548874,0.1921597272157669
1772697849077643500,5.1076435546875,-0.1301001012325287,-0.039430759847164154,0.21336035430431366
1772697849087691500,5.11769140625,-0.14235727488994598,-0.10378571599721909,0.23856692016124725
1772697849097740500,5.127740478515625,-0.14838960766792297,-0.15764175355434418,0.27362051606178284
1772697849107789600,5.13778955078125,-0.14860832691192627,-0.20494341850280762,0.308626651763916
1772697849117837600,5.147837646484375,-0.14295071363449097,-0.2476421445608139,0.34589332342147827
1772697849127886600,5.157886474609375,-0.13675010204315186,-0.2791762948036194,0.37007951736450195
1772697849137935600,5.167935546875,-0.1265707015991211,-0.2806679308414459,0.3863506317138672
1772697849147983600,5.177983642578125,-0.11795901507139206,-0.24718448519706726,0.405491441488266
1772697849158032600,5.18803271484375,-0.10480433702468872,-0.18559356033802032,0.43685922026634216
1772697849168081400,5.198081298828125,-0.10835560411214828,-0.10288922488689423,0.4608580470085144
1772697849178129400,5.20812939453125,-0.10307109355926514,-0.012950547970831394,0.480131059885025
1772697849188178400,5.218178466796875,-0.09131033718585968,0.09775565564632416,0.48396843671798706
1772697849198227700,5.228227783203125,-0.06808410584926605,0.20647229254245758,0.48554527759552
1772697849208275500,5.238275390625,-0.05154712125658989,0.28978121280670166,0.48831576108932495
1772697849218324700,5.24832470703125,-0.04270409420132637,0.32845374941825867,0.48561209440231323
1772697849228373500,5.25837353515625,-0.039986368268728256,0.3331142067909241,0.5019425749778748
1772697849238421500,5.26842138671875,-0.027362452819943428,0.30316856503486633,0.5189404487609863
1772697849248470500,5.278470458984375,-0.008818774484097958,0.25931158661842346,0.5345754027366638
1772697849258519600,5.28851953125,-0.003699646098539233,0.21596835553646088,0.5515354871749878
1772697849268567600,5.298567626953125,-0.01516745239496231,0.18606017529964447,0.5774393677711487
1772697849278616600,5.308616455078125,-0.03224017843604088,0.13296791911125183,0.5955398082733154
1772697849288665600,5.31866552734375,-0.03926282748579979,0.04854573309421539,0.600114643573761
1772697849298713300,5.32871337890625,-0.01921279914677143,-0.03231462091207504,0.6008641719818115
1772697849308762600,5.3387626953125,-0.007224045693874359,-0.05654938891530037,0.607331395149231
1772697849318811600,5.348811767578125,-0.01270551048219204,-0.06013989448547363,0.643265426158905
1772697849328859600,5.358859619140625,-0.014424048364162445,-0.06533093005418777,0.6940737366676331
1772697849338908400,5.368908447265625,-0.014947121031582355,-0.06695419549942017,0.7492775917053223
1772697849348957400,5.37895751953125,-0.012537227012217045,-0.07027728855609894,0.818570613861084
1772697849359005400,5.38900537109375,-0.029568474739789963,-0.08205787092447281,0.8618699908256531
1772697849369054500,5.399054443359375,-0.025171861052513123,-0.08188530057668686,0.8926934003829956
1772697849379103700,5.409103759765625,-0.03318276256322861,-0.0773809477686882,0.9012462496757507
1772697849389151500,5.4191513671875,-0.04006996378302574,-0.08829804509878159,0.8979809284210205
1772697849399200500,5.429200439453125,-0.04310137778520584,-0.12382425367832184,0.8730113506317139
1772697849409249500,5.43924951171875,-0.0595938004553318,-0.10276556760072708,0.8391450047492981
1772697849419297500,5.449297607421875,-0.08606382459402084,-0.05947545915842056,0.7986506223678589
1772697849429346600,5.4593466796875,-0.11319397389888763,0.007987739518284798,0.7764688730239868
1772697849439395600,5.4693955078125,-0.1359143704175949,0.09956149756908417,0.7801602482795715
1772697849449443600,5.479443603515625,-0.12507371604442596,0.19735224545001984,0.7903811931610107
1772697849459492400,5.489492431640625,-0.08775045722723007,0.2523174583911896,0.7889084815979004
1772697849469541600,5.499541748046875,-0.007884655147790909,0.32608434557914734,0.7306933403015137
1772697849479589400,5.50958935546875,0.13989312946796417,0.45312225818634033,0.6206071376800537
1772697849489638700,5.519638671875,0.2798435688018799,0.576883852481842,0.5073071718215942
1772697849499687400,5.5296875,0.3633735179901123,0.7199615240097046,0.4056468605995178
1772697849509735700,5.539735595703125,0.36723989248275757,0.8886620998382568,0.3203096091747284
1772697849519784400,5.549784423828125,0.3276171088218689,0.9850655794143677,0.23937933146953583
1772697849529833500,5.55983349609375,0.26920387148857117,0.9751896858215332,0.12679217755794525
1772697849539881500,5.569881591796875,0.2091354876756668,0.8718393445014954,-0.04700198769569397
1772697849549930500,5.579930419921875,0.15614591538906097,0.6905249953269958,-0.264355331659317
1772697849559979500,5.5899794921875,0.0827084481716156,0.4908701479434967,-0.4253098666667938
1772697849570027500,5.600027587890625,-0.019149769097566605,0.33310750126838684,-0.44812101125717163
1772697849580076500,5.61007666015625,-0.1312648504972458,0.19110696017742157,-0.3481603264808655
1772697849590125600,5.62012548828125,-0.2344648540019989,0.024927053600549698,-0.1504177451133728
1772697849600173600,5.630173583984375,-0.29812827706336975,-0.18280670046806335,0.0951525941491127
1772697849610222600,5.64022265625,-0.3239178955554962,-0.3566543161869049,0.2953978478908539
1772697849620271400,5.650271240234375,-0.3102255165576935,-0.43173521757125854,0.3814677596092224
1772697849630319600,5.660319580078125,-0.25878748297691345,-0.458666056394577,0.3615668714046478
1772697849640368400,5.670368408203125,-0.1832466572523117,-0.4504174292087555,0.312690407037735
1772697849650417700,5.680417724609375,-0.10328233987092972,-0.32399722933769226,0.28028106689453125
1772697849660465400,5.69046533203125,-0.0681789442896843,-0.16834305226802826,0.2517790198326111
1772697849670514700,5.7005146484375,-0.055975280702114105,-0.12101894617080688,0.22114652395248413
1772697849680563500,5.7105634765625,-0.08551106601953506,-0.15420353412628174,0.18743783235549927
1772697849690611700,5.72061181640625,-0.12391994148492813,-0.12856481969356537,0.18040429055690765
1772697849700660500,5.730660400390625,-0.17806680500507355,-0.054488472640514374,0.1388310045003891
1772697849710709500,5.74070947265625,-0.23285743594169617,0.06540326029062271,0.06570365279912949
1772697849720757500,5.750757568359375,-0.2877334654331207,0.12413981556892395,-0.04710704833269119
1772697849730806500,5.760806640625,-0.30545148253440857,0.15378057956695557,-0.21680095791816711
1772697849740855600,5.77085546875,-0.27085861563682556,0.21725381910800934,-0.42963704466819763
1772697849750904600,5.780904541015625,-0.2048773467540741,0.2828637957572937,-0.6600381731987
1772697849760952600,5.79095263671875,-0.15084554255008698,0.3548743426799774,-0.8633963465690613
1772697849771001600,5.801001708984375,-0.12039481103420258,0.3798484206199646,-1.0040138959884644
1772697849781050400,5.81105029296875,-0.10797435790300369,0.3522820472717285,-1.069340467453003
1772697849791098600,5.8210986328125,-0.10076583176851273,0.29537537693977356,-1.0649986267089844
1772697849801147400,5.8311474609375,-0.07431504875421524,0.21324217319488525,-1.0019632577896118
1772697849811196700,5.84119677734375,-0.047479234635829926,0.10604516416788101,-0.8957861065864563
1772697849821244400,5.851244384765625,-0.04451140761375427,-0.034071192145347595,-0.7784954309463501
1772697849831293700,5.861293701171875,-0.05477442592382431,-0.20629477500915527,-0.6667086482048035
1772697849841342500,5.871342529296875,-0.07321921736001968,-0.41211026906967163,-0.5819714069366455
1772697849851390700,5.881390625,-0.11321450769901276,-0.6091809868812561,-0.5215760469436646
1772697849861439500,5.891439453125,-0.18349212408065796,-0.7281827926635742,-0.48161056637763977
1772697849871488500,5.901488525390625,-0.2405909299850464,-0.8350828886032104,-0.4410907030105591
1772697849881536500,5.91153662109375,-0.2734711170196533,-0.9342267513275146,-0.38688206672668457
1772697849891585500,5.92158544921875,-0.2808895707130432,-1.0102348327636719,-0.3341037929058075
1772697849901634600,5.931634521484375,-0.3133455216884613,-1.0129534006118774,-0.30325478315353394
1772697849911682600,5.9416826171875,-0.35988277196884155,-0.9344287514686584,-0.31250739097595215
1772697849921731600,5.951731689453125,-0.416262149810791,-0.8159939646720886,-0.36863458156585693
1772697849931780600,5.961780517578125,-0.4681471884250641,-0.7098419666290283,-0.4573015868663788
1772697849941828600,5.97182861328125,-0.5147234797477722,-0.6270312666893005,-0.5549203157424927
1772697849951877600,5.981877685546875,-0.5308616161346436,-0.572184145450592,-0.6501702666282654
1772697849961926400,5.991926513671875,-0.5340188145637512,-0.5407016277313232,-0.7159239649772644
1772697849971975200,6.00197509765625,-0.5312460064888,-0.5091425776481628,-0.7581758499145508
1772697849982024200,6.012024169921875,-0.5142697095870972,-0.44706058502197266,-0.7715912461280823
1772697849992073000,6.022072998046875,-0.499208003282547,-0.37113940715789795,-0.7647668719291687
1772697850002121200,6.032121337890625,-0.4800226092338562,-0.2867608666419983,-0.7409270405769348
1772697850012170000,6.042169921875,-0.45072996616363525,-0.20876288414001465,-0.7187780141830444
1772697850022219300,6.05221923828125,-0.38839176297187805,-0.14996960759162903,-0.6990610361099243
1772697850032268300,6.062268310546875,-0.29321572184562683,-0.08727069199085236,-0.6647526621818542
1772697850042316300,6.07231640625,-0.2007875293493271,-0.056386277079582214,-0.6025579571723938
1772697850052365000,6.082364990234375,-0.1391698271036148,-0.04844352602958679,-0.5294461250305176
1772697850062413300,6.092413330078125,-0.10231328010559082,-0.06004665046930313,-0.4599144160747528
1772697850072462000,6.102462158203125,-0.09459641575813293,-0.0994294285774231,-0.405547171831131
1772697850082511000,6.112510986328125,-0.09327682107686996,-0.19674639403820038,-0.3819768726825714
1772697850092560400,6.122560302734375,-0.1294107437133789,-0.3230510950088501,-0.3819233775138855
1772697850102608100,6.132608154296875,-0.18051254749298096,-0.4168236553668976,-0.3699151873588562
1772697850112657200,6.1426572265625,-0.21749348938465118,-0.458533376455307,-0.352151095867157
1772697850122706200,6.1527060546875,-0.22217345237731934,-0.43227142095565796,-0.3196575939655304
1772697850132754200,6.162754150390625,-0.17237795889377594,-0.4203455448150635,-0.2885207235813141
1772697850142803200,6.17280322265625,-0.10977903008460999,-0.4315494894981384,-0.26438823342323303
1772697850152852000,6.18285205078125,-0.04689052328467369,-0.4744124710559845,-0.26628559827804565
1772697850162900200,6.192900146484375,0.004374525509774685,-0.5281808972358704,-0.2698076367378235
1772697850172949000,6.202948974609375,0.022068921476602554,-0.5645498037338257,-0.25867679715156555
1772697850182998300,6.212998291015625,0.03027784824371338,-0.5581571459770203,-0.2153247892856598
1772697850193046000,6.2230458984375,0.0837584063410759,-0.4662942588329315,-0.13668270409107208
1772697850203095300,6.23309521484375,0.13891220092773438,-0.28983134031295776,-0.014072626829147339
1772697850213144000,6.24314404296875,0.17547133564949036,-0.12907612323760986,0.09621955454349518
1772697850223192300,6.2531923828125,0.17639173567295074,-0.052053503692150116,0.1585407257080078
1772697850233241000,6.263240966796875,0.17212921380996704,-0.06449215114116669,0.16668939590454102
1772697850243290000,6.2732900390625,0.18546311557292938,-0.15226007997989655,0.1349399834871292
1772697850253338000,6.283338134765625,0.22286592423915863,-0.21644915640354156,0.08881448954343796
1772697850263387100,6.29338720703125,0.2536390423774719,-0.21379639208316803,0.017745109274983406
1772697850273436200,6.303436279296875,0.27350106835365295,-0.1849948912858963,-0.03348812833428383
1772697850283484200,6.313484130859375,0.2789088785648346,-0.1401776224374771,-0.03463994711637497
1772697850293533200,6.323533203125,0.27540507912635803,-0.08038611710071564,-0.015412360429763794
1772697850303582200,6.333582275390625,0.2751384973526001,-0.08118905872106552,-0.0006954666459932923
1772697850313630200,6.343630126953125,0.28485190868377686,-0.13143718242645264,0.009407795034348965
1772697850323679200,6.35367919921875,0.30541789531707764,-0.1937761753797531,0.02005963958799839
1772697850333728000,6.36372802734375,0.3435788154602051,-0.23214606940746307,0.03249337896704674
1772697850343776300,6.3737763671875,0.37670934200286865,-0.24964597821235657,0.05595582723617554
1772697850353825000,6.383824951171875,0.38133203983306885,-0.24576520919799805,0.07134543359279633
1772697850363874300,6.393874267578125,0.3839541971683502,-0.25084388256073,0.07355213165283203
1772697850373923000,6.403923095703125,0.38603100180625916,-0.22317391633987427,0.06710422039031982
1772697850383971300,6.413971435546875,0.39555418491363525,-0.14116932451725006,0.06080770492553711
1772697850394020000,6.42402001953125,0.38770341873168945,-0.027680492028594017,0.041051726788282394
1772697850404069000,6.434069091796875,0.33999526500701904,0.05854494124650955,-0.033749546855688095
1772697850414117000,6.4441171875,0.2860133647918701,0.10657902806997299,-0.17719951272010803
1772697850424166100,6.454166259765625,0.2722876965999603,0.10610391944646835,-0.27408984303474426
1772697850434215200,6.464215087890625,0.27639153599739075,0.046153150498867035,-0.24893838167190552
1772697850444263200,6.47426318359375,0.24628876149654388,-0.02615806832909584,-0.13787177205085754
1772697850454312200,6.484312255859375,0.17861329019069672,-0.1340397447347641,-0.0786837488412857
1772697850464361200,6.494361328125,0.09762203693389893,-0.2428911328315735,-0.14959466457366943
1772697850474409200,6.5044091796875,0.029338181018829346,-0.28827476501464844,-0.2975989580154419
1772697850484458200,6.514458251953125,-0.027227092534303665,-0.2242526412010193,-0.4385718107223511
1772697850494507000,6.524507080078125,-0.0771673247218132,-0.06251384317874908,-0.5021985173225403
1772697850504555300,6.53455517578125,-0.10761790722608566,0.13677024841308594,-0.48607176542282104
1772697850514604000,6.54460400390625,-0.1612054407596588,0.18319310247898102,-0.43670856952667236
1772697850524653300,6.5546533203125,-0.2208205759525299,0.010042635723948479,-0.3919118046760559
1772697850534701000,6.564701171875,-0.2444378137588501,-0.34796181321144104,-0.3662039339542389
1772697850544750300,6.574750244140625,-0.24522343277931213,-0.7343279123306274,-0.40175366401672363
1772697850554799000,6.584799072265625,-0.22429347038269043,-0.9535666108131409,-0.5227413177490234
1772697850564847000,6.59484716796875,-0.19930343329906464,-0.9568249583244324,-0.6962392926216125
1772697850574896000,6.604896240234375,-0.16395945847034454,-0.78608238697052,-0.8399323225021362
1772697850584945200,6.614945068359375,-0.09651222825050354,-0.4227798283100128,-0.8144384026527405
1772697850594993200,6.6249931640625,-0.009266332723200321,0.15123087167739868,-0.5343234539031982
1772697850605042200,6.635042236328125,-0.00003102270420640707,0.652859628200531,-0.21251876652240753
1772697850615091200,6.64509130859375,-0.0353267602622509,0.7935276627540588,-0.07778089493513107
1772697850625139200,6.65513916015625,-0.07021337002515793,0.6693000197410583,-0.05212187021970749
1772697850635188200,6.665188232421875,-0.12070249021053314,0.4467616379261017,-0.08971893787384033
1772697850645237200,6.6752373046875,-0.15011949837207794,0.2735261917114258,-0.15992571413516998
1772697850655285200,6.68528515625,-0.17135965824127197,0.16071872413158417,-0.26866817474365234
1772697850665334300,6.695334228515625,-0.1958165317773819,0.1272057741880417,-0.3593860864639282
1772697850675383000,6.705383056640625,-0.20925216376781464,0.19306021928787231,-0.37452933192253113
1772697850685432300,6.715432373046875,-0.21453773975372314,0.35548749566078186,-0.29008156061172485
1772697850695480000,6.72547998046875,-0.19584612548351288,0.49857357144355774,-0.18786291778087616
1772697850705529000,6.735529052734375,-0.19239574670791626,0.47501763701438904,-0.131593257188797
1772697850715578000,6.745578125,-0.19797271490097046,0.33810386061668396,-0.11795364320278168
1772697850725626000,6.755626220703125,-0.21762098371982574,0.21809621155261993,-0.11088454723358154
1772697850735675100,6.765675048828125,-0.23160965740680695,0.1032140702009201,-0.1398642659187317
1772697850745724200,6.77572412109375,-0.22897446155548096,0.03267572447657585,-0.1988181322813034
1772697850755772200,6.785772216796875,-0.20449747145175934,0.06961396336555481,-0.2382255643606186
1772697850765821200,6.7958212890625,-0.17650072276592255,0.22057631611824036,-0.24599319696426392
1772697850775870200,6.8058701171875,-0.15752297639846802,0.3507137894630432,-0.2235623300075531
1772697850785918200,6.815918212890625,-0.13697774708271027,0.3835465908050537,-0.2017507702112198
1772697850795967000,6.825967041015625,-0.12662844359874725,0.33002927899360657,-0.1813882440328598
1772697850806016300,6.836016357421875,-0.1160421147942543,0.22490473091602325,-0.16429075598716736
1772697850816064000,6.84606396484375,-0.11175089329481125,0.14778485894203186,-0.13187070190906525
1772697850826113300,6.85611328125,-0.11178471148014069,0.14875158667564392,-0.10061769187450409
1772697850836162000,6.866162109375,-0.11940018087625504,0.17627081274986267,-0.10353807359933853
1772697850846210300,6.876210205078125,-0.1273190975189209,0.19962167739868164,-0.14388468861579895
1772697850856259000,6.886259033203125,-0.1234254315495491,0.20782941579818726,-0.19123154878616333
1772697850866308000,6.89630810546875,-0.10826192796230316,0.20860998332500458,-0.22818370163440704
1772697850876356000,6.906356201171875,-0.09466476738452911,0.20852722227573395,-0.2673592269420624
1772697850886405000,6.916405029296875,-0.10423776507377625,0.21724428236484528,-0.27803611755371094
1772697850896454100,6.9264541015625,-0.10811923444271088,0.27121222019195557,-0.23262722790241241
1772697850906502100,6.936502197265625,-0.09858618676662445,0.2698364555835724,-0.1702490597963333
1772697850916551200,6.94655126953125,-0.0751793161034584,0.1868981122970581,-0.10707323253154755
1772697850926600200,6.95660009765625,-0.05308520048856735,0.09846518933773041,-0.07123321294784546
1772697850936649000,6.96664892578125,-0.03943241015076637,0.03000718355178833,-0.05730437487363815
1772697850946697200,6.976697265625,-0.0343492329120636,-0.003408297896385193,-0.06784889101982117
1772697850956746000,6.98674609375,-0.03826432302594185,-0.021694019436836243,-0.09962119162082672
1772697850966794500,6.99679443359375,-0.04146863892674446,-0.052691616117954254,-0.14273935556411743
1772697850976842800,7.0068427734375,-0.039446841925382614,-0.0775042399764061,-0.16560956835746765
1772697850986891500,7.0168916015625,-0.03600071370601654,-0.07199682295322418,-0.15152117609977722
1772697850996940500,7.0269404296875,-0.03196599707007408,-0.046865031123161316,-0.12886779010295868
1772697851006988500,7.036988525390625,-0.02937554009258747,-0.0030688182450830936,-0.10091818124055862
1772697851017037600,7.04703759765625,-0.02987014502286911,0.03387387841939926,-0.09271221607923508
1772697851027086600,7.057086669921875,-0.034893397241830826,0.06756553053855896,-0.094597727060318
1772697851037134600,7.067134521484375,-0.038309525698423386,0.10978952050209045,-0.11060623079538345
1772697851047183600,7.07718359375,-0.03803788125514984,0.16719581186771393,-0.12456066161394119
1772697851057232600,7.087232666015625,-0.0431252084672451,0.20826056599617004,-0.12901091575622559
1772697851067280600,7.09728076171875,-0.040625035762786865,0.19898264110088348,-0.11797451227903366
1772697851077329700,7.10732958984375,-0.030456164851784706,0.16153590381145477,-0.10223230719566345
1772697851087378400,7.11737841796875,-0.0248161219060421,0.11305598169565201,-0.08798199892044067
1772697851097426700,7.1274267578125,-0.02696380950510502,0.07244610786437988,-0.06759272515773773
1772697851107475500,7.137475341796875,-0.027767285704612732,0.02759714610874653,-0.05332857370376587
1772697851117524700,7.147524658203125,-0.03291721269488335,-0.02085251361131668,-0.05598029866814613
1772697851127572500,7.157572509765625,-0.0392179861664772,-0.059877678751945496,-0.0667133778333664
1772697851137621800,7.167621826171875,-0.045144617557525635,-0.06994247436523438,-0.06698380410671234
1772697851147670500,7.17767041015625,-0.04052243381738663,-0.02979425899684429,-0.06298799067735672
1772697851157718800,7.18771875,-0.03398946672677994,0.04747664928436279,-0.03727608919143677
1772697851167767600,7.197767578125,-0.036200426518917084,0.07131993025541306,-0.017747394740581512
1772697851177816600,7.207816650390625,-0.03566459193825722,0.07513847947120667,-0.012701399624347687
1772697851187864600,7.217864501953125,-0.02207900770008564,0.07432089000940323,-0.006950302980840206
1772697851197913600,7.22791357421875,-0.005897819064557552,0.06924308836460114,0.004293705336749554
1772697851207962600,7.237962646484375,0.008660084567964077,-0.1438678503036499,0.1513851433992386
1772697851218011600,7.24801171875,-0.0081559456884861,-0.32918328046798706,0.11988915503025055
1772697851228059600,7.2580595703125,-0.00963533204048872,-0.4906297028064728,0.06970002502202988
1772697851238108700,7.268108642578125,0.0021333564072847366,-0.6013725399971008,0.07292870432138443
1772697851248157400,7.278157470703125,0.0037807878106832504,-0.6622582674026489,0.1019076257944107
1772697851258205700,7.288205810546875,-0.02042361907660961,-0.6405969262123108,0.08333926647901535
1772697851268254500,7.29825439453125,-0.05001719668507576,-0.47681567072868347,0.007919339463114738
1772697851278303700,7.3083037109375,-0.07602106779813766,-0.2059943974018097,-0.06946401298046112
1772697851288351500,7.3183515625,-0.04332224652171135,0.12300028651952744,-0.09947118163108826
1772697851298400800,7.32840087890625,-0.021653231233358383,0.3823326826095581,-0.11228867620229721
1772697851308449500,7.338449462890625,-0.034722428768873215,0.5716784000396729,-0.10978876799345016
1772697851318497500,7.34849755859375,-0.05999002978205681,0.6522866487503052,-0.10632359236478806
1772697851328546600,7.358546630859375,-0.06942906975746155,0.6262571811676025,-0.10607032477855682
