time,seconds_elapsed,z,y,x
1772702635778543900,0.0565439453125,-0.3746795654296875,0.449005126953125,0.79595947265625
1772702635788594000,0.066593994140625,-0.34307861328125,0.452362060546875,0.7801361083984375
1772702635798644000,0.07664404296875,-0.32611083984375,0.4573516845703125,0.772979736328125
1772702635808693800,0.08669384765625,-0.3410186767578125,0.4657745361328125,0.7618408203125
1772702635818743000,0.096742919921875,-0.3663787841796875,0.4633941650390625,0.7632904052734375
1772702635828793000,0.10679296875,-0.3946075439453125,0.4695892333984375,0.7932586669921875
1772702635838843000,0.1168427734375,-0.3950958251953125,0.4604949951171875,0.7865142822265625
1772702635848892700,0.126892578125,-0.3971405029296875,0.4561767578125,0.7969512939453125
1772702635858942700,0.136942626953125,-0.396026611328125,0.451934814453125,0.79229736328125
1772702635868992800,0.14699267578125,-0.3876495361328125,0.44769287109375,0.7877044677734375
1772702635879042800,0.157042724609375,-0.3748779296875,0.45562744140625,0.808074951171875
1772702635889092600,0.167092529296875,-0.3633270263671875,0.4585113525390625,0.810455322265625
1772702635899142700,0.177142578125,-0.359130859375,0.461456298828125,0.8166656494140625
1772702635909192000,0.18719189453125,-0.3619842529296875,0.4651031494140625,0.814483642578125
1772702635919242000,0.197241943359375,-0.3686981201171875,0.467437744140625,0.8123931884765625
1772702635929291800,0.207291748046875,-0.373046875,0.4737091064453125,0.8050689697265625
1772702635939341800,0.217341796875,-0.3733978271484375,0.4711761474609375,0.8081512451171875
1772702635949392000,0.227391845703125,-0.369293212890625,0.4715728759765625,0.8115081787109375
1772702635959442000,0.23744189453125,-0.3766326904296875,0.471160888671875,0.8096466064453125
1772702635969491700,0.24749169921875,-0.38458251953125,0.4614715576171875,0.8027496337890625
1772702635979541800,0.257541748046875,-0.3841094970703125,0.4603729248046875,0.810211181640625
1772702635989591800,0.267591796875,-0.3795623779296875,0.45892333984375,0.81494140625
1772702635999641900,0.277641845703125,-0.3751068115234375,0.453094482421875,0.8146820068359375
1772702636009691000,0.28769091796875,-0.371185302734375,0.4538726806640625,0.810516357421875
1772702636019741000,0.297740966796875,-0.369476318359375,0.4543609619140625,0.805877685546875
1772702636029791000,0.307791015625,-0.3686370849609375,0.45648193359375,0.80548095703125
1772702636039840800,0.3178408203125,-0.3718719482421875,0.457611083984375,0.809539794921875
1772702636049890800,0.327890869140625,-0.38055419921875,0.4567108154296875,0.8160858154296875
1772702636059940900,0.33794091796875,-0.391693115234375,0.455841064453125,0.8194732666015625
1772702636069991000,0.347990966796875,-0.400146484375,0.4560699462890625,0.8242340087890625
1772702636080040700,0.358040771484375,-0.3992767333984375,0.4504241943359375,0.8297882080078125
1772702636090090800,0.3680908203125,-0.395599365234375,0.4423828125,0.8255767822265625
1772702636100139800,0.378139892578125,-0.3866729736328125,0.44122314453125,0.82171630859375
1772702636110189800,0.38818994140625,-0.3799896240234375,0.4415740966796875,0.81939697265625
1772702636120239600,0.398239501953125,-0.376190185546875,0.4428253173828125,0.8182220458984375
1772702636130290000,0.4082900390625,-0.38543701171875,0.4406280517578125,0.8201141357421875
1772702636140340000,0.418340087890625,-0.39251708984375,0.4403839111328125,0.81488037109375
1772702636150390000,0.42839013671875,-0.394287109375,0.4416351318359375,0.8051605224609375
1772702636160439800,0.438439697265625,-0.3948211669921875,0.44586181640625,0.7988128662109375
1772702636170489900,0.44848974609375,-0.391937255859375,0.44268798828125,0.797576904296875
1772702636180540000,0.458539794921875,-0.3875885009765625,0.439208984375,0.804931640625
1772702636190590000,0.46858984375,-0.3866119384765625,0.43646240234375,0.8123016357421875
1772702636200638700,0.478638671875,-0.3856353759765625,0.44207763671875,0.793487548828125
1772702636210688800,0.488688720703125,-0.4007110595703125,0.4395751953125,0.78594970703125
1772702636220738800,0.49873876953125,-0.384613037109375,0.419677734375,0.8111419677734375
1772702636230788600,0.50878857421875,-0.3675079345703125,0.4290008544921875,0.8092041015625
1772702636240838700,0.518838623046875,-0.3758697509765625,0.4607391357421875,0.802215576171875
1772702636250888700,0.528888671875,-0.4022979736328125,0.4712677001953125,0.7911224365234375
1772702636260939000,0.53893896484375,-0.4091796875,0.464141845703125,0.79498291015625
1772702636270988800,0.54898876953125,-0.401763916015625,0.4600677490234375,0.786224365234375
1772702636281038800,0.559038818359375,-0.3891754150390625,0.4596710205078125,0.79632568359375
1772702636291089000,0.5690888671875,-0.37286376953125,0.461151123046875,0.7998046875
1772702636301137700,0.5791376953125,-0.369476318359375,0.4664154052734375,0.8029632568359375
1772702636311187700,0.589187744140625,-0.3524169921875,0.455718994140625,0.8133697509765625
1772702636321237800,0.59923779296875,-0.358367919921875,0.4827117919921875,0.782623291015625
1772702636331287800,0.609287841796875,-0.377197265625,0.4871978759765625,0.7908935546875
1772702636341337600,0.619337646484375,-0.38055419921875,0.479278564453125,0.7938385009765625
1772702636351387600,0.6293876953125,-0.37042236328125,0.4669036865234375,0.79937744140625
1772702636361437700,0.639437744140625,-0.36383056640625,0.4657135009765625,0.805419921875
1772702636371487700,0.64948779296875,-0.361785888671875,0.466400146484375,0.8165740966796875
1772702636381537800,0.659537841796875,-0.359527587890625,0.47021484375,0.8129730224609375
1772702636391587800,0.669587890625,-0.3620452880859375,0.468841552734375,0.8069915771484375
1772702636401636900,0.679636962890625,-0.367156982421875,0.46282958984375,0.8094024658203125
1772702636411687000,0.68968701171875,-0.366241455078125,0.460906982421875,0.81451416015625
1772702636421736700,0.69973681640625,-0.3612823486328125,0.4600982666015625,0.8155517578125
1772702636431786800,0.709786865234375,-0.3535919189453125,0.4685821533203125,0.8021697998046875
1772702636441836800,0.7198369140625,-0.3553314208984375,0.4735107421875,0.7990875244140625
1772702636451886800,0.729886962890625,-0.365203857421875,0.4691314697265625,0.8005218505859375
1772702636461936600,0.7399365234375,-0.3748779296875,0.4662017822265625,0.7965087890625
1772702636471986700,0.749986572265625,-0.3827056884765625,0.4673004150390625,0.794464111328125
1772702636482036700,0.76003662109375,-0.386199951171875,0.4703216552734375,0.7897491455078125
1772702636492086800,0.770086669921875,-0.3844757080078125,0.4720306396484375,0.7865753173828125
1772702636502135800,0.7801357421875,-0.3769989013671875,0.47393798828125,0.793670654296875
1772702636512185900,0.790185791015625,-0.3617095947265625,0.476165771484375,0.802886962890625
1772702636522236000,0.80023583984375,-0.34722900390625,0.477569580078125,0.80828857421875
1772702636532285700,0.81028564453125,-0.338623046875,0.472869873046875,0.8148040771484375
1772702636542335700,0.820335693359375,-0.3448486328125,0.4772491455078125,0.805633544921875
1772702636552385800,0.8303857421875,-0.356597900390625,0.48272705078125,0.79119873046875
1772702636562435800,0.840435791015625,-0.3640289306640625,0.482147216796875,0.7752838134765625
1772702636572485600,0.850485595703125,-0.369232177734375,0.483734130859375,0.770172119140625
1772702636582535700,0.86053564453125,-0.373291015625,0.485382080078125,0.7847137451171875
1772702636592585700,0.870585693359375,-0.3685455322265625,0.48394775390625,0.8201751708984375
1772702636602635000,0.880635009765625,-0.3529205322265625,0.487457275390625,0.854400634765625
1772702636612684800,0.890684814453125,-0.337493896484375,0.49267578125,0.861968994140625
1772702636622734800,0.90073486328125,-0.333343505859375,0.4873046875,0.838165283203125
1772702636632785000,0.910784912109375,-0.3214111328125,0.47894287109375,0.8061065673828125
1772702636642835000,0.9208349609375,-0.34136962890625,0.4857177734375,0.80230712890625
1772702636652884700,0.930884765625,-0.347869873046875,0.466827392578125,0.793731689453125
1772702636662934800,0.940934814453125,-0.3471832275390625,0.4616851806640625,0.801422119140625
1772702636672984800,0.95098486328125,-0.357177734375,0.45306396484375,0.8212127685546875
1772702636683035000,0.961034912109375,-0.3437652587890625,0.43707275390625,0.812347412109375
1772702636693084700,0.971084716796875,-0.34844970703125,0.4513092041015625,0.8345794677734375
1772702636703133700,0.9811337890625,-0.3365020751953125,0.447845458984375,0.820770263671875
1772702636713184000,0.99118408203125,-0.3456878662109375,0.4525604248046875,0.8269195556640625
1772702636723233800,1.00123388671875,-0.338165283203125,0.4335479736328125,0.798583984375
1772702636733283800,1.011283935546875,-0.349273681640625,0.4356536865234375,0.809906005859375
1772702636743334000,1.021333984375,-0.3446044921875,0.436798095703125,0.7940673828125
1772702636753384000,1.031384033203125,-0.34271240234375,0.4535369873046875,0.809661865234375
1772702636763433700,1.041433837890625,-0.34332275390625,0.45880126953125,0.8336334228515625
1772702636773483800,1.05148388671875,-0.33734130859375,0.4586334228515625,0.851409912109375
1772702636783533800,1.061533935546875,-0.3329925537109375,0.4610137939453125,0.857177734375
1772702636793583900,1.071583984375,-0.327484130859375,0.4578857421875,0.8369140625
1772702636803632600,1.081632568359375,-0.3241119384765625,0.4600372314453125,0.8278656005859375
1772702636813682700,1.0916826171875,-0.3206634521484375,0.4656524658203125,0.826629638671875
1772702636823732700,1.101732666015625,-0.3213348388671875,0.4731292724609375,0.831207275390625
1772702636833782800,1.11178271484375,-0.323150634765625,0.4777069091796875,0.8410797119140625
1772702636843833600,1.12183349609375,-0.3268280029296875,0.47314453125,0.856292724609375
1772702636853883600,1.131883544921875,-0.329620361328125,0.4598388671875,0.8603668212890625
1772702636863933700,1.14193359375,-0.3310394287109375,0.455474853515625,0.8630828857421875
1772702636873983700,1.151983642578125,-0.337860107421875,0.4600677490234375,0.8675994873046875
1772702636884033800,1.16203369140625,-0.3380889892578125,0.46466064453125,0.8682403564453125
1772702636894083800,1.172083740234375,-0.33831787109375,0.46826171875,0.8614501953125
1772702636904132600,1.182132568359375,-0.3408966064453125,0.471466064453125,0.857452392578125
1772702636914182700,1.1921826171875,-0.346527099609375,0.4718475341796875,0.851318359375
1772702636924232700,1.202232666015625,-0.3513336181640625,0.458282470703125,0.8371429443359375
1772702636934282800,1.21228271484375,-0.33795166015625,0.4513397216796875,0.8146514892578125
1772702636944332500,1.22233251953125,-0.3663177490234375,0.4645538330078125,0.836517333984375
1772702636954382600,1.232382568359375,-0.3742218017578125,0.45147705078125,0.806884765625
1772702636964432600,1.2424326171875,-0.3707275390625,0.4454498291015625,0.7899017333984375
1772702636974482700,1.252482666015625,-0.3787689208984375,0.4695587158203125,0.7624969482421875
1772702636984532700,1.26253271484375,-0.4033660888671875,0.48040771484375,0.777313232421875
1772702636994581800,1.272581787109375,-0.379547119140625,0.438812255859375,0.8097686767578125
1772702637004631800,1.2826318359375,-0.3096771240234375,0.3905181884765625,0.8597259521484375
1772702637014681900,1.292681884765625,-0.2490081787109375,0.3966522216796875,0.868682861328125
1772702637024731600,1.302731689453125,-0.2303009033203125,0.4145660400390625,0.865997314453125
1772702637034781700,1.31278173828125,-0.242340087890625,0.4313507080078125,0.849884033203125
1772702637044831700,1.322831787109375,-0.287261962890625,0.447967529296875,0.828948974609375
1772702637054881800,1.3328818359375,-0.3408660888671875,0.4633331298828125,0.8379364013671875
1772702637064931600,1.342931640625,-0.36431884765625,0.4776458740234375,0.8326416015625
1772702637074981600,1.352981689453125,-0.3548583984375,0.4852447509765625,0.8310394287109375
1772702637085031700,1.36303173828125,-0.34619140625,0.4952545166015625,0.849578857421875
1772702637095080700,1.373080810546875,-0.3203887939453125,0.4846038818359375,0.848876953125
1772702637105130800,1.383130859375,-0.316864013671875,0.4830780029296875,0.8612823486328125
1772702637115180800,1.393180908203125,-0.3119049072265625,0.477264404296875,0.8593292236328125
1772702637125230800,1.40323095703125,-0.306610107421875,0.4684906005859375,0.858306884765625
1772702637135280600,1.41328076171875,-0.302703857421875,0.4670867919921875,0.861907958984375
1772702637145330700,1.42333056640625,-0.299072265625,0.461883544921875,0.850738525390625
1772702637155380700,1.433380615234375,-0.3047027587890625,0.45904541015625,0.8370208740234375
1772702637165430800,1.4434306640625,-0.3126068115234375,0.45294189453125,0.825958251953125
1772702637175480600,1.45348046875,-0.3165130615234375,0.4511260986328125,0.820556640625
1772702637185530600,1.463530517578125,-0.3207244873046875,0.451934814453125,0.824554443359375
1772702637195579600,1.47357958984375,-0.314697265625,0.4506072998046875,0.8172760009765625
1772702637205630000,1.4836298828125,-0.311767578125,0.4519805908203125,0.8430328369140625
1772702637215679700,1.4936796875,-0.29345703125,0.447479248046875,0.8518218994140625
1772702637225729800,1.503729736328125,-0.29522705078125,0.4618682861328125,0.878631591796875
1772702637235779800,1.51377978515625,-0.2864837646484375,0.4600677490234375,0.854278564453125
1772702637245830000,1.523829833984375,-0.2902069091796875,0.4597320556640625,0.863372802734375
1772702637255879700,1.533879638671875,-0.2926788330078125,0.4630126953125,0.8626556396484375
1772702637265929700,1.5439296875,-0.2939910888671875,0.4655303955078125,0.8551177978515625
1772702637275979800,1.553979736328125,-0.2908782958984375,0.4546661376953125,0.8325042724609375
1772702637286028500,1.564028564453125,-0.2830657958984375,0.44287109375,0.8048858642578125
1772702637296078600,1.57407861328125,-0.277435302734375,0.4353790283203125,0.7911224365234375
1772702637306128600,1.584128662109375,-0.27496337890625,0.439483642578125,0.782958984375
1772702637316178700,1.5941787109375,-0.287841796875,0.4568023681640625,0.8030853271484375
1772702637326228700,1.604228759765625,-0.30963134765625,0.465087890625,0.835662841796875
1772702637336278800,1.61427880859375,-0.3154449462890625,0.4656524658203125,0.8363494873046875
1772702637346328800,1.624328857421875,-0.3260345458984375,0.4765167236328125,0.84356689453125
1772702637356379000,1.63437890625,-0.3256988525390625,0.4774169921875,0.8205108642578125
1772702637366428700,1.6444287109375,-0.3249969482421875,0.4800262451171875,0.8092498779296875
1772702637376478700,1.654478759765625,-0.31927490234375,0.479766845703125,0.80908203125
1772702637386527700,1.66452783203125,-0.3098297119140625,0.486785888671875,0.8368377685546875
1772702637396577800,1.674577880859375,-0.3098297119140625,0.4790802001953125,0.8339080810546875
1772702637406627600,1.684627685546875,-0.3060760498046875,0.4557952880859375,0.822723388671875
1772702637416677600,1.694677734375,-0.3121185302734375,0.451019287109375,0.8265228271484375
1772702637426727700,1.704727783203125,-0.3192901611328125,0.4454193115234375,0.8097686767578125
1772702637436777700,1.71477783203125,-0.312103271484375,0.43988037109375,0.8007965087890625
1772702637446827800,1.724827880859375,-0.29638671875,0.445037841796875,0.79833984375
1772702637456877800,1.7348779296875,-0.279876708984375,0.4497222900390625,0.8072052001953125
1772702637466927900,1.744927978515625,-0.273712158203125,0.4497222900390625,0.8180084228515625
1772702637476976600,1.7549765625,-0.2765960693359375,0.4353179931640625,0.8137054443359375
1772702637487026700,1.765026611328125,-0.299530029296875,0.4320526123046875,0.8409271240234375
1772702637497076700,1.77507666015625,-0.3155517578125,0.4293975830078125,0.8550567626953125
1772702637507126800,1.785126708984375,-0.3203887939453125,0.4397430419921875,0.8627471923828125
1772702637517176600,1.795176513671875,-0.31201171875,0.4489288330078125,0.8546600341796875
1772702637527226600,1.8052265625,-0.32391357421875,0.4602813720703125,0.85638427734375
1772702637537276700,1.815276611328125,-0.329193115234375,0.4583282470703125,0.854522705078125
1772702637547326700,1.82532666015625,-0.320098876953125,0.4557952880859375,0.85302734375
1772702637557376500,1.83537646484375,-0.305023193359375,0.4525146484375,0.84881591796875
1772702637567426600,1.845426513671875,-0.293701171875,0.4492950439453125,0.851654052734375
1772702637577475800,1.855475830078125,-0.2826385498046875,0.4423675537109375,0.857666015625
1772702637587525600,1.865525634765625,-0.275054931640625,0.4386749267578125,0.8645172119140625
1772702637597575700,1.87557568359375,-0.2719879150390625,0.4351043701171875,0.8685455322265625
1772702637607625700,1.885625732421875,-0.2761688232421875,0.433502197265625,0.869537353515625
1772702637617675800,1.89567578125,-0.28533935546875,0.4304962158203125,0.866058349609375
1772702637627725600,1.9057255859375,-0.2953033447265625,0.431182861328125,0.85931396484375
1772702637637775600,1.915775634765625,-0.3037261962890625,0.4350128173828125,0.8576812744140625
1772702637647825700,1.92582568359375,-0.3033905029296875,0.437896728515625,0.8577880859375
1772702637657875700,1.935875732421875,-0.3040618896484375,0.4387054443359375,0.8565216064453125
1772702637667924700,1.9459248046875,-0.3047332763671875,0.43939208984375,0.854522705078125
1772702637677974800,1.955974853515625,-0.3041839599609375,0.4340362548828125,0.8495941162109375
1772702637688024800,1.96602490234375,-0.3018646240234375,0.4315948486328125,0.84735107421875
1772702637698075000,1.976074951171875,-0.3005218505859375,0.43133544921875,0.8426361083984375
1772702637708124700,1.986124755859375,-0.3003082275390625,0.4308319091796875,0.83551025390625
1772702637718174700,1.9961748046875,-0.30438232421875,0.430267333984375,0.8323211669921875
1772702637728224800,2.006224853515625,-0.30816650390625,0.4332275390625,0.8323822021484375
1772702637738274800,2.01627490234375,-0.309356689453125,0.4360198974609375,0.8358306884765625
1772702637748324600,2.02632470703125,-0.306915283203125,0.435455322265625,0.83990478515625
1772702637758374700,2.036374755859375,-0.308349609375,0.4335784912109375,0.8473968505859375
1772702637768423700,2.046423583984375,-0.3097686767578125,0.43243408203125,0.8475494384765625
1772702637778473700,2.0564736328125,-0.3094329833984375,0.4289093017578125,0.8436279296875
1772702637788523800,2.066523681640625,-0.3106536865234375,0.432159423828125,0.8446807861328125
1772702637798573800,2.07657373046875,-0.31060791015625,0.435943603515625,0.8516387939453125
1772702637808623900,2.086623779296875,-0.3074951171875,0.43670654296875,0.8575897216796875
1772702637818673700,2.096673583984375,-0.3031158447265625,0.435394287109375,0.8620452880859375
1772702637828723700,2.1067236328125,-0.3019866943359375,0.43670654296875,0.854156494140625
1772702637838773800,2.116773681640625,-0.3038177490234375,0.435821533203125,0.8406982421875
1772702637848823300,2.1268232421875,-0.3127288818359375,0.4346160888671875,0.83892822265625
1772702637858872000,2.1368720703125,-0.3178253173828125,0.4371795654296875,0.8431854248046875
1772702637868922000,2.146922119140625,-0.3219757080078125,0.4406585693359375,0.843017578125
1772702637878972400,2.156972412109375,-0.322296142578125,0.4422149658203125,0.841400146484375
1772702637889022200,2.167022216796875,-0.322265625,0.443511962890625,0.83843994140625
1772702637899072300,2.177072265625,-0.318817138671875,0.4412841796875,0.8354034423828125
1772702637909122300,2.187122314453125,-0.314239501953125,0.4384918212890625,0.837921142578125
1772702637919172400,2.19717236328125,-0.3134918212890625,0.44189453125,0.844818115234375
1772702637929222100,2.20722216796875,-0.3116607666015625,0.442657470703125,0.8532867431640625
1772702637939272200,2.217272216796875,-0.3103790283203125,0.4439697265625,0.850189208984375
1772702637949322200,2.227322265625,-0.3092041015625,0.4440765380859375,0.8431396484375
1772702637959371300,2.237371337890625,-0.3094482421875,0.44366455078125,0.8331298828125
1772702637969421000,2.247421142578125,-0.3118133544921875,0.440093994140625,0.8310089111328125
1772702637979471000,2.25747119140625,-0.3124542236328125,0.4349822998046875,0.83685302734375
1772702637989521200,2.267521240234375,-0.308380126953125,0.4320831298828125,0.8436279296875
1772702637999571200,2.2775712890625,-0.305023193359375,0.43157958984375,0.851104736328125
1772702638009621200,2.287621337890625,-0.3010406494140625,0.4345245361328125,0.8494720458984375
1772702638019671300,2.29767138671875,-0.3028717041015625,0.43389892578125,0.844635009765625
1772702638029721300,2.307721435546875,-0.3076934814453125,0.4355926513671875,0.84320068359375
1772702638039771400,2.317771484375,-0.3107452392578125,0.4360809326171875,0.842254638671875
1772702638049820200,2.327820068359375,-0.3099517822265625,0.437652587890625,0.8434600830078125
1772702638059870200,2.3378701171875,-0.305450439453125,0.43865966796875,0.8507080078125
1772702638069920300,2.347920166015625,-0.3051605224609375,0.438873291015625,0.855377197265625
1772702638079970000,2.357969970703125,-0.3069000244140625,0.4383392333984375,0.8558349609375
1772702638090020000,2.36802001953125,-0.3117218017578125,0.43536376953125,0.853912353515625
1772702638100070100,2.378070068359375,-0.31573486328125,0.436981201171875,0.8551483154296875
1772702638110120200,2.3881201171875,-0.3148040771484375,0.4370880126953125,0.8455963134765625
1772702638120170200,2.398170166015625,-0.316375732421875,0.436279296875,0.8400115966796875
1772702638130220300,2.40822021484375,-0.3167572021484375,0.434326171875,0.8430328369140625
1772702638140269300,2.418269287109375,-0.3173980712890625,0.4352569580078125,0.8439483642578125
1772702638150319000,2.428319091796875,-0.3154449462890625,0.4398345947265625,0.8427734375
1772702638160369200,2.438369140625,-0.3129730224609375,0.44549560546875,0.839080810546875
1772702638170419200,2.448419189453125,-0.3175506591796875,0.4497528076171875,0.83013916015625
1772702638180469200,2.45846923828125,-0.32476806640625,0.455841064453125,0.82586669921875
1772702638190519300,2.468519287109375,-0.3262786865234375,0.4640350341796875,0.8289642333984375
1772702638200569000,2.478569091796875,-0.3265380859375,0.473724365234375,0.8348236083984375
1772702638210619100,2.488619140625,-0.3314361572265625,0.47857666015625,0.844085693359375
1772702638220669200,2.498669189453125,-0.3289794921875,0.4711151123046875,0.8424224853515625
1772702638230719200,2.50871923828125,-0.3243560791015625,0.4651641845703125,0.83575439453125
1772702638240768300,2.518768310546875,-0.319610595703125,0.4539031982421875,0.8268585205078125
1772702638250818300,2.528818359375,-0.310333251953125,0.445068359375,0.8254241943359375
1772702638260868400,2.538868408203125,-0.30706787109375,0.441925048828125,0.8302154541015625
1772702638270918100,2.548918212890625,-0.3063201904296875,0.442352294921875,0.8369903564453125
1772702638280968200,2.55896826171875,-0.305328369140625,0.4413299560546875,0.8411407470703125
1772702638291018200,2.569018310546875,-0.3099365234375,0.4412994384765625,0.841552734375
1772702638301068300,2.579068359375,-0.315093994140625,0.4447784423828125,0.8467254638671875
1772702638311118000,2.5891181640625,-0.3147125244140625,0.447296142578125,0.844512939453125
1772702638321168100,2.599168212890625,-0.315216064453125,0.452789306640625,0.8585662841796875
1772702638331217400,2.609217529296875,-0.3078155517578125,0.44873046875,0.8580780029296875
1772702638341267200,2.61926708984375,-0.3021087646484375,0.443084716796875,0.86224365234375
1772702638351317200,2.629317138671875,-0.3034820556640625,0.4382171630859375,0.8566741943359375
1772702638361367300,2.6393671875,-0.3102569580078125,0.42864990234375,0.848419189453125
1772702638371417300,2.649417236328125,-0.3140869140625,0.424102783203125,0.8450469970703125
1772702638381467100,2.659467041015625,-0.313446044921875,0.431671142578125,0.8541412353515625
1772702638391517200,2.66951708984375,-0.306732177734375,0.438140869140625,0.8562469482421875
1772702638401567200,2.679567138671875,-0.3043365478515625,0.442626953125,0.8533172607421875
1772702638411617300,2.6896171875,-0.30133056640625,0.441436767578125,0.8446502685546875
1772702638421666000,2.699666015625,-0.3049468994140625,0.4417724609375,0.8330535888671875
1772702638431716000,2.709716064453125,-0.3107147216796875,0.4394989013671875,0.8284759521484375
1772702638441766100,2.71976611328125,-0.3128204345703125,0.439178466796875,0.826690673828125
1772702638451816400,2.72981640625,-0.313262939453125,0.440765380859375,0.8308563232421875
1772702638461866200,2.7398662109375,-0.3104095458984375,0.440765380859375,0.8380279541015625
1772702638471916300,2.749916259765625,-0.3088226318359375,0.4366302490234375,0.83990478515625
1772702638481966300,2.75996630859375,-0.30865478515625,0.433197021484375,0.8373260498046875
1772702638492016400,2.770016357421875,-0.30511474609375,0.43701171875,0.8352813720703125
1772702638502066200,2.780066162109375,-0.3075714111328125,0.4412841796875,0.8355712890625
1772702638512116200,2.7901162109375,-0.309417724609375,0.440093994140625,0.838836669921875
1772702638522165200,2.800165283203125,-0.309906005859375,0.4400482177734375,0.839447021484375
1772702638532215000,2.810215087890625,-0.3103179931640625,0.4373779296875,0.84100341796875
1772702638542265000,2.82026513671875,-0.3101043701171875,0.43438720703125,0.8432769775390625
1772702638552315100,2.830315185546875,-0.308197021484375,0.43572998046875,0.8488006591796875
1772702638562365200,2.840365234375,-0.3079071044921875,0.43548583984375,0.851470947265625
1772702638572415200,2.850415283203125,-0.305999755859375,0.4357757568359375,0.845947265625
1772702638582465300,2.86046533203125,-0.309814453125,0.4365386962890625,0.84307861328125
1772702638592515300,2.870515380859375,-0.3094329833984375,0.4373779296875,0.844085693359375
1772702638602565400,2.8805654296875,-0.3086395263671875,0.4392547607421875,0.845794677734375
1772702638612614100,2.8906142578125,-0.3060760498046875,0.442901611328125,0.844512939453125
1772702638622664200,2.900664306640625,-0.306427001953125,0.44232177734375,0.8430633544921875
1772702638632714200,2.91071435546875,-0.3081817626953125,0.44329833984375,0.8467864990234375
1772702638642764300,2.920764404296875,-0.3156585693359375,0.443267822265625,0.8414764404296875
1772702638652814000,2.93081396484375,-0.31927490234375,0.44366455078125,0.83642578125
1772702638662864100,2.940864013671875,-0.3147125244140625,0.4425506591796875,0.8339385986328125
1772702638672914200,2.9509140625,-0.31036376953125,0.4441070556640625,0.8386077880859375
1772702638682964200,2.960964111328125,-0.3100128173828125,0.448394775390625,0.8416595458984375
1772702638693014300,2.97101416015625,-0.3150177001953125,0.448822021484375,0.8443603515625
1772702638703063300,2.981063232421875,-0.3184661865234375,0.447174072265625,0.839691162109375
1772702638713113300,2.99111328125,-0.314453125,0.447784423828125,0.834808349609375
1772702638723163100,3.0011630859375,-0.31463623046875,0.4472808837890625,0.8342437744140625
1772702638733213200,3.011213134765625,-0.314056396484375,0.4497528076171875,0.834259033203125
1772702638743263200,3.02126318359375,-0.3151092529296875,0.45037841796875,0.83807373046875
1772702638753313300,3.031313232421875,-0.315704345703125,0.448944091796875,0.8401031494140625
1772702638763363000,3.041363037109375,-0.3160247802734375,0.4445648193359375,0.844268798828125
1772702638773413000,3.0514130859375,-0.3131866455078125,0.44140625,0.847930908203125
1772702638783463200,3.061463134765625,-0.310211181640625,0.4379425048828125,0.8476409912109375
1772702638793512200,3.07151220703125,-0.31201171875,0.43658447265625,0.85003662109375
1772702638803562200,3.081562255859375,-0.3134613037109375,0.434967041015625,0.8486175537109375
1772702638813612300,3.0916123046875,-0.3154144287109375,0.4350738525390625,0.8449554443359375
1772702638823662300,3.101662353515625,-0.314239501953125,0.432769775390625,0.840576171875
1772702638833712000,3.111712158203125,-0.313018798828125,0.4321441650390625,0.83770751953125
1772702638843762200,3.12176220703125,-0.309906005859375,0.43267822265625,0.836395263671875
1772702638853812000,3.13181201171875,-0.30853271484375,0.4353485107421875,0.841461181640625
1772702638863862000,3.141862060546875,-0.3134918212890625,0.441497802734375,0.8446807861328125
1772702638873911800,3.151911865234375,-0.320068359375,0.4441375732421875,0.84161376953125
1772702638883961000,3.161961181640625,-0.3199005126953125,0.4422760009765625,0.840179443359375
1772702638894011100,3.17201123046875,-0.316864013671875,0.441253662109375,0.841888427734375
1772702638904061200,3.182061279296875,-0.3164215087890625,0.4436798095703125,0.8422393798828125
1772702638914111000,3.192111083984375,-0.31756591796875,0.447662353515625,0.843780517578125
1772702638924161000,3.2021611328125,-0.31573486328125,0.4465179443359375,0.841094970703125
1772702638934211000,3.212211181640625,-0.31280517578125,0.44573974609375,0.8366851806640625
1772702638944261000,3.22226123046875,-0.3122711181640625,0.4426116943359375,0.8321990966796875
1772702638954311000,3.232310791015625,-0.314483642578125,0.44488525390625,0.8324127197265625
1772702638964361000,3.24236083984375,-0.31689453125,0.4463043212890625,0.8326416015625
1772702638974410000,3.252409912109375,-0.3137359619140625,0.449554443359375,0.83831787109375
1772702638984459800,3.262459716796875,-0.312896728515625,0.456695556640625,0.8414306640625
1772702638994509800,3.272509765625,-0.31597900390625,0.454925537109375,0.84033203125
1772702639004560000,3.282559814453125,-0.31915283203125,0.4516448974609375,0.837066650390625
1772702639014610200,3.292610107421875,-0.3173828125,0.4450531005859375,0.8397674560546875
1772702639024660000,3.302659912109375,-0.3164520263671875,0.442718505859375,0.8425445556640625
1772702639034710000,3.3127099609375,-0.314422607421875,0.4413909912109375,0.8460540771484375
1772702639044760000,3.322760009765625,-0.311859130859375,0.4394378662109375,0.8472442626953125
1772702639054810000,3.33281005859375,-0.311279296875,0.436370849609375,0.844970703125
1772702639064859000,3.34285888671875,-0.314361572265625,0.4361724853515625,0.84185791015625
1772702639074909000,3.352908935546875,-0.3159027099609375,0.4400482177734375,0.8425750732421875
1772702639084959000,3.362958984375,-0.317352294921875,0.4475250244140625,0.8489227294921875
1772702639095008800,3.3730087890625,-0.3155975341796875,0.449066162109375,0.8524932861328125
1772702639105058800,3.383058837890625,-0.312713623046875,0.4449310302734375,0.85345458984375
1772702639115108900,3.39310888671875,-0.312835693359375,0.4426422119140625,0.8517303466796875
1772702639125159000,3.403158935546875,-0.3134765625,0.4419097900390625,0.84906005859375
1772702639135209000,3.413208984375,-0.31549072265625,0.4380645751953125,0.8465576171875
1772702639145259000,3.423259033203125,-0.3157196044921875,0.4364471435546875,0.844879150390625
1772702639155308000,3.43330810546875,-0.3126983642578125,0.4359588623046875,0.84149169921875
1772702639165358000,3.443358154296875,-0.3144073486328125,0.4390411376953125,0.8394622802734375
1772702639175407900,3.453407958984375,-0.3149871826171875,0.4412078857421875,0.839447021484375
1772702639185458000,3.4634580078125,-0.31561279296875,0.445220947265625,0.8377838134765625
1772702639195508000,3.473508056640625,-0.3169097900390625,0.4512786865234375,0.839630126953125
1772702639205558000,3.48355810546875,-0.3153839111328125,0.454620361328125,0.839691162109375
1772702639215607800,3.49360791015625,-0.313812255859375,0.455963134765625,0.8379058837890625
1772702639225657900,3.503657958984375,-0.31146240234375,0.453277587890625,0.8371734619140625
1772702639235708000,3.5137080078125,-0.312896728515625,0.4517822265625,0.8333740234375
1772702639245757000,3.5237568359375,-0.313873291015625,0.449066162109375,0.8324737548828125
1772702639255807000,3.533806884765625,-0.31292724609375,0.4490509033203125,0.8350982666015625
1772702639265857000,3.54385693359375,-0.3099212646484375,0.45062255859375,0.8369598388671875
1772702639275907000,3.553906982421875,-0.3062286376953125,0.451171875,0.83685302734375
1772702639285956900,3.563956787109375,-0.3080596923828125,0.448211669921875,0.8356170654296875
1772702639296007000,3.5740068359375,-0.3111724853515625,0.450103759765625,0.8377227783203125
1772702639306057000,3.584056884765625,-0.31256103515625,0.4536590576171875,0.834564208984375
1772702639316107000,3.59410693359375,-0.315277099609375,0.45269775390625,0.8340911865234375
1772702639326156800,3.60415673828125,-0.314239501953125,0.450775146484375,0.8336944580078125
1772702639336206000,3.6142060546875,-0.3112335205078125,0.4489898681640625,0.832244873046875
1772702639346256100,3.624256103515625,-0.3079833984375,0.4451446533203125,0.8344268798828125
1772702639356306200,3.63430615234375,-0.3094024658203125,0.44305419921875,0.8361358642578125
1772702639366356000,3.64435595703125,-0.307464599609375,0.445770263671875,0.836334228515625
1772702639376406000,3.654406005859375,-0.3074798583984375,0.4428863525390625,0.8350830078125
1772702639386456000,3.6644560546875,-0.3065643310546875,0.44134521484375,0.8372344970703125
1772702639396506000,3.674506103515625,-0.3097381591796875,0.441436767578125,0.8389434814453125
1772702639406556000,3.684555908203125,-0.313323974609375,0.4441070556640625,0.83966064453125
1772702639416606000,3.69460595703125,-0.316925048828125,0.444671630859375,0.83935546875
1772702639426655000,3.704655029296875,-0.3183135986328125,0.447357177734375,0.8402099609375
1772702639436704800,3.714704833984375,-0.3159942626953125,0.447265625,0.84063720703125
1772702639446754800,3.7247548828125,-0.309539794921875,0.445953369140625,0.8377685546875
1772702639456804900,3.734804931640625,-0.31195068359375,0.451324462890625,0.8437347412109375
1772702639466855200,3.744855224609375,-0.316558837890625,0.455322265625,0.850311279296875
1772702639476905000,3.754905029296875,-0.3176116943359375,0.4536285400390625,0.842254638671875
1772702639486955000,3.764955078125,-0.319000244140625,0.45135498046875,0.8331756591796875
1772702639497005000,3.775005126953125,-0.319671630859375,0.4502105712890625,0.8333740234375
1772702639507055000,3.78505517578125,-0.3180084228515625,0.448028564453125,0.833251953125
1772702639517103900,3.795103759765625,-0.3179473876953125,0.4445037841796875,0.835479736328125
1772702639527154000,3.80515380859375,-0.3197784423828125,0.4424285888671875,0.837646484375
1772702639537204000,3.815203857421875,-0.3205718994140625,0.444244384765625,0.8388824462890625
1772702639547254000,3.82525390625,-0.318878173828125,0.445343017578125,0.835723876953125
1772702639557303800,3.8353037109375,-0.3199462890625,0.447174072265625,0.8316192626953125
1772702639567353900,3.845353759765625,-0.3217620849609375,0.445892333984375,0.836395263671875
1772702639577404000,3.85540380859375,-0.317962646484375,0.441741943359375,0.8493804931640625
1772702639587454200,3.8654541015625,-0.308746337890625,0.43798828125,0.8560028076171875
1772702639597504000,3.87550390625,-0.30303955078125,0.438232421875,0.855194091796875
1772702639607553000,3.885552978515625,-0.302215576171875,0.440521240234375,0.852935791015625
1772702639617603000,3.89560302734375,-0.30047607421875,0.4404296875,0.8563690185546875
1772702639627652900,3.90565283203125,-0.290618896484375,0.436248779296875,0.864715576171875
1772702639637703000,3.915702880859375,-0.3011627197265625,0.4377288818359375,0.859375
1772702639647753000,3.9257529296875,-0.31927490234375,0.4361114501953125,0.8603057861328125
1772702639657803000,3.935802978515625,-0.3189544677734375,0.433013916015625,0.850799560546875
1772702639667852800,3.945852783203125,-0.3037109375,0.433624267578125,0.8397216796875
1772702639677902800,3.95590283203125,-0.297393798828125,0.4333343505859375,0.842437744140625
1772702639687953000,3.965952880859375,-0.3003997802734375,0.434356689453125,0.849639892578125
1772702639698002000,3.976001953125,-0.2992095947265625,0.4373626708984375,0.8514404296875
1772702639708052000,3.986052001953125,-0.292633056640625,0.4362945556640625,0.8463287353515625
1772702639718102000,3.99610205078125,-0.2943572998046875,0.436737060546875,0.843658447265625
1772702639728152000,4.006152099609375,-0.298492431640625,0.4365386962890625,0.8388214111328125
1772702639738201900,4.016201904296875,-0.30316162109375,0.434173583984375,0.8322601318359375
1772702639748252000,4.026251953125,-0.30419921875,0.4341278076171875,0.832000732421875
1772702639758302000,4.036302001953125,-0.3033905029296875,0.437408447265625,0.8331146240234375
1772702639768352000,4.04635205078125,-0.301055908203125,0.4441680908203125,0.8350830078125
1772702639778401800,4.05640185546875,-0.29815673828125,0.4520721435546875,0.8327484130859375
1772702639788451000,4.066451171875,-0.30078125,0.452789306640625,0.8332366943359375
1772702639798501000,4.076501220703125,-0.3054351806640625,0.45330810546875,0.83837890625
1772702639808551200,4.08655126953125,-0.310333251953125,0.45074462890625,0.8391265869140625
1772702639818601000,4.09660107421875,-0.3103790283203125,0.45208740234375,0.8391876220703125
1772702639828651000,4.106651123046875,-0.3081817626953125,0.45068359375,0.833709716796875
1772702639838701000,4.116701171875,-0.3017425537109375,0.4492034912109375,0.8338470458984375
1772702639848751000,4.126751220703125,-0.2994537353515625,0.4480133056640625,0.8362274169921875
1772702639858801200,4.13680126953125,-0.302459716796875,0.4511566162109375,0.8370361328125
1772702639868851000,4.146850830078125,-0.30767822265625,0.455108642578125,0.8356170654296875
1772702639878900000,4.15689990234375,-0.3109893798828125,0.458526611328125,0.8350982666015625
1772702639888950000,4.166949951171875,-0.311431884765625,0.4572906494140625,0.833892822265625
1772702639899000000,4.177,-0.308074951171875,0.4558868408203125,0.8331298828125
1772702639909050000,4.187050048828125,-0.304351806640625,0.4524078369140625,0.834259033203125
1772702639919100200,4.19710009765625,-0.3011932373046875,0.448944091796875,0.8368988037109375
1772702639929150200,4.207150146484375,-0.2969818115234375,0.4445648193359375,0.84326171875
1772702639939200300,4.2172001953125,-0.295257568359375,0.4405670166015625,0.8540496826171875
1772702639949250000,4.22725,-0.2977447509765625,0.4437255859375,0.8588714599609375
1772702639959300000,4.237300048828125,-0.3037261962890625,0.44769287109375,0.8596954345703125
1772702639969349000,4.24734912109375,-0.3077850341796875,0.4498748779296875,0.8520050048828125
1772702639979399000,4.25739892578125,-0.3079071044921875,0.4515533447265625,0.8428192138671875
1772702639989449000,4.267448974609375,-0.30548095703125,0.4534454345703125,0.8359222412109375
1772702639999499000,4.2774990234375,-0.3008575439453125,0.4520416259765625,0.8392486572265625
1772702640009549000,4.287549072265625,-0.300445556640625,0.4542694091796875,0.840179443359375
1772702640019598800,4.297598876953125,-0.29742431640625,0.4517364501953125,0.843902587890625
1772702640029649000,4.30764892578125,-0.29376220703125,0.4508819580078125,0.84893798828125
1772702640039699200,4.31769921875,-0.29248046875,0.4473724365234375,0.8529510498046875
1772702640049749200,4.327749267578125,-0.29595947265625,0.4394989013671875,0.8510284423828125
1772702640059798000,4.337798095703125,-0.30157470703125,0.4383544921875,0.8547210693359375
1772702640069848000,4.34784814453125,-0.3032684326171875,0.44061279296875,0.852508544921875
1772702640079898000,4.357898193359375,-0.3039093017578125,0.4470367431640625,0.8510894775390625
1772702640089948000,4.367947998046875,-0.3008270263671875,0.4509429931640625,0.8448333740234375
1772702640099998000,4.377998046875,-0.2986602783203125,0.450439453125,0.83441162109375
1772702640110048000,4.388048095703125,-0.2947998046875,0.4463653564453125,0.8346405029296875
1772702640120098000,4.39809814453125,-0.295318603515625,0.44525146484375,0.8388824462890625
1772702640130147800,4.40814794921875,-0.294342041015625,0.444671630859375,0.8392333984375
1772702640140197000,4.418197021484375,-0.2955322265625,0.4453582763671875,0.839691162109375
1772702640150247200,4.4282470703125,-0.2953948974609375,0.4451141357421875,0.84014892578125
1772702640160297200,4.438297119140625,-0.296417236328125,0.4442291259765625,0.8453216552734375
1772702640170347000,4.448346923828125,-0.2967376708984375,0.442901611328125,0.8517913818359375
1772702640180397000,4.45839697265625,-0.29974365234375,0.444671630859375,0.8560028076171875
1772702640190447000,4.468447021484375,-0.3012237548828125,0.4495849609375,0.8528289794921875
1772702640200497200,4.4784970703125,-0.3026580810546875,0.4547119140625,0.8511199951171875
1772702640210547000,4.488546875,-0.3017425537109375,0.4580535888671875,0.8523712158203125
1772702640220597000,4.498596923828125,-0.298828125,0.459320068359375,0.8515777587890625
1772702640230646000,4.50864599609375,-0.297637939453125,0.4567718505859375,0.8493499755859375
1772702640240696000,4.518696044921875,-0.2967529296875,0.45550537109375,0.849700927734375
1772702640250746000,4.52874609375,-0.2950439453125,0.457977294921875,0.8487091064453125
1772702640260796200,4.538796142578125,-0.2927093505859375,0.46051025390625,0.8465423583984375
1772702640270846200,4.54884619140625,-0.2945098876953125,0.462066650390625,0.8426971435546875
1772702640280896000,4.55889599609375,-0.294830322265625,0.4631500244140625,0.8391265869140625
1772702640290946000,4.568946044921875,-0.296875,0.4617919921875,0.838470458984375
1772702640300996000,4.57899609375,-0.2962799072265625,0.4614715576171875,0.8378143310546875
1772702640311046100,4.589046142578125,-0.2930908203125,0.4611358642578125,0.83624267578125
1772702640321095000,4.599094970703125,-0.290069580078125,0.4591827392578125,0.832305908203125
1772702640331145000,4.60914501953125,-0.2878875732421875,0.4586944580078125,0.8305511474609375
1772702640341195000,4.619195068359375,-0.291229248046875,0.4577789306640625,0.8287200927734375
1772702640351245000,4.6292451171875,-0.29229736328125,0.4564056396484375,0.831207275390625
1772702640361295000,4.639295166015625,-0.292083740234375,0.460296630859375,0.8349456787109375
1772702640371345200,4.64934521484375,-0.2926483154296875,0.4634857177734375,0.8368682861328125
1772702640381395200,4.659395263671875,-0.2915802001953125,0.4664154052734375,0.8355560302734375
1772702640391445200,4.6694453125,-0.2904052734375,0.4678802490234375,0.83282470703125
1772702640401494000,4.679493896484375,-0.287353515625,0.4631500244140625,0.8346099853515625
1772702640411544000,4.6895439453125,-0.287628173828125,0.45562744140625,0.8392333984375
1772702640421594000,4.699593994140625,-0.2860260009765625,0.45159912109375,0.8455657958984375
1772702640431644000,4.709643798828125,-0.2867431640625,0.4517822265625,0.8467864990234375
1772702640441694000,4.71969384765625,-0.285552978515625,0.45391845703125,0.84173583984375
1772702640451744000,4.729743896484375,-0.2848052978515625,0.4541015625,0.84124755859375
1772702640461794000,4.7397939453125,-0.28515625,0.454437255859375,0.8430938720703125
1772702640471843800,4.74984375,-0.28619384765625,0.4569091796875,0.84246826171875
1772702640481894100,4.75989404296875,-0.28839111328125,0.4558563232421875,0.84197998046875
1772702640491943200,4.769943115234375,-0.2899322509765625,0.458160400390625,0.8480072021484375
1772702640501993000,4.779992919921875,-0.2873992919921875,0.457672119140625,0.84808349609375
1772702640512043000,4.79004296875,-0.285400390625,0.456329345703125,0.8486175537109375
1772702640522093000,4.800093017578125,-0.285400390625,0.4561920166015625,0.8451690673828125
1772702640532143000,4.81014306640625,-0.2870635986328125,0.4560394287109375,0.8430023193359375
1772702640542193000,4.82019287109375,-0.2887115478515625,0.4594879150390625,0.8415069580078125
1772702640552243000,4.830242919921875,-0.2925567626953125,0.4668426513671875,0.83984375
1772702640562293000,4.84029296875,-0.2943115234375,0.46978759765625,0.83831787109375
1772702640572343000,4.850343017578125,-0.295745849609375,0.4746856689453125,0.837310791015625
1772702640582392000,4.86039208984375,-0.295806884765625,0.47357177734375,0.8331298828125
1772702640592442000,4.870442138671875,-0.29656982421875,0.475006103515625,0.8313446044921875
1772702640602492200,4.8804921875,-0.2968902587890625,0.47216796875,0.8304595947265625
1772702640612542200,4.890542236328125,-0.2960968017578125,0.4706268310546875,0.83526611328125
1772702640622592000,4.900592041015625,-0.28955078125,0.470916748046875,0.837066650390625
1772702640632642000,4.91064208984375,-0.282623291015625,0.469329833984375,0.8416900634765625
1772702640642692000,4.920692138671875,-0.2769775390625,0.468963623046875,0.84381103515625
1772702640652742100,4.9307421875,-0.2789764404296875,0.4642486572265625,0.8399658203125
1772702640662792000,4.9407919921875,-0.2848358154296875,0.45416259765625,0.8397979736328125
1772702640672841000,4.950841064453125,-0.290985107421875,0.4508819580078125,0.838653564453125
1772702640682891000,4.96089111328125,-0.2933807373046875,0.454559326171875,0.8388214111328125
1772702640692941000,4.970941162109375,-0.294036865234375,0.4572601318359375,0.8405609130859375
1772702640702991000,4.9809912109375,-0.294525146484375,0.4580535888671875,0.84429931640625
1772702640713041200,4.991041259765625,-0.2953033447265625,0.458404541015625,0.8463134765625
1772702640723091200,5.00109130859375,-0.292144775390625,0.462677001953125,0.849212646484375
1772702640733141000,5.01114111328125,-0.2857666015625,0.465667724609375,0.8486175537109375
1772702640743191000,5.02119091796875,-0.2853240966796875,0.463653564453125,0.8448486328125
1772702640753240000,5.031239990234375,-0.28564453125,0.45977783203125,0.8444061279296875
1772702640763290000,5.0412900390625,-0.2851409912109375,0.4576416015625,0.8406219482421875
1772702640773340000,5.05133984375,-0.284332275390625,0.456329345703125,0.84039306640625
1772702640783390000,5.061389892578125,-0.2846527099609375,0.45465087890625,0.8427276611328125
1772702640793440000,5.07143994140625,-0.2845611572265625,0.4556732177734375,0.8431854248046875
1772702640803490000,5.081489990234375,-0.2813720703125,0.4542388916015625,0.841094970703125
1772702640813540000,5.0915400390625,-0.2796630859375,0.455322265625,0.84075927734375
1772702640823590100,5.101590087890625,-0.2802276611328125,0.454925537109375,0.84088134765625
1772702640833640200,5.11164013671875,-0.282745361328125,0.4576416015625,0.837554931640625
1772702640843689000,5.12168896484375,-0.28546142578125,0.4601287841796875,0.838165283203125
1772702640853739000,5.131739013671875,-0.2881622314453125,0.463043212890625,0.8414459228515625
1772702640863788800,5.141788818359375,-0.2899932861328125,0.462249755859375,0.844482421875
1772702640873838800,5.1518388671875,-0.288482666015625,0.46270751953125,0.8446197509765625
1772702640883889000,5.161888916015625,-0.286041259765625,0.461151123046875,0.84271240234375
1772702640893939000,5.17193896484375,-0.2845916748046875,0.4637603759765625,0.843170166015625
1772702640903988700,5.18198876953125,-0.28363037109375,0.465118408203125,0.8421478271484375
1772702640914038800,5.192038818359375,-0.2857208251953125,0.4648284912109375,0.840087890625
1772702640924088800,5.2020888671875,-0.2855072021484375,0.464019775390625,0.8386077880859375
1772702640934137900,5.212137939453125,-0.286163330078125,0.468902587890625,0.8370513916015625
1772702640944188000,5.22218798828125,-0.2860107421875,0.470306396484375,0.835296630859375
1772702640954238000,5.232238037109375,-0.2816619873046875,0.4690704345703125,0.84002685546875
1772702640964288000,5.2422880859375,-0.2769012451171875,0.468414306640625,0.8435516357421875
1772702640974337800,5.252337890625,-0.275970458984375,0.46728515625,0.846710205078125
1772702640984387800,5.262387939453125,-0.2734222412109375,0.4638519287109375,0.846710205078125
1772702640994438000,5.27243798828125,-0.27154541015625,0.465484619140625,0.84423828125
1772702641004488000,5.282488037109375,-0.2752227783203125,0.4644622802734375,0.8422698974609375
1772702641014537000,5.292536865234375,-0.2842864990234375,0.4607086181640625,0.8449859619140625
1772702641024587000,5.3025869140625,-0.29071044921875,0.45867919921875,0.84576416015625
1772702641034637000,5.312636962890625,-0.290435791015625,0.4582061767578125,0.845458984375
1772702641044685800,5.322685791015625,-0.2845001220703125,0.45831298828125,0.8449859619140625
1772702641054736000,5.33273583984375,-0.2799835205078125,0.461944580078125,0.8426513671875
1772702641064786000,5.342785888671875,-0.2770843505859375,0.460723876953125,0.844146728515625
1772702641074836000,5.3528359375,-0.2751617431640625,0.4558868408203125,0.846435546875
1772702641084885800,5.3628857421875,-0.275970458984375,0.4557342529296875,0.8467864990234375
1772702641094935800,5.372935791015625,-0.27655029296875,0.45538330078125,0.847320556640625
1772702641104985900,5.38298583984375,-0.279052734375,0.456207275390625,0.8480072021484375
1772702641115036000,5.393035888671875,-0.278717041015625,0.4585418701171875,0.846282958984375
1772702641125085000,5.4030849609375,-0.279327392578125,0.4609222412109375,0.845184326171875
1772702641135135000,5.413135009765625,-0.275543212890625,0.4608917236328125,0.8472747802734375
1772702641145185000,5.42318505859375,-0.2759246826171875,0.4588470458984375,0.849090576171875
1772702641155234800,5.43323486328125,-0.2756805419921875,0.4586639404296875,0.8499603271484375
1772702641165284900,5.443284912109375,-0.2761383056640625,0.4600830078125,0.8492889404296875
1772702641175335000,5.4533349609375,-0.2769012451171875,0.4600982666015625,0.847381591796875
1772702641185385000,5.463385009765625,-0.27716064453125,0.460540771484375,0.8452911376953125
1772702641195434800,5.473434814453125,-0.274444580078125,0.4623870849609375,0.8417205810546875
1772702641205484800,5.48348486328125,-0.272430419921875,0.4640655517578125,0.8421173095703125
1772702641215534000,5.4935341796875,-0.26910400390625,0.463043212890625,0.8463897705078125
1772702641225584000,5.503584228515625,-0.269073486328125,0.462646484375,0.8446197509765625
1772702641235634000,5.513634033203125,-0.2728271484375,0.4630889892578125,0.8459320068359375
1772702641245684000,5.52368408203125,-0.2764892578125,0.4686279296875,0.8431396484375
1772702641255734000,5.533734130859375,-0.27813720703125,0.4722137451171875,0.839202880859375
1772702641265784000,5.5437841796875,-0.2786712646484375,0.47454833984375,0.8347930908203125
1772702641275833900,5.553833740234375,-0.280517578125,0.476959228515625,0.8348388671875
1772702641285884000,5.5638837890625,-0.2823028564453125,0.47088623046875,0.8346710205078125
1772702641295933000,5.573932861328125,-0.27691650390625,0.4656982421875,0.841064453125
1772702641305982700,5.583982666015625,-0.2681121826171875,0.4627838134765625,0.8453369140625
1772702641316032800,5.59403271484375,-0.2652435302734375,0.4597320556640625,0.8452911376953125
1772702641326083000,5.6040830078125,-0.2658843994140625,0.458648681640625,0.846160888671875
1772702641336133000,5.614133056640625,-0.2667999267578125,0.4611053466796875,0.8452911376953125
1772702641346183000,5.624182861328125,-0.27008056640625,0.46636962890625,0.84625244140625
1772702641356233000,5.63423291015625,-0.27130126953125,0.470916748046875,0.8411102294921875
1772702641366283000,5.644282958984375,-0.2751312255859375,0.471160888671875,0.8395843505859375
1772702641376333000,5.6543330078125,-0.2781829833984375,0.4705963134765625,0.8404998779296875
1772702641386381800,5.6643818359375,-0.2779998779296875,0.4664459228515625,0.8435211181640625
1772702641396432000,5.674431884765625,-0.27227783203125,0.46221923828125,0.8489990234375
1772702641406482000,5.68448193359375,-0.2656707763671875,0.461334228515625,0.84814453125
1772702641416532000,5.694531982421875,-0.2625885009765625,0.46636962890625,0.8464508056640625
1772702641426581800,5.704581787109375,-0.26385498046875,0.4678192138671875,0.8450927734375
1772702641436631800,5.7146318359375,-0.26806640625,0.464874267578125,0.8433074951171875
1772702641446681900,5.724681884765625,-0.2687530517578125,0.4637908935546875,0.8438720703125
1772702641456732200,5.734732177734375,-0.267974853515625,0.4638519287109375,0.8428955078125
1772702641466782000,5.744781982421875,-0.2709808349609375,0.46466064453125,0.84539794921875
1772702641476832000,5.75483203125,-0.273193359375,0.4661407470703125,0.846343994140625
1772702641486882000,5.764882080078125,-0.2731170654296875,0.4650726318359375,0.846405029296875
1772702641496930800,5.774930908203125,-0.2720947265625,0.4638671875,0.8486785888671875
1772702641506980900,5.78498095703125,-0.26580810546875,0.4682159423828125,0.8484649658203125
1772702641517031000,5.795031005859375,-0.262298583984375,0.4687347412109375,0.845062255859375
1772702641527081000,5.8050810546875,-0.2630157470703125,0.4693450927734375,0.8440399169921875
1772702641537130800,5.815130859375,-0.2681732177734375,0.4666748046875,0.8448028564453125
1772702641547180800,5.825180908203125,-0.27471923828125,0.46392822265625,0.845458984375
1772702641557230800,5.83523095703125,-0.2755126953125,0.4595489501953125,0.8444061279296875
1772702641567281000,5.845281005859375,-0.2749176025390625,0.4584197998046875,0.8464813232421875
1772702641577330000,5.855329833984375,-0.26788330078125,0.4582061767578125,0.8487091064453125
1772702641587380000,5.8653798828125,-0.263397216796875,0.45635986328125,0.8497161865234375
1772702641597430000,5.875429931640625,-0.261810302734375,0.4577178955078125,0.849273681640625
1772702641607479800,5.885479736328125,-0.264434814453125,0.45751953125,0.849761962890625
1772702641617529900,5.89552978515625,-0.2665863037109375,0.45751953125,0.84619140625
1772702641627580000,5.905579833984375,-0.268402099609375,0.4573516845703125,0.8497467041015625
1772702641637630000,5.9156298828125,-0.2691497802734375,0.4576416015625,0.8523406982421875
1772702641647679700,5.9256796875,-0.2686614990234375,0.4566192626953125,0.8501434326171875
1772702641657729800,5.935729736328125,-0.2645416259765625,0.4542999267578125,0.8479766845703125
1772702641667779000,5.945779052734375,-0.2646026611328125,0.45611572265625,0.8460845947265625
1772702641677829000,5.9558291015625,-0.2646942138671875,0.460052490234375,0.8438873291015625
1772702641687879000,5.96587890625,-0.2652130126953125,0.4639892578125,0.8435211181640625
1772702641697929000,5.975928955078125,-0.267059326171875,0.466827392578125,0.8470916748046875
1772702641707979000,5.98597900390625,-0.2671966552734375,0.4642333984375,0.85052490234375
1772702641718029000,5.996029052734375,-0.26837158203125,0.4631195068359375,0.84942626953125
1772702641728078800,6.006078857421875,-0.2690887451171875,0.462127685546875,0.8454132080078125
1772702641738129000,6.01612890625,-0.2676544189453125,0.465911865234375,0.8411865234375
1772702641748179000,6.026178955078125,-0.2657318115234375,0.4710540771484375,0.8418121337890625
1772702641758227700,6.036227783203125,-0.258514404296875,0.4688262939453125,0.84674072265625
1772702641768277800,6.04627783203125,-0.2554473876953125,0.4671783447265625,0.8495941162109375
1772702641778328000,6.056328125,-0.2621002197265625,0.4658966064453125,0.84918212890625
1772702641788378000,6.066378173828125,-0.2699432373046875,0.4644927978515625,0.8459320068359375
1772702641798428000,6.076427978515625,-0.272796630859375,0.4638824462890625,0.844207763671875
1772702641808478000,6.08647802734375,-0.2747955322265625,0.4627838134765625,0.845489501953125
1772702641818528000,6.096528076171875,-0.2734375,0.45989990234375,0.8517608642578125
1772702641828578000,6.106578125,-0.27001953125,0.457489013671875,0.856658935546875
1772702641838626800,6.116626708984375,-0.2674102783203125,0.4639739990234375,0.85418701171875
1772702641848676900,6.1266767578125,-0.265106201171875,0.4697418212890625,0.8415069580078125
1772702641858727700,6.136727783203125,-0.2617950439453125,0.472320556640625,0.8333892822265625
1772702641868777700,6.14677783203125,-0.2603607177734375,0.4720458984375,0.8343963623046875
1772702641878827500,6.15682763671875,-0.263458251953125,0.470245361328125,0.8406219482421875
1772702641888877600,6.166877685546875,-0.2641754150390625,0.4674072265625,0.847503662109375
1772702641898927600,6.176927734375,-0.2649688720703125,0.4622955322265625,0.8499603271484375
1772702641908977700,6.186977783203125,-0.2655181884765625,0.4604034423828125,0.849853515625
1772702641919027500,6.19702734375,-0.2653961181640625,0.459991455078125,0.85247802734375
1772702641929076700,6.20707666015625,-0.262115478515625,0.458251953125,0.852783203125
1772702641939126800,6.217126708984375,-0.2613067626953125,0.46142578125,0.848785400390625
1772702641949176800,6.2271767578125,-0.2607269287109375,0.46826171875,0.847991943359375
1772702641959226600,6.2372265625,-0.2602386474609375,0.4665679931640625,0.8469390869140625
1772702641969276700,6.247276611328125,-0.2592010498046875,0.462860107421875,0.8475494384765625
1772702641979326700,6.25732666015625,-0.2640838623046875,0.464447021484375,0.8493804931640625
1772702641989376800,6.267376708984375,-0.2657470703125,0.4683990478515625,0.8441619873046875
1772702641999426600,6.277426513671875,-0.2631988525390625,0.46697998046875,0.843048095703125
1772702642009475600,6.2874755859375,-0.2737884521484375,0.4542236328125,0.841796875
1772702642019526000,6.29752587890625,-0.23150634765625,0.4406890869140625,0.8303070068359375
1772702642029575700,6.30757568359375,-0.17120361328125,0.49755859375,0.87115478515625
1772702642039625700,6.317625732421875,-0.24285888671875,0.4779052734375,0.8714752197265625
1772702642049675800,6.32767578125,-0.324188232421875,0.4328155517578125,0.8530426025390625
1772702642059725800,6.337725830078125,-0.369659423828125,0.43792724609375,0.8452301025390625
1772702642069775600,6.347775634765625,-0.3739166259765625,0.46844482421875,0.8557586669921875
1772702642079825700,6.35782568359375,-0.309295654296875,0.4724578857421875,0.84228515625
