time,seconds_elapsed,z,y,x
1772702635786081000,0.0640810546875,0.011598667857050896,-0.1595081326499581,-0.0896814399689436
1772702635796130800,0.074130859375,0.3147194448888302,-0.11598960117995738,-0.2346393614798784
1772702635806180900,0.084180908203125,0.4497247121840715,-0.06773264301121235,-0.3109872726231813
1772702635816230100,0.094230224609375,0.261250012768805,0.012915011152625083,-0.42428281241357324
1772702635826280000,0.104280029296875,-0.0062765960514545435,-0.005464402885735035,-0.380080682593584
1772702635836330000,0.114330078125,-0.28373130916804074,0.06402355936020612,-0.10207330403029918
1772702635846379800,0.1243798828125,-0.2595563605934381,-0.04236205491125583,-0.23100538889169692
1772702635856429800,0.134429931640625,-0.31746348289996384,-0.061117901046574115,-0.07330372114181519
1772702635866479900,0.14447998046875,-0.2939993129432201,-0.10819237143248318,-0.190254860830307
1772702635876529700,0.15452978515625,-0.21795359961688518,-0.13350479960441589,-0.18074410516321657
1772702635886579700,0.164579833984375,-0.10104717585295438,-0.0509185785934329,-0.01089957967698574
1772702635896629800,0.174629638671875,-0.015068974316120146,-0.024786942993104456,-0.0029658640682697296
1772702635906679800,0.1846796875,0.010679214924573898,0.0002931377276778221,0.056197688040137285
1772702635916728800,0.194728759765625,-0.03396189083456993,0.03480126426815987,0.033440497308969495
1772702635926779000,0.20477880859375,-0.10398965904563665,0.06471884814798831,-0.0030757541835308073
1772702635936829000,0.214828857421875,-0.1471139305010438,0.12140578100979327,-0.05881050088703632
1772702635946879000,0.22487890625,-0.15819646552950142,0.0916723215252161,-0.0421019426703453
1772702635956928800,0.2349287109375,-0.12614946840554475,0.09959434669613837,-0.000779167678952217
1772702635966978800,0.244978759765625,-0.21985592610687016,0.07228869888037442,-0.03774374746084213
1772702635977028900,0.25502880859375,-0.28603900158852336,-0.013572598278522491,-0.08709025443196296
1772702635987079000,0.265078857421875,-0.2712552739545703,-0.037521044620871545,-0.012469020950794218
1772702635997128700,0.275128662109375,-0.22814269293695688,-0.05361527033150196,0.040138533642888066
1772702636007177700,0.285177734375,-0.18488164335936308,-0.11211305200755596,0.03180266697406769
1772702636017227800,0.295227783203125,-0.15118980163782833,-0.11641951702982187,-0.008218377768993377
1772702636027277800,0.30527783203125,-0.13928133717924357,-0.1079176461443305,-0.03982815251946449
1772702636037328000,0.315327880859375,-0.1275005907535553,-0.09225567437112331,-0.043293782803416246
1772702636047378000,0.3253779296875,-0.18287731779962776,-0.0834530669733882,0.0013104980766773223
1772702636057428000,0.335427978515625,-0.2730748905971646,-0.09986001189500093,0.06815116068422794
1772702636067477800,0.345477783203125,-0.36907004375755786,-0.10771481704860925,0.09313479529321193
1772702636077527800,0.35552783203125,-0.4486541603431105,-0.1137605269536376,0.1567448054164648
1772702636087577900,0.365577880859375,-0.4264893825471401,-0.179523623457551,0.20348785189092158
1772702636097628000,0.3756279296875,-0.3734279467061162,-0.259010124887526,0.1634451798379421
1772702636107676700,0.3856767578125,-0.27767741595655676,-0.2689990194603801,0.12107084996700286
1772702636117726700,0.395726806640625,-0.20873101324141025,-0.2626195475563407,0.10834873103797435
1772702636127776800,0.40577685546875,-0.1958534114897251,-0.2652443431019783,0.10943009653389453
1772702636137826600,0.41582666015625,-0.2811056368395686,-0.2797048301309347,0.12769114488959313
1772702636147876900,0.425876953125,-0.34309885941594837,-0.28769378305822607,0.07083937685489654
1772702636157927000,0.435927001953125,-0.36072336343377825,-0.27000352032780645,-0.024290391647815702
1772702636167977000,0.44597705078125,-0.36306583490669725,-0.237405903583765,-0.08247662315666675
1772702636178027000,0.456027099609375,-0.3225628518655896,-0.2764528425976634,-0.08654431098699569
1772702636188076800,0.466076904296875,-0.29862025074213744,-0.3085729049578309,-0.0076315177917480465
1772702636198126800,0.476126953125,-0.27851971199959513,-0.3414025768920779,0.05603811356425285
1772702636208175900,0.48617578125,-0.29859540856182576,-0.2686833776399493,-0.16827040803730486
1772702636218225700,0.4962255859375,-0.42518765229880806,-0.3325084918186068,-0.1722211914896965
1772702636228275700,0.506275634765625,-0.24839579189270733,-0.5139455476820468,0.051396425238251685
1772702636238325800,0.51632568359375,-0.10415683230608701,-0.3765948863044381,0.022581834164261818
1772702636248375800,0.526375732421875,-0.2325485266804695,-0.07363368374854326,-0.0569768557190895
1772702636258425600,0.536425537109375,-0.4762701892822981,-0.0060769818261265755,-0.15818506735265253
1772702636268475600,0.5464755859375,-0.5260357984483242,-0.08776917660683393,-0.11715981400310993
1772702636278526000,0.55652587890625,-0.4338537738353014,-0.10621054996550082,-0.2074088247269392
1772702636288576000,0.566575927734375,-0.2966267388373613,-0.11466156744658947,-0.07626724712252617
1772702636298625800,0.576625732421875,-0.16585691715478895,-0.07254851886034011,-0.09108370798230171
1772702636308674800,0.5866748046875,-0.12590893764793873,-0.06516951452493668,-0.004335983377695083
1772702636318724900,0.596724853515625,0.0535959811091423,-0.12133680742681026,0.017537410256266595
1772702636328774700,0.606774658203125,-0.04462795401662588,0.13374883749336003,-0.23146949927210805
1772702636338824700,0.61682470703125,-0.2142205505684018,0.16373627173900604,-0.16346563810408116
1772702636348874800,0.626874755859375,-0.22491174819171428,0.07193973931223153,-0.12547639144957065
1772702636358924800,0.6369248046875,-0.11929331890046596,-0.044024142904579636,-0.05892506717741489
1772702636368974600,0.646974609375,-0.06675649145543575,-0.02445785716921091,-0.021658289578557012
1772702636379024600,0.657024658203125,-0.05294511598497629,-0.021326281145215033,0.0970925930082798
1772702636389074700,0.66707470703125,-0.03601356266736984,0.019970482622087,0.03283785524070263
1772702636399124700,0.677124755859375,-0.06916764425039292,-0.0011459551647305488,-0.013251695761084556
1772702636409173800,0.687173828125,-0.10636983218044042,-0.043974166283011436,0.00901858823597431
1772702636419223800,0.697223876953125,-0.10622107135951518,-0.05277998855113983,0.049148938572406764
1772702636429273900,0.70727392578125,-0.04132920473217964,-0.04746960718333721,0.04479425049424171
1772702636439324000,0.717323974609375,0.0211316353559494,0.05133095878660678,-0.106930096411705
1772702636449373700,0.727373779296875,-0.025413550458848477,0.07917056734859942,-0.10516776291429995
1772702636459423700,0.737423828125,-0.12134236038476227,0.03061784110367298,-0.12041793901622294
1772702636469473800,0.747473876953125,-0.23013240544945,0.015479893204569816,-0.1501876388579607
1772702636479523800,0.75752392578125,-0.2992518266439438,0.03026917379647493,-0.18889993909001349
1772702636489573600,0.76757373046875,-0.33130817611813546,0.06359013637900351,-0.2223357602238655
1772702636499623000,0.777622802734375,-0.3135071464896202,0.0767164521947503,-0.2609381703406572
1772702636509673000,0.7876728515625,-0.23934154782146214,0.10019757328629493,-0.178848500674963
1772702636519722800,0.79772265625,-0.08920739271640778,0.11503916858732699,-0.0951139864116907
1772702636529772800,0.807772705078125,0.03768500301092863,0.126626438267529,-0.045916532522439955
1772702636539822800,0.81782275390625,0.09496084167659283,0.0832066909968853,0.006283610314130782
1772702636549873000,0.827872802734375,0.015419687449932098,0.13321078509390352,-0.1147907467842102
1772702636559922700,0.837922607421875,-0.10610562828630209,0.17630378462821245,-0.24791560716032982
1772702636569972700,0.84797265625,-0.18536913461536167,0.16958353646248578,-0.40229485248923297
1772702636580022800,0.858022705078125,-0.24253800577521323,0.18825462692379952,-0.42526714727580545
1772702636590072800,0.86807275390625,-0.2732069925442338,0.19346739313602446,-0.2653682617425918
1772702636600121900,0.878121826171875,-0.22210312051177022,0.1782902822703123,0.09043839581608772
1772702636610172000,0.888171875,-0.07137655247151851,0.2238055405154824,0.4049608568280935
1772702636620222000,0.898221923828125,0.06067921736836433,0.25606413456350563,0.43478725529313084
1772702636630272000,0.90827197265625,0.07779401829838753,0.20474808108508585,0.1658119089692831
1772702636640321800,0.91832177734375,0.17285598226189614,0.12584405571818352,-0.11967267360687255
1772702636650371800,0.928371826171875,-0.055852235603332516,0.17642185804992913,-0.1590934143692255
1772702636660422000,0.938421875,-0.09351678034812211,-0.028747955578565597,-0.23928338789343834
1772702636670472000,0.948471923828125,-0.13581892176568508,-0.04617898285090923,-0.12850129222869872
1772702636680521700,0.958521728515625,-0.2162687152698636,-0.1585547774478793,0.019544073903560638
1772702636690571800,0.96857177734375,-0.09729951375722884,-0.2857733363896608,-0.06630757864415646
1772702636700620800,0.978620849609375,-0.17613924171626566,-0.1371118841856718,0.16918927644789217
1772702636710670600,0.988670654296875,-0.05222293919026851,-0.18602730626314878,-0.028275661891698837
1772702636720720600,0.998720703125,-0.18494155685305594,-0.132109545853734,0.05728840588629246
1772702636730771000,1.00877099609375,-0.09169161074757576,-0.3302002148762345,-0.25669220333397386
1772702636740821000,1.018821044921875,-0.23968670799732206,-0.29400282007455825,-0.10299801765978336
1772702636750870800,1.028870849609375,-0.15153905346691607,-0.2901747862190008,-0.30667350107729435
1772702636760920800,1.0389208984375,-0.17643121040016413,-0.10657032318860292,-0.06599310586750506
1772702636770971000,1.048970947265625,-0.16474720234721899,-0.08242197035998106,0.1188689560085535
1772702636781021000,1.05902099609375,-0.11791355497986078,-0.06732786160260439,0.30909108361303805
1772702636791070700,1.06907080078125,-0.07904577192515135,-0.05684416925013065,0.32060499579608437
1772702636801119700,1.07911962890625,-0.04373538909107447,-0.08562515031546354,0.11171733068823814
1772702636811169800,1.089169677734375,-0.01727612897157669,-0.05841974800378084,0.03326572526395321
1772702636821219600,1.099219482421875,0.007351531806588173,-0.0117836690351367,0.027729718446731565
1772702636831269600,1.10926953125,-0.018719313517212868,0.07764321165084838,0.0862386060386896
1772702636841319700,1.119319580078125,-0.04771101472377777,0.09708616326749324,0.17054653627574443
1772702636851370800,1.129370849609375,-0.09371259518116712,0.039898587407171726,0.3149000621527433
1772702636861420500,1.139420654296875,-0.13210399289578198,-0.08448445584774017,0.34507132853269573
1772702636871470600,1.149470703125,-0.18098697400838135,-0.11917495321780443,0.3597784837990999
1772702636881520600,1.159520751953125,-0.2638976046681404,-0.07452420284748076,0.4083943384081125
1772702636891570700,1.16957080078125,-0.2802557420119643,-0.031279227621853346,0.3933855698466301
1772702636901619700,1.17961962890625,-0.3004933511376381,-0.001140109945833683,0.31309681212306023
1772702636911669800,1.189669677734375,-0.3447691307157278,0.03593406769037247,0.28175825552940365
1772702636921719800,1.1997197265625,-0.4106669595152139,0.01678074667006731,0.20287001225352286
1772702636931769600,1.20976953125,-0.46353930252492426,-0.10902677643001078,0.04258358870744705
1772702636941819600,1.219819580078125,-0.3672261694565415,-0.14964257219582794,-0.13845511548817158
1772702636951869700,1.22986962890625,-0.657009910531342,-0.042508769905567165,0.03712356973588466
1772702636961919700,1.239919677734375,-0.7115382040545344,-0.1862678370207548,-0.2561684717208147
1772702636971969500,1.249969482421875,-0.6690662590280175,-0.2180813176497817,-0.4488941065788269
1772702636982019600,1.26001953125,-0.8018333920076489,0.05760755483806133,-0.6466834545671939
1772702636992069600,1.270069580078125,-0.977777987934649,0.09235095143914222,-0.4951069916993379
1772702637002119000,1.280118896484375,-0.6723240917801857,-0.36586803284585473,-0.1255827744334936
1772702637012168700,1.290168701171875,0.04181728051006794,-0.7756228459522128,0.32875498450398444
1772702637022218800,1.30021875,0.5870335802465677,-0.6741010383248329,0.3781184426099062
1772702637032268800,1.310268798828125,0.7366545251324772,-0.5040978151455521,0.35053485463559625
1772702637042318800,1.32031884765625,0.5748921838149428,-0.3332292073085904,0.1628583198606968
1772702637052368600,1.33036865234375,0.11248276210278271,-0.17445085023790596,-0.004122048366069793
1772702637062418700,1.340418701171875,-0.394939229029417,-0.020365327158570288,0.08976327303349971
1772702637072468700,1.35046875,-0.5694879866838455,0.11743366250842809,-0.0033370354682207104
1772702637082518800,1.360518798828125,-0.4844640171319246,0.20441198099851607,0.03804652979969978
1772702637092568600,1.370568603515625,-0.3599970949858427,0.2851861841514706,0.1757365061342716
1772702637102617900,1.380617919921875,-0.14402999301105737,0.19212913026958703,0.21023732615113258
1772702637112668000,1.39066796875,-0.09902180750519037,0.1821767683148384,0.2519271808892488
1772702637122717700,1.4007177734375,-0.05767886650860309,0.1332896955490112,0.28090952974557876
1772702637132767700,1.410767822265625,-0.003478489765524864,0.060199324896931646,0.25458091026842594
1772702637142817800,1.42081787109375,0.02080751796811819,0.05834171433150768,0.2658890707463026
1772702637152867800,1.430867919921875,0.043886195738613604,0.02737842079102993,0.14404665188491345
1772702637162917600,1.440917724609375,-0.02025631382614374,-0.006282441270351409,-0.00045300446450710294
1772702637172967700,1.4509677734375,-0.0979392729654908,-0.047073593603074546,-0.10531272434294223
1772702637183017700,1.461017822265625,-0.12527677722424269,-0.06644435676634311,-0.16478665757477282
1772702637193066800,1.471066650390625,-0.16964286543428897,-0.04771773672550916,-0.12260463540554047
1772702637203116500,1.481116455078125,-0.11284954958856105,-0.04471124838590622,-0.1622469099640846
1772702637213166600,1.49116650390625,-0.060578095081448555,-0.03233662772029638,0.057794017320871346
1772702637223217000,1.501216796875,0.09799363350123166,-0.047644379228353496,0.18731120859384537
1772702637233267000,1.511266845703125,0.0900447203233838,0.09824819278419017,0.3893295724540949
1772702637243316700,1.521316650390625,0.15895312911570073,0.08233166172802447,0.13227028937339783
1772702637253366800,1.53136669921875,0.11864274603724478,0.09114303695410489,0.2144312707096338
1772702637263416800,1.541416748046875,0.07516016266345978,0.15039134473651647,0.21148820299506185
1772702637273467000,1.551466796875,0.04593757531046867,0.1592757851988077,0.09525719427466392
1772702637283516700,1.5615166015625,0.06836100404262542,0.05550181473046541,-0.14496201316416263
1772702637293565700,1.571565673828125,0.13187398353219032,-0.04746902266144752,-0.40172669721245763
1772702637303615700,1.58161572265625,0.18536971913725137,-0.09829320096969604,-0.54327627158463
1772702637313665500,1.59166552734375,0.1996177324593067,-0.044806233192980285,-0.6230716928333043
1772702637323715600,1.601715576171875,0.048887657287716865,0.13709580983370542,-0.36060382870733737
1772702637333765600,1.611765625,-0.14341273789554834,0.19719781183600424,-0.08302315112352371
1772702637343815700,1.621815673828125,-0.17988719607293605,0.2235591645389795,-0.07335282098054885
1772702637353865700,1.63186572265625,-0.28133330811560153,0.3304670491188764,-0.04098901299238205
1772702637363915800,1.641915771484375,-0.25416999137997626,0.333707346214354,-0.2635270177900791
1772702637373965800,1.6519658203125,-0.26071897463202476,0.3709808458149433,-0.3584066109240055
1772702637384014600,1.6620146484375,-0.1844227936759591,0.3662114394560456,-0.339130832567811
1772702637394064600,1.672064697265625,-0.10722352640032767,0.4513257176399231,-0.07317746441364288
1772702637404114700,1.68211474609375,-0.1208908172249794,0.3498033254906535,-0.13637246399521827
1772702637414164700,1.692164794921875,-0.07415303144752979,0.1452981132507324,-0.2448486208051443
1772702637424214500,1.702214599609375,-0.15470102462917565,0.11059855579137802,-0.20519524033069608
1772702637434264600,1.7122646484375,-0.20814853717833756,0.05202624757438898,-0.3914472952604294
1772702637444314600,1.722314697265625,-0.13366495860219002,0.015179741214215755,-0.47203941984474657
1772702637454364700,1.73236474609375,0.016634031675755976,0.07003273664712906,-0.4943628953337669
1772702637464414700,1.742414794921875,0.15508330194503067,0.12902385479807854,-0.3976911580860615
1772702637474464800,1.75246484375,0.18181114987283944,0.10758885258138179,-0.3300374255299568
1772702637484513800,1.762513671875,0.10202917262762784,-0.031986206847429276,-0.33656302790641784
1772702637494563800,1.772563720703125,-0.12919336614608765,-0.059087272001802915,-0.08955635228455067
1772702637504613600,1.782613525390625,-0.2972977699667215,-0.07314297762215137,0.04553191711902618
1772702637514663700,1.79266357421875,-0.3434703230768442,0.024936872857809066,0.09172083684206009
1772702637524713700,1.802713623046875,-0.2858542926713824,0.12494973722696304,0.027006080347299573
1772702637534763800,1.812763671875,-0.4078676841855049,0.21541706687659024,0.023791794475913047
1772702637544813600,1.8228134765625,-0.4471446325629949,0.18778993202149866,0.019049568384885786
1772702637554863600,1.832863525390625,-0.3502496079534292,0.15932196242809293,-0.004193944558501243
1772702637564913700,1.84291357421875,-0.2025786280915141,0.1280710841178894,-0.046433249872922897
1772702637574963700,1.852963623046875,-0.09468845447599887,0.0864066560819745,-0.0014513678520917891
1772702637585012700,1.8630126953125,0.008648001357913018,0.016276304279267788,0.05948620819151401
1772702637595062800,1.873062744140625,0.08806114529073238,-0.019975158797204493,0.12954466380178928
1772702637605112800,1.88311279296875,0.10709990002065896,-0.05965104336440563,0.1533282749712467
1772702637615162600,1.89316259765625,0.05611643949747085,-0.08037614374607802,0.17209668832719324
1772702637625212700,1.903212646484375,-0.03228957370817661,-0.101392920550704,0.13364625390172005
1772702637635262700,1.9132626953125,-0.12815963918417692,-0.09344839128702878,0.0738081635326147
1772702637645312800,1.923312744140625,-0.1975175453096628,-0.05961188039779663,0.06045943713784217
1772702637655362600,1.933362548828125,-0.19143325695991514,-0.029811493156850336,0.07220540451109408
1772702637665412600,1.94341259765625,-0.18593115241229533,-0.025265374159812927,0.05094049816429615
1772702637675462000,1.9534619140625,-0.18640929131805895,-0.031055063477158546,0.03793196350932121
1772702637685512000,1.963511962890625,-0.1793798310726881,-0.07960866650491952,-0.009206804284453392
1772702637695561700,1.973561767578125,-0.14447802903950213,-0.10446136821061372,-0.03383797219395637
1772702637705611800,1.98361181640625,-0.13429887259155512,-0.106562724404037,-0.08609130652248859
1772702637715661800,1.993661865234375,-0.13889175333976744,-0.10848667820394038,-0.14811960041224956
1772702637725712000,2.0037119140625,-0.16989391758590935,-0.11542524529546498,-0.1703741023182869
1772702637735761700,2.01376171875,-0.20459493634998796,-0.08253273725807667,-0.16110826132297515
1772702637745811700,2.023811767578125,-0.21611703183948994,-0.05981091010123491,-0.1300970369875431
1772702637755861800,2.03386181640625,-0.19314269122630356,-0.06796528272330761,-0.08174363270699977
1772702637765910500,2.04391064453125,-0.2142576677083969,-0.0910863383308053,-0.01473638136088848
1772702637775960600,2.053960693359375,-0.21952684028297662,-0.10970891347527503,-0.025070143848657606
1772702637786010600,2.0640107421875,-0.21982874583899972,-0.1306824356600642,-0.06531622951924801
1772702637796061000,2.07406103515625,-0.22898937289416788,-0.10213087943643331,-0.03129354840815067
1772702637806110700,2.08411083984375,-0.21998013700842856,-0.07301876672059297,0.026978023296594617
1772702637816160800,2.094160888671875,-0.18604338061511516,-0.07054974625855684,0.09242869285047053
1772702637826210800,2.1042109375,-0.1432639770746231,-0.07422901929318905,0.1282329966813326
1772702637836260900,2.1142607421875,-0.13116495848000048,-0.0593733954668045,0.033089784175157545
1772702637846310700,2.124310546875,-0.1663485000640154,-0.08298165006935596,-0.07932546564936638
1772702637856360200,2.134360107421875,-0.24582594140470027,-0.08995908786654472,-0.08697451909780501
1772702637866409200,2.1444091796875,-0.2921253357648849,-0.05810469070523977,-0.05154255571067333
1772702637876459000,2.154458984375,-0.3165016521304846,-0.037489188177883624,-0.05527122084498405
1772702637886509000,2.164509033203125,-0.31770868983268735,-0.020366496202349663,-0.06923077261447906
1772702637896559400,2.174559326171875,-0.30339988623410463,-0.00781739575266838,-0.09354629870355129
1772702637906609400,2.184609375,-0.2662374457925558,-0.03184562933295965,-0.10944763219058513
1772702637916659200,2.1946591796875,-0.22659955514818428,-0.04976151751279831,-0.08321838143467902
1772702637926709200,2.204709228515625,-0.20787936484813688,-0.013800561815500259,-0.010482815569639205
1772702637936759300,2.21475927734375,-0.1922241150766611,-0.016794482934474945,0.06289981602728366
1772702637946809300,2.224809326171875,-0.17266104421168565,0.0058604164659976955,0.024575638329982757
1772702637956858000,2.234858154296875,-0.15994915441572666,0.006496960803866386,-0.04756663781702518
1772702637966908200,2.244908203125,-0.16517594915330408,-0.00274929870814085,-0.14665128142535686
1772702637976958200,2.254958251953125,-0.18209405846744775,-0.04557137234658003,-0.15257774886488915
1772702637987008300,2.26500830078125,-0.17279051581025123,-0.09137450762242079,-0.08708499373495578
1772702637997058000,2.27505810546875,-0.13711977523118257,-0.11281652410179376,-0.017049334478378295
1772702638007108000,2.285108154296875,-0.09703092594891786,-0.123075467787683,0.05046002117097378
1772702638017158100,2.295158203125,-0.06755290253013373,-0.10119067597687244,0.02972293809056282
1772702638027208400,2.30520849609375,-0.08649141175597906,-0.10750351238548755,-0.017421674922108648
1772702638037258200,2.31525830078125,-0.13654431343078613,-0.08391513152718544,-0.0329740488409996
1772702638047308300,2.325308349609375,-0.1548255277916789,-0.08944441634267568,-0.03591887012124061
1772702638057357300,2.335357421875,-0.14607757319062947,-0.07877309246361255,-0.01756371374130249
1772702638067407000,2.345406982421875,-0.10490151319354772,-0.06657441288679838,0.06058160221278667
1772702638077457200,2.35545703125,-0.0944017464891076,-0.06829436854720115,0.09715396780669688
1772702638087507200,2.365507080078125,-0.13002572531700132,-0.07223521512746811,0.1018020858734846
1772702638097557200,2.37555712890625,-0.17688158451616762,-0.10512187794595956,0.0877507641673088
1772702638107607000,2.38560693359375,-0.1999322052359581,-0.08791706064492463,0.08749591262340545
1772702638117657000,2.395656982421875,-0.18349954135119914,-0.09356704923063516,-0.010298106652498244
1772702638127707100,2.40570703125,-0.21172171948999166,-0.09675824648737907,-0.039271103158593175
1772702638137757200,2.415757080078125,-0.2071767695367336,-0.11497282535284757,-0.012951836031675337
1772702638147806200,2.42580615234375,-0.20796119791269302,-0.0982625135704875,-0.015055530312657356
1772702638157856300,2.435856201171875,-0.19053543133735656,-0.05405599983632564,-0.022946575823426244
1772702638167906300,2.44590625,-0.16787527123987675,0.004008358858525753,-0.06555705253779888
1772702638177956000,2.4559560546875,-0.21529051788747308,0.04851473232209682,-0.15115268449783326
1772702638188006100,2.466006103515625,-0.28722178163230416,0.09988134694397449,-0.17286884174346923
1772702638198056200,2.47605615234375,-0.28831659113168717,0.19226357030421495,-0.15088146634101868
1772702638208106200,2.486106201171875,-0.300085062597692,0.28576193821281193,-0.08486497959792613
1772702638218156000,2.496156005859375,-0.3306362682059407,0.318871303871274,0.0005617255359888076
1772702638228206000,2.5062060546875,-0.2980821983426809,0.242032978862524,-0.021261399215459824
1772702638238255400,2.51625537109375,-0.2410188333839178,0.17425269731730222,-0.09503916760981082
1772702638248305400,2.526305419921875,-0.18761048380136489,0.06320727454125881,-0.16689795064032076
1772702638258355200,2.536355224609375,-0.09745704240649938,-0.013462415902316569,-0.17713468249440192
1772702638268405200,2.5464052734375,-0.07154343347102403,-0.046052141600847245,-0.1286632047921419
1772702638278455300,2.556455322265625,-0.06321311976015567,-0.03580371930897236,-0.05054302327930927
1772702638288505300,2.56650537109375,-0.05529080232828855,-0.04603869759738445,-0.018490180936455724
1772702638298555100,2.57655517578125,-0.10759762040972709,-0.04330313515365124,-0.01472936709821224
1772702638308605200,2.586605224609375,-0.1579337229400873,0.007668050409853458,0.029882512566447257
1772702638318655200,2.5966552734375,-0.15007102674096823,0.03152501907646656,0.014136077380180358
1772702638328704000,2.6067041015625,-0.14536124161481856,0.07634294270724058,0.1433908183246851
1772702638338754300,2.61675439453125,-0.07945610629171132,0.035925007601082325,0.14658289236426353
1772702638348804400,2.626804443359375,-0.01903203272819519,-0.01864157210588455,0.1613239499002695
1772702638358854400,2.6368544921875,-0.04909223994910717,-0.07144172666221857,0.13171265549063682
1772702638368904200,2.646904296875,-0.11337211215794085,-0.1749108689650893,0.013340543088316916
1772702638378954200,2.656954345703125,-0.1393605398952961,-0.19127572831064463,0.02995850041210651
1772702638389004300,2.66700439453125,-0.12505202855765818,-0.11664689604490995,0.11065408537089824
1772702638399054300,2.677054443359375,-0.04376841457784176,-0.05853168394565582,0.12207798118293285
1772702638409104100,2.687104248046875,-0.01709434266388416,-0.01808481500595808,0.08451309742033482
1772702638419154200,2.697154296875,0.012521043398976325,-0.036815818960964676,-0.005989595803618431
1772702638429203200,2.707203125,-0.03666325874775648,-0.03216448602378368,-0.10338614019453525
1772702638439253200,2.717253173828125,-0.08889438124448061,-0.05584112968742847,-0.14662439341843128
1772702638449303000,2.727302978515625,-0.0970925930082798,-0.04428630097210407,-0.16304185973405838
1772702638459353000,2.73735302734375,-0.09320786052942276,-0.03542378008067608,-0.11295067187547683
1772702638469403400,2.7474033203125,-0.072379007512331,-0.0449035560876131,-0.04397533532679081
1772702638479453400,2.757453369140625,-0.05963350770771503,-0.08711042043715715,-0.038515316355228424
1772702638489503200,2.767503173828125,-0.05381166968643665,-0.10977087279558181,-0.05615501794219017
1772702638499553300,2.77755322265625,-0.028491350468993187,-0.07598989148586988,-0.07076455805301665
1772702638509603300,2.787603271484375,-0.05119184257686138,-0.03128682640641928,-0.06574819119572639
1772702638519652000,2.797652099609375,-0.0745358932852745,-0.04436901081949472,-0.03996025446653366
1772702638529702100,2.8077021484375,-0.06985650329738854,-0.05122252997606992,-0.027146365600824354
1772702638539752200,2.817752197265625,-0.07362754626870155,-0.07784574848562478,-0.010907178461551665
1772702638549802200,2.82780224609375,-0.07158347322046757,-0.0993906408175826,0.016718495088815687
1772702638559852000,2.83785205078125,-0.05275485410988331,-0.0939724151611328,0.06988543713092804
1772702638569902000,2.847902099609375,-0.04568710768073797,-0.10327537329643964,0.0826835439056158
1772702638579952000,2.8579521484375,-0.029687866777181625,-0.09163988056033849,0.024772622206807135
1772702638590002200,2.868002197265625,-0.06947334919869899,-0.0880038621455431,0.009255319601297378
1772702638600052200,2.87805224609375,-0.062009589189290996,-0.07828647799044847,0.015644143855571745
1772702638610101200,2.888101318359375,-0.05899520980417728,-0.06762012254744768,0.026713234880566594
1772702638620151300,2.8981513671875,-0.03283493263125419,-0.030244623877108096,0.01630056193768978
1772702638630201000,2.908201171875,-0.04325549661964178,-0.040594168455898756,0.009445289215445518
1772702638640251100,2.918251220703125,-0.062221478374302384,-0.025346622702479362,0.04149637799263
1772702638650301200,2.92830126953125,-0.13846592914313077,-0.03205722625702619,-0.014244798451662063
1772702638660351200,2.938351318359375,-0.1646636157169938,-0.023366554801166055,-0.06796703628897667
1772702638670401300,2.9484013671875,-0.11074117913246154,-0.04649462467133999,-0.07639467289447784
1772702638680451000,2.958451171875,-0.07191139000058173,-0.01844371144622564,-0.03194938196837902
1772702638690501000,2.968501220703125,-0.07631926957070827,0.0242971136495471,0.003729834178090095
1772702638700550400,2.97855029296875,-0.13728022648990154,0.017340134118497372,0.01758241844177246
1772702638710600200,2.98860009765625,-0.150132986061275,-0.00023848493099212645,-0.03526011395156383
1772702638720650200,2.998650146484375,-0.1151370760038495,0.019258242699503898,-0.06520458583831787
1772702638730700300,3.0087001953125,-0.12083294955790042,0.009404080422222613,-0.07090776591598986
1772702638740750300,3.018750244140625,-0.11701397579163313,0.036091596339643,-0.06801555160582065
1772702638750800100,3.028800048828125,-0.1366027656197548,0.028792963764071464,-0.04173837005496025
1772702638760850200,3.03885009765625,-0.1346767659932375,0.016150047551095486,-0.011701543709635734
1772702638770900200,3.048900146484375,-0.13976385999917984,-0.027179098826646802,0.027779987329244613
1772702638780950300,3.0589501953125,-0.09972294151186943,-0.061521513411402697,0.05951368072032928
1772702638790999300,3.068999267578125,-0.08205869000554085,-0.08739683616310358,0.05768062007427215
1772702638801049300,3.07904931640625,-0.10711451306790112,-0.10038695837855338,0.07972410957813263
1772702638811099400,3.089099365234375,-0.11056932969689369,-0.11756459541171789,0.059843351066112514
1772702638821149200,3.099149169921875,-0.1385322723776102,-0.11503770728260278,0.027103110980987548
1772702638831199200,3.10919921875,-0.11638269215077161,-0.14408172319829463,-0.01968377463519573
1772702638841249300,3.119249267578125,-0.10886983230262993,-0.15451193179786205,-0.044154783546924585
1772702638851299000,3.129299072265625,-0.08074380801469087,-0.1355503339573741,-0.05105974062979221
1772702638861348900,3.139348876953125,-0.07336918759346008,-0.10524959597885608,-0.0003179799079895019
1772702638871399000,3.14939892578125,-0.1363382694646716,-0.0470145568922162,0.02167816332280636
1772702638881449000,3.159448974609375,-0.19808336249887942,-0.035059330682456494,-0.008352233281731606
1772702638891497700,3.169497802734375,-0.19280659113973378,-0.05200608156919479,-0.01585924791097641
1772702638901548000,3.179548095703125,-0.16999971604794262,-0.057094636879861355,-0.012443886509537696
1772702638911598000,3.18959814453125,-0.16696400161385536,-0.028830665425956248,-0.0029062428355216977
1772702638921648000,3.199648193359375,-0.16576719304472207,0.002366144609451294,0.006021744507551193
1772702638931698200,3.2096982421875,-0.1566509896531701,-0.009249474382400513,-0.020976737055182455
1772702638941748000,3.219748046875,-0.12897563174217938,-0.019070318911969662,-0.0710544809103012
1772702638951798000,3.229798095703125,-0.13160948737710715,-0.05103343714475631,-0.10521510918736457
1772702638961848000,3.23984814453125,-0.16189415100365875,-0.02572890001833439,-0.0995890859991312
1772702638971898000,3.249898193359375,-0.1757484888330102,-0.01635989090949297,-0.09111644120812415
1772702638981947000,3.25994677734375,-0.14759090036302805,0.029219372482597827,-0.04141571397185325
1772702638991997000,3.269996826171875,-0.14854484008699656,0.08882599218338727,-0.011122867038846015
1772702639002047000,3.280046875,-0.17935031271725893,0.061759998342394824,-0.03232347597777843
1772702639012096800,3.2900966796875,-0.2038248287603259,0.0399301515892148,-0.05597966137528419
1772702639022146800,3.300146728515625,-0.1959647629097104,-0.02266834340393543,-0.027857144218683242
1772702639032197000,3.310197021484375,-0.19204145198613404,-0.03725537942200899,-0.005168342548608779
1772702639042247200,3.3202470703125,-0.16366408328562973,-0.05555588300526142,0.02507248193621635
1772702639052297000,3.330296875,-0.1476250948935747,-0.08066460529863834,0.035624271088838574
1772702639062346000,3.340345947265625,-0.1464092893630266,-0.10344166977405547,-0.001405190622806549
1772702639072396000,3.35039599609375,-0.17495441584587096,-0.10694237137138843,-0.023716391152143478
1772702639082445800,3.36044580078125,-0.1922828595265746,-0.062027417106926434,-0.0035690906584262844
1772702639092496000,3.370495849609375,-0.19902531952410935,0.00957856020629406,0.04879354926347732
1772702639102546000,3.3805458984375,-0.18987492160201072,0.0103349315315485,0.08580956697165966
1772702639112596000,3.390595947265625,-0.15971329983323812,-0.026706220617890356,0.09166413821876049
1772702639122645800,3.400645751953125,-0.15791443371772765,-0.041973932376503945,0.07647299882769584
1772702639132695800,3.41069580078125,-0.16574761156141757,-0.0567722730576992,0.04355038791298866
1772702639142745900,3.420745849609375,-0.18814765941798686,-0.09013970513045787,0.0258721078813076
1772702639152796000,3.4307958984375,-0.1792225946843624,-0.10077683447897434,0.004154197070002556
1772702639162845000,3.440844970703125,-0.15698212130367756,-0.10314911656826733,-0.024510756400227544
1772702639172895000,3.45089501953125,-0.1742249325275421,-0.07332651749551296,-0.05162263520956039
1772702639182945000,3.460945068359375,-0.17775106082707642,-0.05367752191275358,-0.050718379846215245
1772702639192995000,3.4709951171875,-0.18148440213650463,0.0024207974061369896,-0.06231938579082489
1772702639203044900,3.481044921875,-0.19245237087458372,0.05475245766788721,-0.036514497926831244
1772702639213095000,3.491094970703125,-0.17781740406155586,0.08331628885120153,-0.04325052818357944
1772702639223145000,3.50114501953125,-0.1512637436568737,0.08685907602459192,-0.059819970190525054
1772702639233195000,3.511195068359375,-0.13223346449434756,0.0692702278420329,-0.06384264983534813
1772702639243244800,3.521244873046875,-0.1485848798364401,0.05497311468124389,-0.11033259833157062
1772702639253294000,3.531294189453125,-0.15743132637590168,0.03368745780736208,-0.11000994224846362
1772702639263344000,3.54134423828125,-0.13895137457251547,0.04106237048953772,-0.0836947667747736
1772702639273394000,3.551393798828125,-0.11101064372360706,0.045880292165279384,-0.06290624576807022
1772702639283444000,3.56144384765625,-0.0819517224997282,0.05442337184399366,-0.06934416986107826
1772702639293494000,3.571493896484375,-0.10860299805998802,0.0254886615216732,-0.08350888881385325
1772702639303544000,3.5815439453125,-0.1355605630904436,0.05480477237701416,-0.06284077931642532
1772702639313593900,3.59159375,-0.14674568171054123,0.08357610883116721,-0.09475625901520252
1772702639323644000,3.601643798828125,-0.16462679083794354,0.07304360890090465,-0.10522621510326861
1772702639333694000,3.61169384765625,-0.1442030114904046,0.05342442393451929,-0.09690729956924915
1772702639343742700,3.62174267578125,-0.12217384277284145,0.03200286572128534,-0.11299334197342395
1772702639353793000,3.63179296875,-0.09415975442677736,-0.00928133082538843,-0.09458499410152435
1772702639363843000,3.641843017578125,-0.11350421410501002,-0.02116699893027544,-0.0804138454079628
1772702639373893000,3.65189306640625,-0.09317045112848281,0.0007832593321800232,-0.07634908018708228
1772702639383943200,3.661943115234375,-0.08740414268672465,-0.0356993821516633,-0.09117781600654125
1772702639393993000,3.671992919921875,-0.08143500514924526,-0.050365328624844545,-0.06447860965132712
1772702639404043000,3.68204296875,-0.12776187203824518,-0.04274550127089023,-0.04506196151971817
1772702639414093000,3.692093017578125,-0.15210136352479456,-0.012072422848641871,-0.04115326364338398
1772702639424143000,3.70214306640625,-0.1863157678157091,-0.01391249775737524,-0.04500292480885982
1772702639434192000,3.71219189453125,-0.20543840143680572,0.011206453669071198,-0.030378771650791166
1772702639444242000,3.722241943359375,-0.16672610120475292,-0.001923369278013706,-0.03240355547666549
1772702639454292000,3.7322919921875,-0.11292232256382703,-0.011991466566920279,-0.05622223795950412
1772702639464341800,3.742341796875,-0.14393003976792096,0.044262043313682074,0.007965864312648773
1772702639474392000,3.75239208984375,-0.19016893611252306,0.08247574637383222,0.06111059452295303
1772702639484442000,3.762442138671875,-0.19596242482215165,0.05898907232433557,-0.016590484794974325
1772702639494492200,3.7724921875,-0.21324469127357004,0.034572423948347565,-0.11364566840231417
1772702639504542000,3.7825419921875,-0.21331074224710464,0.025562895801663398,-0.09517477668821811
1772702639514592000,3.792592041015625,-0.19485621714591977,0.0006973346143960953,-0.0961819079041481
1772702639524641000,3.80264111328125,-0.1989081228852272,-0.03898468743264675,-0.06519464896619319
1772702639534690800,3.81269091796875,-0.21839754399210212,-0.050100247947871684,-0.05019231014549732
1772702639544740900,3.822740966796875,-0.22969722890257835,-0.044348552553355694,-0.03647650400400162
1772702639554791000,3.832791015625,-0.20557371825426815,-0.019991233149170874,-0.07454933728873729
1772702639564841000,3.842841064453125,-0.23014234232157468,-0.012751637284457683,-0.10999942085444926
1772702639574890800,3.852890869140625,-0.2397989362001419,-0.020217443120479583,-0.05361527033150196
1772702639584940800,3.86294091796875,-0.19463526787161825,-0.07035568499118089,0.07492576938569545
1772702639594990800,3.872990966796875,-0.09785627085715531,-0.09770517194867133,0.12290917131006716
1772702639605040000,3.8830400390625,-0.056906713092327116,-0.09017068479061126,0.11231763466894626
1772702639615090000,3.89308984375,-0.05416150603741407,-0.06788140383213757,0.08335223694741725
1772702639625140000,3.903139892578125,-0.014515139825642108,-0.08380728723853827,0.14143208547234534
1772702639635190000,3.91318994140625,0.07331073540449141,-0.11384849749803543,0.21165011555850505
1772702639645240000,3.923239990234375,-0.052638534253835675,-0.10146072508990764,0.1572153455376625
1772702639655289900,3.933289794921875,-0.21008388915508985,-0.12279606632441281,0.16512568027079105
1772702639665340000,3.94333984375,-0.17152648722380398,-0.13980711461901663,0.06040683016777038
1772702639675390000,3.953389892578125,-0.028949323369562623,-0.13402590086907148,-0.02376549099087715
1772702639685440000,3.96343994140625,0.025517010833323,-0.13098989417403936,0.008891746985912323
1772702639695489800,3.97348974609375,-0.012663082218170165,-0.12909078255444764,0.07884381961226462
1772702639705539000,3.9835390625,0.013476444427669048,-0.09697013567239046,0.0790495713174343
1772702639715589000,3.993589111328125,0.0793371560871601,-0.09568184942752123,0.037462592431902884
1772702639725639000,4.003638916015625,0.051693654619157314,-0.10733546234220266,-0.004815291327238082
1772702639735689000,4.01368896484375,0.01026128177344799,-0.10161211625933647,-0.05310030654668808
1772702639745739000,4.023739013671875,-0.02994593319147825,-0.12672113081365824,-0.10300210931301117
1772702639755789000,4.0337890625,-0.03872749780118465,-0.12317775911837815,-0.10300210931301117
1772702639765838800,4.0438388671875,-0.037569559937715526,-0.08689619316458702,-0.09350421312749385
1772702639775889000,4.053888916015625,-0.022800737611949444,-0.016247662706673143,-0.08069850756824017
1772702639785938000,4.06393798828125,0.0023655600875616073,0.05267565139383077,-0.10421148510277271
1772702639795988000,4.073988037109375,-0.028203765699267386,0.06132569857835769,-0.08955927489399909
1772702639806038000,4.0840380859375,-0.08080547507405281,0.06024608664810657,-0.04293488636314869
1772702639816088000,4.094088134765625,-0.12523527617007493,0.03428922309279442,-0.0392915614247322
1772702639826138000,4.10413818359375,-0.1389481597021222,0.04562748644798994,-0.04976736273169517
1772702639836188200,4.114188232421875,-0.10587328083515167,0.02350654779374599,-0.10083119501471519
1772702639846238000,4.124238037109375,-0.04975391872823238,0.010047639022767544,-0.09658405896425247
1772702639856288000,4.1342880859375,-0.04636164594143629,0.004354688078165054,-0.06960428210198878
1772702639866338000,4.144338134765625,-0.08200959016680717,0.024482114827632902,-0.06547872660458087
1772702639876387000,4.154386962890625,-0.14403817631751298,0.05980594166517257,-0.07409808638989925
1772702639886436900,4.164436767578125,-0.16744857026040552,0.08775602486431598,-0.08673603416681289
1772702639896487000,4.17448681640625,-0.1806672405347228,0.07702274166494608,-0.09723930800259113
1772702639906537000,4.184536865234375,-0.14996668958365916,0.05852993037998676,-0.10125672695040702
1772702639916587000,4.1945869140625,-0.11426263125687837,0.01345715520530939,-0.09067688074707984
1772702639926637000,4.204636962890625,-0.09609043022841214,-0.013248188629746437,-0.06571487344801426
1772702639936687000,4.21468701171875,-0.06182254218459129,-0.06811608937084675,0.007619242832064628
1772702639946737200,4.224737060546875,-0.05818944637924432,-0.09720978964716195,0.09952186598181724
1772702639956787200,4.234787109375,-0.09471241987347602,-0.07001578551232815,0.1424666892170906
1772702639966836000,4.2448359375,-0.152167706759274,-0.031079905657470226,0.14271160388886928
1772702639976886000,4.254885986328125,-0.18934242216050623,-0.009785773216187954,0.06662965020537376
1772702639986936000,4.26493603515625,-0.18877748175412415,-0.007491817060112952,-0.026261983981728552
1772702639996986000,4.274986083984375,-0.16047756220400333,0.015066051706671715,-0.08455342943072318
1772702640007036000,4.285035888671875,-0.1306897421836853,-0.0024546996757388116,-0.0433265160292387
1772702640017086000,4.2950859375,-0.12005290509611367,0.017573942874372004,-0.04160509906411171
1772702640027136000,4.305135986328125,-0.10913432845771312,-0.016641045938432214,0.0008557400465011596
1772702640037186000,4.31518603515625,-0.07112550031989813,-0.02139525472819805,0.05703004721105098
1772702640047235800,4.32523583984375,-0.07678308769017457,-0.06234276666641235,0.08609364461004733
1772702640057285000,4.33528515625,-0.12133008542507887,-0.13814502662569283,0.07230418871045112
1772702640067335200,4.345335205078125,-0.164532682813704,-0.14587299052923916,0.09744564422965049
1772702640077385000,4.355385009765625,-0.1899739980623126,-0.1137909220919013,0.07206044308245181
1772702640087435000,4.36543505859375,-0.19863047498762607,-0.05943360122144222,0.062438043734431264
1772702640097485000,4.375485107421875,-0.15900924321711063,-0.0279635272026062,-0.018399580043554305
1772702640107535000,4.38553515625,-0.14049626592695713,-0.046804129011929034,-0.09995265861451626
1772702640117585000,4.3955849609375,-0.10894903501868247,-0.0842652601391077,-0.08836918832659721
1772702640127635000,4.405635009765625,-0.12225275322794914,-0.09345072937458752,-0.053144730210304254
1772702640137685000,4.41568505859375,-0.11268880606889724,-0.09791881469935178,-0.04927461077868938
1772702640147734300,4.425734375,-0.12958616485595703,-0.09507979188114404,-0.047917350950837136
1772702640157784000,4.4357841796875,-0.13729513179808855,-0.10203531010746955,-0.04872399115860462
1772702640167834000,4.445834228515625,-0.15470891567468642,-0.11831424473524092,0.012901567149162291
1772702640177884200,4.45588427734375,-0.16402473329156636,-0.12305617856532335,0.07968786922097205
1772702640187934200,4.465934326171875,-0.19520722254067657,-0.10278232908248901,0.10227204147279262
1772702640197984000,4.47598388671875,-0.2171355612322688,-0.0564347116664052,0.07640811689794064
1772702640208034000,4.486033935546875,-0.22782032911479472,-0.009040800067782401,0.06361936247348784
1772702640218084000,4.496083984375,-0.22470424292087554,0.021042495767772198,0.07262976740300654
1772702640228132900,4.5061328125,-0.19360124864876269,0.032900106821954246,0.06787701991796494
1772702640238183000,4.516182861328125,-0.18132453539967536,-0.0016860533908009529,0.04951660284101963
1772702640248233000,4.52623291015625,-0.16526216613203287,-0.009952654215693474,0.045595045483112336
1772702640258283300,4.536283203125,-0.15180062701255082,0.006387655210494995,0.04352349990606308
1772702640268333000,4.5463330078125,-0.13917583097815514,0.03917699513435364,0.018465046495199203
1772702640278383000,4.556383056640625,-0.1507034794256091,0.04814443770498037,-0.024454057776927947
1772702640288433200,4.56643310546875,-0.1575900240689516,0.0568114360243082,-0.053038931748270984
1772702640298483200,4.576483154296875,-0.17117518956810235,0.03850654852688312,-0.05241057071685791
1772702640308533000,4.586532958984375,-0.16126637449413536,0.034951486393809315,-0.062470192438364026
1772702640318582000,4.59658203125,-0.12974427802711724,0.02773877853602171,-0.07807458880543708
1772702640328632000,4.606632080078125,-0.09789835643321275,0.0043289691150188445,-0.12319734060168265
1772702640338681900,4.616681884765625,-0.09331365899145602,-0.00317541516572237,-0.13524901292324065
1772702640348732000,4.62673193359375,-0.12143354579955339,-0.015638590897619722,-0.1388069976657629
1772702640358782000,4.636781982421875,-0.13089286354035137,-0.02231587670445442,-0.11064765563011168
1772702640368832000,4.64683203125,-0.1271913786739111,0.008805530007183551,-0.07382745275497436
1772702640378882000,4.656882080078125,-0.12973638698160647,0.04765782323181629,-0.06171674372255802
1772702640388932000,4.66693212890625,-0.13152853109538554,0.07164864741116762,-0.07997896112203598
1772702640398982100,4.676982177734375,-0.11794161203056573,0.08046703689992428,-0.09949205536544323
1772702640409031200,4.68703125,-0.09181728295385837,0.02470394088476896,-0.08433364920020103
1772702640419081000,4.6970810546875,-0.09042845894396305,-0.045049978820979594,-0.027764789760112762
1772702640429131000,4.707131103515625,-0.07392214530110358,-0.09009703503251075,0.03413198670446872
1772702640439181000,4.71718115234375,-0.08840133703052996,-0.07990443458110094,0.02656710440814495
1772702640449231000,4.727231201171875,-0.08116086438298224,-0.06193593943119049,-0.01611760658621788
1772702640459281000,4.737281005859375,-0.07918138100355863,-0.059768532264232635,-0.021730185770988463
1772702640469331000,4.7473310546875,-0.0869885476231575,-0.06264730257093906,-0.0027110125243663785
1772702640479381000,4.757381103515625,-0.09607464813739061,-0.03328296865969896,-0.013621698117256163
1772702640489431000,4.76743115234375,-0.12520078937858342,-0.04865472531467676,-0.006026420682668686
1772702640499480000,4.77747998046875,-0.1363569741651416,-0.025866262662410735,0.043022564646601674
1772702640509530000,4.787530029296875,-0.1127519344329834,-0.042220016092061996,0.0508686019718647
1772702640519580200,4.797580078125,-0.09507365440130233,-0.0522694086804986,0.04682312597334384
1772702640529630000,4.8076298828125,-0.10452888048887252,-0.0560337296500802,0.008646832314133643
1772702640539680000,4.817679931640625,-0.12450082441568373,-0.04850216510146856,-0.010203414106369019
1772702640549730000,4.82772998046875,-0.15119301650822162,-0.01626841323375702,-0.015950433325767517
1772702640559780000,4.837780029296875,-0.1814279957741499,0.05384527969509363,-0.034518940195441244
1772702640569830000,4.847829833984375,-0.20206950952559707,0.08027472919821739,-0.05521510674357414
1772702640579880000,4.8578798828125,-0.21578034723103046,0.117851595659554,-0.05653320360481739
1772702640589929200,4.86792919921875,-0.20893296555429697,0.10851824238598345,-0.1024994204878807
1772702640599979300,4.877979248046875,-0.2128825799629092,0.11296966883689165,-0.1145510928094387
1772702640610029000,4.888029052734375,-0.21775486217439174,0.08420125499218702,-0.11370762772262095
1772702640620079000,4.8980791015625,-0.20886399197131394,0.07723901476413012,-0.06494973429441452
1772702640630129200,4.908129150390625,-0.13611498210281134,0.07709171524792909,-0.06042670391201973
1772702640640179200,4.91817919921875,-0.073156713886559,0.0525718987584114,-0.005790858361124992
1772702640650229000,4.92822900390625,-0.02948416089862585,0.05306523523330688,0.004169979161024093
1772702640660279000,4.938279052734375,-0.059796297053992746,0.0012160977914929389,-0.03216156341433525
1772702640670328000,4.948328125,-0.12762187904566524,-0.0983341175019741,-0.03175064452588558
1772702640680377900,4.9583779296875,-0.1818967823296785,-0.11457330464124679,-0.04349427381157875
1772702640690428000,4.968427978515625,-0.21016893709003925,-0.08090718188285827,-0.040192309656739235
1772702640700478000,4.97847802734375,-0.2223492042273283,-0.06254179636985063,-0.024079963767528533
1772702640710528300,4.9885283203125,-0.23074995282590388,-0.06411328347027301,0.010745850419998168
1772702640720578000,4.998578125,-0.2278472171217203,-0.05844459018409252,0.04026186776161193
1772702640730628000,5.008628173828125,-0.20523177294880152,-0.015856909823417663,0.05210369672477245
1772702640740678100,5.01867822265625,-0.14417933835387228,0.014925766453146933,0.05192600207030773
1772702640750728200,5.028728271484375,-0.14178192182332278,-0.013355156135559081,0.008591302734613417
1772702640760777000,5.03877685546875,-0.14380699791014193,-0.04455868817269802,0.005533084207773208
1772702640770827000,5.048826904296875,-0.14425591072142124,-0.06610182693898678,-0.031233342653512953
1772702640780877000,5.058876953125,-0.14470423901081084,-0.08519435768276452,-0.020941081219911575
1772702640790926800,5.0689267578125,-0.1495037482470274,-0.09181699069291353,-0.012266191855072975
1772702640800977000,5.078976806640625,-0.14472031336277721,-0.07758826659321784,-0.010295768564939498
1772702640811027000,5.08902685546875,-0.11636048031896352,-0.0978264602407813,-0.02544482237994671
1772702640821077000,5.099076904296875,-0.10293138216435908,-0.0928787747055292,-0.03342646878361702
1772702640831127000,5.109126953125,-0.12185527834296225,-0.09662117610424756,-0.03208440652489662
1772702640841177000,5.119177001953125,-0.1431675309628248,-0.06741787797361612,-0.06651859104633331
1772702640851225900,5.129225830078125,-0.17258417958319186,-0.03807575589418411,-0.05261982955336571
1772702640861276000,5.13927587890625,-0.19828823742121457,-0.01273000997453928,-0.017451485538482664
1772702640871326000,5.149325927734375,-0.216280990229547,-0.03033464024811983,0.007880524116754531
1772702640881376000,5.1593759765625,-0.19658172576427457,-0.024884265887737272,0.00611819061934948
1772702640891425800,5.16942578125,-0.18047113344073296,-0.03515782262086868,-0.012983400213718414
1772702640901475800,5.179475830078125,-0.15750819100439548,-0.012618950815498828,-0.007775310176610946
1772702640911526000,5.18952587890625,-0.15765256791114807,-0.00034837504625320433,-0.02315408109426498
1772702640921576000,5.199575927734375,-0.17959288930147885,-0.0052712184011936185,-0.04127601324021816
1772702640931625000,5.209625,-0.1776449701040983,-0.003837386205792427,-0.04921849667727947
1772702640941675000,5.219675048828125,-0.1691591735705733,0.03990414036512375,-0.0705056148558855
1772702640951725000,5.22972509765625,-0.1726423395112157,0.05260463198423385,-0.08621288707554339
1772702640961774800,5.23977490234375,-0.12085253104120493,0.04131079229265451,-0.03275368408858776
1772702640971825000,5.249824951171875,-0.07967208712995053,0.0381526205226779,0.0031488194197416305
1772702640981875000,5.259875,-0.06878799728304147,0.018724574214220045,0.028622867894172666
1772702640991925000,5.269925048828125,-0.043808162066340445,-0.010190554624795914,0.02826104884445667
1772702641001974800,5.279974853515625,-0.04165887507796287,0.005065174435079097,0.00630289953649044
1772702641012024800,5.29002490234375,-0.07909691759049892,-0.013050035709142684,-0.010660510224103926
1772702641022074000,5.30007421875,-0.178643333491683,-0.051392041324079034,0.017598785054683683
1772702641032124200,5.310124267578125,-0.23228403052538632,-0.06348170756846666,0.021795067700743673
1772702641042174000,5.320174072265625,-0.2219610816925764,-0.07028846497386694,0.011444354078173636
1772702641052224000,5.33022412109375,-0.1558712374523282,-0.06511252364069223,0.007165653845667839
1772702641062274000,5.340274169921875,-0.12876286577433346,-0.03447597783654928,-0.01257657297849655
1772702641072324000,5.350323974609375,-0.0942450946226716,-0.05192658659219741,0.003455108889937401
1772702641082372900,5.360372802734375,-0.09010288025140761,-0.0868684283748269,0.015506196689605713
1772702641092423000,5.3704228515625,-0.09527005375623702,-0.09900076471716165,0.02456687050163746
1772702641102473000,5.380472900390625,-0.1083572066053748,-0.09456716618388891,0.025438392639160156
1772702641112522800,5.390522705078125,-0.13203501931279896,-0.07350479667186736,0.033839141237735744
1772702641122572800,5.40057275390625,-0.12392390131056308,-0.05020107797384262,0.016720833176374433
1772702641132622800,5.410622802734375,-0.12726385938823223,-0.030708734257519243,0.0029769699841737745
1772702641142673000,5.4206728515625,-0.09746844058334826,-0.03094195849150419,0.02342120759785175
1772702641152723000,5.430722900390625,-0.10637947679162024,-0.05577420193105936,0.04620236372649669
1772702641162773000,5.44077294921875,-0.10477087255120276,-0.049026188975572586,0.04339198248088359
1772702641172822000,5.450822021484375,-0.10236702627986669,-0.03938771527558565,0.03074994305074215
1772702641182871800,5.460871826171875,-0.11750409739613532,-0.0392287253215909,0.023158757269382477
1772702641192921900,5.470921875,-0.11526041012257338,-0.024402327589690683,-0.008397825989127158
1772702641202972000,5.480971923828125,-0.08535393215864896,-0.01431289525181055,-0.038842064091563225
1772702641213022000,5.49102197265625,-0.06474602841585875,0.002314414422214031,-0.03173310886919498
1772702641223071700,5.50107177734375,-0.05206657958477735,-0.009554302547872066,0.007073883908987045
1772702641233121800,5.511121826171875,-0.05400310060530901,-0.008754676602780818,-0.011247370201349258
1772702641243171800,5.521171875,-0.09108020085096359,0.0037011926054954527,-0.0033510639935731886
1772702641253222000,5.531221923828125,-0.12400485759228468,0.04993307468742132,-0.026675825479626655
1772702641263271000,5.54127099609375,-0.149276953753829,0.08664689457863568,-0.0799386291116476
1772702641273321000,5.551321044921875,-0.1522708748728037,0.11547083800286054,-0.10480535934269428
1772702641283371000,5.56137109375,-0.1716378386437893,0.11825783837288617,-0.11640519624352455
1772702641293421000,5.571421142578125,-0.17675737361460922,0.056741877919435496,-0.10061433739364146
1772702641303470800,5.581470947265625,-0.12487813329547642,0.014422785367071627,-0.035357144585251805
1772702641313521000,5.59152099609375,-0.04287029669433832,-0.00799041423201561,-0.0032388357907533645
1772702641323571000,5.601571044921875,-0.022156594489514826,-0.04017798887044191,-0.004604863446950912
1772702641333621000,5.61162109375,-0.033195290376245974,-0.05423749388307333,-0.005692658683657646
1772702641343670000,5.621669921875,-0.04398030376285314,-0.02135989115387201,-0.006490531063079834
1772702641353720000,5.631719970703125,-0.07553221084624528,0.026074352455139158,-0.004845101943612098
1772702641363770000,5.64177001953125,-0.0970507996931672,0.06453969218879937,-0.04739011220633983
1772702641373820000,5.65181982421875,-0.1384600839242339,0.05943360122144222,-0.0654687897324562
1772702641383870000,5.661869873046875,-0.16666443414539098,0.055336687296628946,-0.053071080452203746
1772702641393920000,5.671919921875,-0.16016075133979318,0.010579846203327178,-0.02195639574229717
1772702641403970000,5.681969970703125,-0.033406010517477984,-0.023645956264436243,0.01950607998073101
1772702641414019800,5.692019775390625,-0.021309622271358967,0.022374913415312767,-0.0015419687449932098
1772702641424070000,5.70206982421875,-0.029551965437829494,0.020440730482339856,-0.01416822608411312
1772702641434120000,5.712119873046875,-0.08256956213712692,0.0015337854385375975,-0.0230313314974308
1772702641444170000,5.722169921875,-0.07785100918263196,-0.010583937856554985,-0.0320025734603405
1772702641454219800,5.7322197265625,-0.08655687820762395,-0.008543956461548805,-0.02599719556570053
1772702641464269800,5.742269775390625,-0.11296557718366383,-0.0056426820620894425,-0.00715162532031536
1772702641474320000,5.75231982421875,-0.14043927504271267,0.021024667850136756,0.005416179829835891
1772702641484370000,5.762369873046875,-0.14072072233259678,-0.015147592510282993,0.0029559271961450573
1772702641494419000,5.7724189453125,-0.13004618358314038,-0.007560498382151126,0.02304652906656265
1772702641504469000,5.782468994140625,-0.06428513290584087,0.02279430787116289,0.01627133584320545
1772702641514519000,5.79251904296875,-0.042678281253576276,0.03177519444525242,-0.01887596538364887
1772702641524569000,5.802569091796875,-0.06429302395135164,0.036983284482359886,-0.027253917628526685
1772702641534619000,5.812618896484375,-0.12452742016166447,0.007724749033153057,-0.019662731847167013
1772702641544669000,5.8226689453125,-0.1729179415822029,-0.01944061352908611,-0.0196808520257473
1772702641554719000,5.832718994140625,-0.19050445167720317,-0.05694733736366033,-0.014920505756139754
1772702641564769000,5.84276904296875,-0.17177929294109343,-0.0813131323352456,-0.006202946293354034
1772702641574817800,5.85281787109375,-0.10431348417252302,-0.07428308756798506,0.016028759258985517
1772702641584867800,5.862867919921875,-0.06963087784796952,-0.09153320531547068,0.023973580783605574
1772702641594918000,5.87291796875,-0.06590396627932786,-0.08032324451506137,0.019198621466755866
1772702641604968000,5.882968017578125,-0.0904395648598671,-0.08376783201098442,0.025347791746258733
1772702641615018000,5.89301806640625,-0.11392097821235656,-0.0898968362852931,-0.005314473021030426
1772702641625068000,5.903068115234375,-0.13932254597246646,-0.08896335482746362,0.031575872480869294
1772702641635118000,5.9131181640625,-0.14615502234101294,-0.08216507298946381,0.03904489318728447
1772702641645167900,5.92316796875,-0.14184212757796047,-0.10083616345077752,0.019626491490006445
1772702641655218000,5.933218017578125,-0.11208557947874069,-0.11879501398950815,0.004293897801637649
1772702641665267000,5.943266845703125,-0.1092550322279334,-0.09381517877280711,-0.02294891391098499
1772702641675316700,5.953316650390625,-0.11635521962195634,-0.0644406157284975,-0.04134031064808368
1772702641685366800,5.96336669921875,-0.1281952950194478,-0.017104571796953676,-0.040214521488547324
1772702641695416800,5.973416748046875,-0.15049246702343225,0.0022296587482094764,-0.0020598551392555235
1772702641705467000,5.983466796875,-0.1543544031485915,-0.0200751120403409,0.020922376519441604
1772702641715517000,5.993516845703125,-0.16441636295765638,-0.03360679378658533,0.009855039060115813
1772702641725567000,6.00356689453125,-0.1673579693675041,-0.034998540405929084,-0.031014146944880482
1772702641735617000,6.013616943359375,-0.15772534088641404,0.0026774025157094,-0.07462181800305843
1772702641745667000,6.0236669921875,-0.13367869486659764,0.045292263144254684,-0.06311024390757083
1772702641755715800,6.0337158203125,-0.0616673516228795,0.02005202342569828,-0.0035357729107141495
1772702641765766000,6.043765869140625,-0.04371726891249418,0.01177577798962593,0.02071954742372036
1772702641775816000,6.05381591796875,-0.11164221962541342,-0.0030392215654253957,0.004509586378931999
1772702641785866000,6.063865966796875,-0.1881844842970371,-0.014867898786067962,-0.03308160086870193
1772702641795915800,6.073915771484375,-0.20984803457260132,-0.021771102303266524,-0.04200783464610577
1772702641805965800,6.0839658203125,-0.23040274682343004,-0.033543665422499175,-0.01967909846007824
1772702641816016000,6.094015869140625,-0.2040416863813996,-0.06865121916085482,0.03957622358500957
1772702641826066000,6.10406591796875,-0.17365268559753894,-0.07785626987963915,0.09263795168697833
1772702641836115000,6.114114990234375,-0.1420312204092741,-0.0012242810979485512,0.04937281045615673
1772702641846165000,6.1241650390625,-0.10557283658385276,0.04890022450834512,-0.07475567351579665
1772702641856215800,6.1342158203125,-0.0787841983795166,0.06309709216505288,-0.15183891319632528
1772702641866265900,6.144265869140625,-0.05454086074382066,0.0609071809053421,-0.12370587464570998
1772702641876315600,6.154315673828125,-0.0896092515155673,0.05249386508613824,-0.06235153449475765
1772702641886365700,6.16436572265625,-0.10030629435777663,0.01925590461194515,0.0012649053692817688
1772702641896415700,6.174415771484375,-0.10767506956011057,-0.03175795104950666,0.028190321695804595
1772702641906465800,6.1844658203125,-0.10810060149580239,-0.0501671757042408,0.01826689357459545
1772702641916515600,6.194515625,-0.09712649527788161,-0.057469899933040136,0.04583879111111164
1772702641926564600,6.204564697265625,-0.0637546792909503,-0.06946458137035369,0.048210780939459796
1772702641936614700,6.21461474609375,-0.06083148532062769,-0.01668137794882059,0.0009048398852348328
1772702641946664400,6.22466455078125,-0.05182166491299867,0.034629707093536855,-0.0034907647252082822
1772702641956714800,6.23471484375,-0.042943069669604296,0.017399755351245404,-0.021097148564457893
1772702641966764800,6.244764892578125,-0.051993222087621686,-0.017007541163265704,-0.00713116705417633
1772702641976814800,6.25481494140625,-0.10181786796450615,-0.0008446341305971145,0.0010550620108842848
1772702641986864600,6.26486474609375,-0.11120616629570722,0.04214870442152023,-0.04570318203270435
1772702641996914700,6.274914794921875,-0.08325286822617053,0.03132803519964218,-0.05432663347125053
1772702642006963700,6.284963623046875,-0.2110705621048808,-0.14431962360739706,-0.0905699132412672
1772702642017013800,6.295013671875,0.3626683600217104,-0.14985270781517027,-0.15213818840384483
1772702642027063600,6.3050634765625,0.7829159255698322,0.3761737382829189,0.24778292069137095
1772702642037113600,6.315113525390625,0.007364975810050964,0.09592354922890663,0.1892401308298111
1772702642047163600,6.32516357421875,-0.7699903930231928,-0.3044666386827826,0.013662030127644538
1772702642057213700,6.335213623046875,-1.1798089190155268,-0.21372925992012023,-0.03252630507349968
1772702642067263500,6.345263427734375,-1.135303714595735,0.09088292471319437,0.0709632954955101
1772702642077313500,6.3553134765625,-0.42979719192087645,0.06369885745048523,-0.09471241987347602
