time,seconds_elapsed,z,y,x
1772702635778543900,0.0565439453125,0.06717611104249954,-0.11795699596405029,-0.014935540035367012
1772702635788594000,0.066593994140625,0.06677477061748505,-0.049679405987262726,-0.05005624145269394
1772702635798644000,0.07664404296875,0.05847343057394028,-0.00016724651504773647,-0.05639110505580902
1772702635808693800,0.08669384765625,0.044010866433382034,0.09637660533189774,-0.03991172835230827
1772702635818743000,0.096742919921875,0.05176359415054321,0.16113083064556122,0.009161540307104588
1772702635828793000,0.10679296875,0.05222751945257187,0.16087409853935242,0.04627801477909088
1772702635838843000,0.1168427734375,0.05161206051707268,0.22840601205825806,0.03169800713658333
1772702635848892700,0.126892578125,0.05651920288801193,0.1740085482597351,0.0380251482129097
1772702635858942700,0.136942626953125,0.02744893543422222,0.15050934255123138,0.04722796753048897
1772702635868992800,0.14699267578125,0.021940985694527626,0.17865842580795288,0.04952440783381462
1772702635879042800,0.157042724609375,0.013885721564292908,0.20977027714252472,0.04450621455907822
1772702635889092600,0.167092529296875,-0.0070978570729494095,0.19623182713985443,0.034388866275548935
1772702635899142700,0.177142578125,-0.02225363999605179,0.1409110426902771,0.03215181082487106
1772702635909192000,0.18719189453125,-0.029447903856635094,0.10237883776426315,0.042399123311042786
1772702635919242000,0.197241943359375,-0.037687722593545914,0.12054399400949478,0.05800924077630043
1772702635929291800,0.207291748046875,-0.03978576138615608,0.15393443405628204,0.07072477042675018
1772702635939341800,0.217341796875,-0.04346678406000137,0.1669122874736786,0.07788707315921783
1772702635949392000,0.227391845703125,-0.05116331949830055,0.15015462040901184,0.08789336681365967
1772702635959442000,0.23744189453125,-0.08002159744501114,0.1262490153312683,0.0993441641330719
1772702635969491700,0.24749169921875,-0.10686492919921875,0.10959254205226898,0.10530378669500351
1772702635979541800,0.257541748046875,-0.12235547602176666,0.09140074998140335,0.10457541048526764
1772702635989591800,0.267591796875,-0.12579494714736938,0.05824146792292595,0.10339456796646118
1772702635999641900,0.277641845703125,-0.1259550005197525,0.041431594640016556,0.09850340336561203
1772702636009691000,0.28769091796875,-0.11058829724788666,0.05910273641347885,0.1058201715350151
1772702636019741000,0.297740966796875,-0.10111330449581146,0.10708437860012054,0.10669688880443573
1772702636029791000,0.307791015625,-0.09435845911502838,0.12881045043468475,0.10664575546979904
1772702636039840800,0.3178408203125,-0.09534543007612228,0.12506337463855743,0.10767825692892075
1772702636049890800,0.327890869140625,-0.09946560114622116,0.09139249473810196,0.11047723889350891
1772702636059940900,0.33794091796875,-0.09646395593881607,0.04590863734483719,0.1101699098944664
1772702636069991000,0.347990966796875,-0.0922260656952858,0.003091397462412715,0.10626065731048584
1772702636080040700,0.358040771484375,-0.08127009123563766,-0.018881812691688538,0.09467990696430206
1772702636090090800,0.3680908203125,-0.07906845211982727,-0.0208288487046957,0.08081095665693283
1772702636100139800,0.378139892578125,-0.0689053013920784,-0.0036993969697505236,0.06492120772600174
1772702636110189800,0.38818994140625,-0.0657379999756813,0.018549982458353043,0.04266250878572464
1772702636120239600,0.398239501953125,-0.05553356558084488,0.013789582066237926,0.026561569422483444
1772702636130290000,0.4082900390625,-0.04783330112695694,-0.006762565113604069,0.011444135569036007
1772702636140340000,0.418340087890625,-0.042755186557769775,-0.016170714050531387,-0.00032863407977856696
1772702636150390000,0.42839013671875,-0.03440031781792641,-0.010324276052415371,0.0005834985640831292
1772702636160439800,0.438439697265625,-0.03165619820356369,0.003224289044737816,0.00868962798267603
1772702636170489900,0.44848974609375,-0.027215640991926193,0.011567972600460052,0.004923652391880751
1772702636180540000,0.458539794921875,-0.009613744914531708,0.008676579222083092,-0.005031776614487171
1772702636190590000,0.46858984375,0.003153448924422264,0.008794822730123997,-0.029354160651564598
1772702636200638700,0.478638671875,-0.0165542084723711,0.00009640643111197278,-0.03008253499865532
1772702636210688800,0.488688720703125,-0.0005901564727537334,0.026043584570288658,-0.029740318655967712
1772702636220738800,0.49873876953125,0.008901082910597324,0.03802115097641945,-0.06291398406028748
1772702636230788600,0.50878857421875,0.014024739153683186,0.022963639348745346,-0.09008541703224182
1772702636240838700,0.518838623046875,0.010566091164946556,0.01612916961312294,-0.07619117200374603
1772702636250888700,0.528888671875,0.006777478381991386,0.006960970349609852,-0.03815990313887596
1772702636260939000,0.53893896484375,0.00358860963024199,-0.015468970872461796,-0.019035210832953453
1772702636270988800,0.54898876953125,0.005968144163489342,-0.0370701365172863,-0.014896923676133156
1772702636281038800,0.559038818359375,0.02833896316587925,-0.020434435456991196,-0.02930835448205471
1772702636291089000,0.5690888671875,0.024470189586281776,-0.008051268756389618,-0.02840394526720047
1772702636301137700,0.5791376953125,0.04584365338087082,0.009410013444721699,-0.03194115310907364
1772702636311187700,0.589187744140625,0.01389823853969574,-0.030519826337695122,-0.03909467160701752
1772702636321237800,0.59923779296875,0.016081232577562332,-0.04483724758028984,-0.0168564785271883
1772702636331287800,0.609287841796875,0.028207935392856598,-0.018553445115685463,0.012717659585177898
1772702636341337600,0.619337646484375,0.03284849226474762,0.0046421559527516365,0.02563265897333622
1772702636351387600,0.6293876953125,0.04168273136019707,0.018455706536769867,0.016761403530836105
1772702636361437700,0.639437744140625,0.04911321774125099,0.02852005884051323,0.015079882927238941
1772702636371487700,0.64948779296875,0.056293897330760956,0.03635667636990547,0.01278690155595541
1772702636381537800,0.659537841796875,0.05584089457988739,0.027179423719644547,0.013247628696262836
1772702636391587800,0.669587890625,0.060504887253046036,0.017225591465830803,0.012975719757378101
1772702636401636900,0.679636962890625,0.061534732580184937,0.020793961361050606,0.004038949962705374
1772702636411687000,0.68968701171875,0.07282813638448715,0.03967657312750816,-0.0004040015337523073
1772702636421736700,0.69973681640625,0.0734180212020874,0.06149691715836525,-0.01830177567899227
1772702636431786800,0.709786865234375,0.062319301068782806,0.0820048525929451,-0.0300817359238863
1772702636441836800,0.7198369140625,0.05685023218393326,0.08626111596822739,-0.02684386447072029
1772702636451886800,0.729886962890625,0.04566255956888199,0.07851158827543259,-0.015596802346408367
1772702636461936600,0.7399365234375,0.03470578417181969,0.04899550601840019,-0.010426275432109833
1772702636471986700,0.749986572265625,0.01895744539797306,0.0476149246096611,-0.0023270701058208942
1772702636482036700,0.76003662109375,0.0033574472181499004,0.04770094156265259,0.009621734730899334
1772702636492086800,0.770086669921875,-0.005285575985908508,0.05998450890183449,0.018442124128341675
1772702636502135800,0.7801357421875,-0.008816128596663475,0.08524458855390549,0.025893649086356163
1772702636512185900,0.790185791015625,-0.00027856664382852614,0.11803316324949265,0.017774736508727074
1772702636522236000,0.80023583984375,0.0033129723742604256,0.13625770807266235,0.0026815368328243494
1772702636532285700,0.81028564453125,0.006612096447497606,0.12989568710327148,-0.010179134085774422
1772702636542335700,0.820335693359375,-0.003501257859170437,0.12760908901691437,-0.013617807999253273
1772702636552385800,0.8303857421875,-0.03045724146068096,0.11966035515069962,0.0025150892324745655
1772702636562435800,0.840435791015625,-0.06205538287758827,0.10114685446023941,0.02515009418129921
1772702636572485600,0.850485595703125,-0.07833262532949448,0.08146343380212784,0.04920269921422005
1772702636582535700,0.86053564453125,-0.07311069220304489,0.10747373104095459,0.06197894737124443
1772702636592585700,0.870585693359375,-0.05377667769789696,0.14403919875621796,0.057857971638441086
1772702636602635000,0.880635009765625,-0.02857225574553013,0.15014955401420593,0.04109577089548111
1772702636612684800,0.890684814453125,-0.018073009327054024,0.144987553358078,0.029652433469891548
1772702636622734800,0.90073486328125,-0.023452861234545708,0.1870681494474411,-0.007507717236876488
1772702636632785000,0.910784912109375,-0.00717615382745862,0.1917574554681778,-0.020425645634531975
1772702636642835000,0.9208349609375,-0.014102236367762089,0.13725292682647705,0.004893824923783541
1772702636652884700,0.930884765625,-0.0193683709949255,0.18344013392925262,-0.005396096967160702
1772702636662934800,0.940934814453125,-0.008271778002381325,0.13697142899036407,0.012523781508207321
1772702636672984800,0.95098486328125,-0.006518353242427111,0.13974910974502563,0.02087758481502533
1772702636683035000,0.961034912109375,0.0012394351651892066,0.19048792123794556,0.011861186474561691
1772702636693084700,0.971084716796875,0.017589645460247993,0.18684977293014526,0.026704581454396248
1772702636703133700,0.9811337890625,0.017195232212543488,0.2294853925704956,0.02225896716117859
1772702636713184000,0.99118408203125,0.013001818209886551,0.21100038290023804,0.03134540468454361
1772702636723233800,1.00123388671875,-0.005518335849046707,0.19053718447685242,0.02435913495719433
1772702636733283800,1.011283935546875,-0.020317522808909416,0.09263193607330322,0.043360255658626556
1772702636743334000,1.021333984375,-0.04304094240069389,0.1323700249195099,0.021805429831147194
1772702636753384000,1.031384033203125,-0.04080016165971756,0.040581781417131424,0.03129373863339424
1772702636763433700,1.041433837890625,-0.04036979377269745,0.05163869261741638,0.04096021503210068
1772702636773483800,1.05148388671875,-0.02207813784480095,0.1122642233967781,0.04154078662395477
1772702636783533800,1.061533935546875,-0.017604559659957886,0.1409834921360016,0.03922276943922043
1772702636793583900,1.071583984375,-0.022727683186531067,0.14122849702835083,0.03063061274588108
1772702636803632600,1.081632568359375,-0.017019197344779968,0.11891919374465942,0.012509932741522789
1772702636813682700,1.0916826171875,-0.010009224526584148,0.1163250133395195,-0.009518137201666832
1772702636823732700,1.101732666015625,-0.0046480149030685425,0.12009844183921814,-0.03620727360248566
1772702636833782800,1.11178271484375,-0.0021920478902757168,0.12958702445030212,-0.06028810888528824
1772702636843833600,1.12183349609375,0.010187123902142048,0.12927916646003723,-0.08699402213096619
1772702636853883600,1.131883544921875,0.012863334268331528,0.12533634901046753,-0.11617214232683182
1772702636863933700,1.14193359375,0.016875119879841805,0.12637098133563995,-0.13697116076946259
1772702636873983700,1.151983642578125,0.026693396270275116,0.14825710654258728,-0.14624854922294617
1772702636884033800,1.16203369140625,0.031729165464639664,0.1711200773715973,-0.15285106003284454
1772702636894083800,1.172083740234375,0.04273334890604019,0.16468775272369385,-0.15249712765216827
1772702636904132600,1.182132568359375,0.0497683547437191,0.13759860396385193,-0.15452486276626587
1772702636914182700,1.1921826171875,0.06197868287563324,0.08695913106203079,-0.1606474667787552
1772702636924232700,1.202232666015625,0.059718724340200424,0.08968061953783035,-0.19125118851661682
1772702636934282800,1.21228271484375,0.07951799780130386,0.09274990856647491,-0.19708190858364105
1772702636944332500,1.22233251953125,0.06294940412044525,-0.015789348632097244,-0.15067020058631897
1772702636954382600,1.232382568359375,0.040519196540117264,-0.05113961547613144,-0.10207976400852203
1772702636964432600,1.2424326171875,0.0006950850365683436,0.008727445267140865,-0.08573780953884125
1772702636974482700,1.252482666015625,-0.016384832561016083,-0.04228220880031586,-0.004042678512632847
1772702636984532700,1.26253271484375,-0.02430400811135769,-0.09535394608974457,0.07101611793041229
1772702636994581800,1.272581787109375,0.004821386653929949,-0.05806862935423851,0.06719181686639786
1772702637004631800,1.2826318359375,0.037165746092796326,-0.03145965561270714,-0.02659539133310318
1772702637014681900,1.292681884765625,0.04934651032090187,-0.06266684085130692,-0.12985946238040924
1772702637024731600,1.302731689453125,0.0639699250459671,-0.11286822706460953,-0.1920224279165268
1772702637034781700,1.31278173828125,0.06813590973615646,-0.1669122874736786,-0.20540668070316315
1772702637044831700,1.322831787109375,0.09013921022415161,-0.15060442686080933,-0.17743150889873505
1772702637054881800,1.3328818359375,0.10155272483825684,-0.08592343330383301,-0.12466443330049515
1772702637064931600,1.342931640625,0.09677421301603317,0.017832793295383453,-0.11410420387983322
1772702637074981600,1.352981689453125,0.11838044226169586,-0.04727883264422417,-0.07383028417825699
1772702637085031700,1.36303173828125,0.1085352674126625,-0.05080565810203552,-0.07586386799812317
1772702637095080700,1.373080810546875,0.1288173645734787,-0.07368727028369904,-0.06373769789934158
1772702637105130800,1.383130859375,0.1281883269548416,-0.015265505760908127,-0.065489262342453
1772702637115180800,1.393180908203125,0.13986362516880035,0.008725048042833805,-0.06784828752279282
1772702637125230800,1.40323095703125,0.1521136313676834,0.018604842945933342,-0.06501175463199615
1772702637135280600,1.41328076171875,0.15572620928287506,0.01955532468855381,-0.08068232983350754
1772702637145330700,1.42333056640625,0.15612275898456573,0.0251570176333189,-0.10189840197563171
1772702637155380700,1.433380615234375,0.14127030968666077,0.0051894355565309525,-0.11240191012620926
1772702637165430800,1.4434306640625,0.12856729328632355,-0.0476657897233963,-0.10347605496644974
1772702637175480600,1.45348046875,0.10875151306390762,-0.06089584156870842,-0.09535288065671921
1772702637185530600,1.463530517578125,0.10668383538722992,-0.03340509533882141,-0.08367838710546494
1772702637195579600,1.47357958984375,0.11749973148107529,-0.04067259654402733,-0.06356725841760635
1772702637205630000,1.4836298828125,0.11602727323770523,0.014663098379969597,-0.06955990195274353
1772702637215679700,1.4936796875,0.1384979635477066,-0.024538632482290268,-0.06255658715963364
1772702637225729800,1.503729736328125,0.14873382449150085,-0.01901496946811676,-0.07387182861566544
1772702637235779800,1.51377978515625,0.16382968425750732,0.0012628709664568305,-0.08652397245168686
1772702637245830000,1.523829833984375,0.1672734171152115,0.049916692078113556,-0.10011035203933716
1772702637255879700,1.533879638671875,0.18510514497756958,0.09416618198156357,-0.11141547560691833
1772702637265929700,1.5439296875,0.19098806381225586,0.1255560666322708,-0.11784487962722778
1772702637275979800,1.553979736328125,0.1727217137813568,0.1447870135307312,-0.13813363015651703
1772702637286028500,1.564028564453125,0.15455575287342072,0.09757050126791,-0.14301547408103943
1772702637296078600,1.57407861328125,0.12835584580898285,0.00621075788512826,-0.14962278306484222
1772702637306128600,1.584128662109375,0.09486179798841476,-0.060388509184122086,-0.1595667600631714
1772702637316178700,1.5941787109375,0.07928337156772614,-0.1426125466823578,-0.14014193415641785
1772702637326228700,1.604228759765625,0.07065339386463165,-0.1215948760509491,-0.128530815243721
1772702637336278800,1.61427880859375,0.07841544598340988,-0.09241089224815369,-0.10108453780412674
1772702637346328800,1.624328857421875,0.07050958275794983,-0.10781008750200272,-0.05266560986638069
1772702637356379000,1.63437890625,0.06019063666462898,-0.0626724362373352,-0.005387042183429003
1772702637366428700,1.6444287109375,0.0521625354886055,-0.001817341079004109,0.03453240916132927
1772702637376478700,1.654478759765625,0.0580313466489315,0.0866057351231575,0.042869169265031815
1772702637386527700,1.66452783203125,0.06435368955135345,0.040881652384996414,0.06611510366201401
1772702637396577800,1.674577880859375,0.05432555451989174,0.04035834223031998,0.07562977820634842
1772702637406627600,1.684627685546875,0.04453391209244728,0.09684611856937408,0.07612166553735733
1772702637416677600,1.694677734375,0.03910958394408226,0.07501698285341263,0.1102045327425003
1772702637426727700,1.704727783203125,0.017777398228645325,0.08651544898748398,0.1347447633743286
1772702637436777700,1.71477783203125,0.003932157531380653,0.13639219105243683,0.14533615112304688
1772702637446827800,1.724827880859375,-0.009069927968084812,0.19245892763137817,0.14351215958595276
1772702637456877800,1.7348779296875,-0.006646184716373682,0.25571832060813904,0.13964098691940308
1772702637466927900,1.744927978515625,-0.026189260184764862,0.35008370876312256,0.116755910217762
1772702637476976600,1.7549765625,-0.036018189042806625,0.30628934502601624,0.12593954801559448
1772702637487026700,1.765026611328125,-0.05645368993282318,0.26131150126457214,0.14295288920402527
1772702637497076700,1.77507666015625,-0.06474970281124115,0.2873827815055847,0.14668744802474976
1772702637507126800,1.785126708984375,-0.07036710530519485,0.32200226187705994,0.13180756568908691
1772702637517176600,1.795176513671875,-0.06887999922037125,0.26798778772354126,0.14096803963184357
1772702637527226600,1.8052265625,-0.08844144642353058,0.15557149052619934,0.17001380026340485
1772702637537276700,1.815276611328125,-0.09778221696615219,0.12363725155591965,0.18735285103321075
1772702637547326700,1.82532666015625,-0.10593654960393906,0.12129873037338257,0.17946963012218475
1772702637557376500,1.83537646484375,-0.10616718232631683,0.1118924468755722,0.1856079399585724
1772702637567426600,1.845426513671875,-0.10734722763299942,0.1131686344742775,0.19284161925315857
1772702637577475800,1.855475830078125,-0.10882901400327682,0.11906594038009644,0.19294415414333344
1772702637587525600,1.865525634765625,-0.10149839520454407,0.11536946892738342,0.19153854250907898
1772702637597575700,1.87557568359375,-0.09120927006006241,0.09952712059020996,0.17636971175670624
1772702637607625700,1.885625732421875,-0.08261951059103012,0.0775536447763443,0.15914784371852875
1772702637617675800,1.89567578125,-0.07637892663478851,0.06114138290286064,0.14695243537425995
1772702637627725600,1.9057255859375,-0.07224543392658234,0.04608041048049927,0.13738049566745758
1772702637637775600,1.915775634765625,-0.06677423417568207,0.02437831088900566,0.12893161177635193
1772702637647825700,1.92582568359375,-0.05686967447400093,0.004357464145869017,0.11871705949306488
1772702637657875700,1.935875732421875,-0.05191512778401375,-0.005002748221158981,0.11158937960863113
1772702637667924700,1.9459248046875,-0.04587321728467941,0.004210724029690027,0.10759223997592926
1772702637677974800,1.955974853515625,-0.03749464452266693,0.011226022616028786,0.1041325256228447
1772702637688024800,1.96602490234375,-0.03250334784388542,0.009856359101831913,0.09853829443454742
1772702637698075000,1.976074951171875,-0.03459100052714348,0.020133230835199356,0.08412978798151016
1772702637708124700,1.986124755859375,-0.03267618641257286,0.0291214007884264,0.07657360285520554
1772702637718174700,1.9961748046875,-0.03272652253508568,0.03284236788749695,0.07405931502580643
1772702637728224800,2.006224853515625,-0.03676999732851982,0.03875112533569336,0.06979373097419739
1772702637738274800,2.01627490234375,-0.03869173675775528,0.04168353229761124,0.06195604428648949
1772702637748324600,2.02632470703125,-0.03659849241375923,0.0347374752163887,0.06202821806073189
1772702637758374700,2.036374755859375,-0.03839319571852684,0.028363730758428574,0.05658098682761192
1772702637768423700,2.046423583984375,-0.04169391840696335,0.021253090351819992,0.05441344156861305
1772702637778473700,2.0564736328125,-0.042750392109155655,0.021162010729312897,0.053633932024240494
1772702637788523800,2.066523681640625,-0.043404463678598404,0.015866581350564957,0.051298875361680984
1772702637798573800,2.07657373046875,-0.034452248364686966,0.003963316325098276,0.049665022641420364
1772702637808623900,2.086623779296875,-0.027822576463222504,0.009690976701676846,0.04559571295976639
1772702637818673700,2.096673583984375,-0.02293088287115097,0.013970943167805672,0.04163426160812378
1772702637828723700,2.1067236328125,-0.022714367136359215,0.006105296779423952,0.03476410731673241
1772702637838773800,2.116773681640625,-0.021991051733493805,-0.001278849900700152,0.03404824808239937
1772702637848823300,2.1268232421875,-0.02448723278939724,-0.002766757970675826,0.03317473083734512
1772702637858872000,2.1368720703125,-0.02737862803041935,-0.015353922732174397,0.03825417906045914
1772702637868922000,2.146922119140625,-0.02774401381611824,-0.028387965634465218,0.042031072080135345
1772702637878972400,2.156972412109375,-0.028726186603307724,-0.027106719091534615,0.04351525381207466
1772702637889022200,2.167022216796875,-0.03183036670088768,-0.016462329775094986,0.05169195681810379
1772702637899072300,2.177072265625,-0.03148282319307327,-0.008341552689671516,0.06373424082994461
1772702637909122300,2.187122314453125,-0.031005851924419403,0.0002665824140422046,0.06685706228017807
1772702637919172400,2.19717236328125,-0.026576749980449677,0.006079197861254215,0.07851531356573105
1772702637929222100,2.20722216796875,-0.024151675403118134,0.010436927899718285,0.08375535160303116
1772702637939272200,2.217272216796875,-0.0255101528018713,0.011234012432396412,0.08927608281373978
1772702637949322200,2.227322265625,-0.02437511458992958,0.01594541035592556,0.0903749018907547
1772702637959371300,2.237371337890625,-0.03176458552479744,0.018269818276166916,0.08839377760887146
1772702637969421000,2.247421142578125,-0.033492714166641235,0.016774985939264297,0.08572661876678467
1772702637979471000,2.25747119140625,-0.040622528642416,0.015104117803275585,0.07891318947076797
1772702637989521200,2.267521240234375,-0.03925153240561485,0.01209820806980133,0.07145927101373672
1772702637999571200,2.2775712890625,-0.03587491065263748,0.014028200879693031,0.05994109809398651
1772702638009621200,2.287621337890625,-0.032038092613220215,0.014051636680960655,0.0511460080742836
1772702638019671300,2.29767138671875,-0.03353479132056236,0.01390143483877182,0.03942836448550224
1772702638029721300,2.307721435546875,-0.03640621155500412,0.016625314950942993,0.035296738147735596
1772702638039771400,2.317771484375,-0.0394107885658741,0.020914869382977486,0.03434332460165024
1772702638049820200,2.327820068359375,-0.03954368084669113,0.027105653658509254,0.03176858276128769
1772702638059870200,2.3378701171875,-0.03391934931278229,0.02750539407134056,0.026699520647525787
1772702638069920300,2.347920166015625,-0.02791685238480568,0.018874088302254677,0.022600917145609856
1772702638079970000,2.357969970703125,-0.022233933210372925,0.015750467777252197,0.01877688430249691
1772702638090020000,2.36802001953125,-0.017179518938064575,0.009092031978070736,0.011986088939011097
1772702638100070100,2.378070068359375,-0.014738199301064014,-0.0003177151083946228,0.010055563412606716
1772702638110120200,2.3881201171875,-0.013050554320216179,-0.01065370999276638,0.010306699201464653
1772702638120170200,2.398170166015625,-0.0040975394658744335,-0.00752023421227932,0.007536745630204678
1772702638130220300,2.40822021484375,-0.007894141599535942,-0.010989001952111721,0.0046964846551418304
1772702638140269300,2.418269287109375,-0.0026434536557644606,-0.007526892237365246,0.00777749577537179
1772702638150319000,2.428319091796875,-0.006851247977465391,-0.004176635295152664,0.00606508320197463
1772702638160369200,2.438369140625,-0.006203567609190941,0.006639526691287756,0.010290720500051975
1772702638170419200,2.448419189453125,-0.01489239651709795,0.01267078798264265,0.017643975093960762
1772702638180469200,2.45846923828125,-0.018156632781028748,0.013068131171166897,0.03268684074282646
1772702638190519300,2.468519287109375,-0.022793196141719818,0.0012463594321161509,0.04211975634098053
1772702638200569000,2.478569091796875,-0.019413111731410027,-0.011406585574150085,0.05319903790950775
1772702638210619100,2.488619140625,-0.020350545644760132,-0.023733291774988174,0.07540047913789749
1772702638220669200,2.498669189453125,-0.024411067366600037,-0.023510118946433067,0.0852951928973198
1772702638230719200,2.50871923828125,-0.03137390315532684,-0.01901949755847454,0.09225163608789444
1772702638240768300,2.518768310546875,-0.03705868497490883,-0.010243049822747707,0.09742588549852371
1772702638250818300,2.528818359375,-0.03584854304790497,0.017702564597129822,0.10567928850650787
1772702638260868400,2.538868408203125,-0.032394956797361374,0.044376254081726074,0.10996804386377335
1772702638270918100,2.548918212890625,-0.027658259496092796,0.05618603900074959,0.1110444962978363
1772702638280968200,2.55896826171875,-0.026930417865514755,0.06047585979104042,0.10484679043292999
1772702638291018200,2.569018310546875,-0.02454289421439171,0.062015701085329056,0.10054364800453186
1772702638301068300,2.579068359375,-0.0279149878770113,0.08355534821748734,0.10370641946792603
1772702638311118000,2.5891181640625,-0.02274206466972828,0.11006498336791992,0.1033405065536499
1772702638321168100,2.599168212890625,-0.020591560751199722,0.08158327639102936,0.11035607010126114
1772702638331217400,2.609217529296875,-0.014867362566292286,0.07436184585094452,0.10003472119569778
1772702638341267200,2.61926708984375,-0.020713001489639282,0.10947669297456741,0.07599170506000519
1772702638351317200,2.629317138671875,-0.01824212074279785,0.030175212770700455,0.08151429891586304
1772702638361367300,2.6393671875,-0.029174929484725,-0.023428093641996384,0.0851745456457138
1772702638371417300,2.649417236328125,-0.03232651576399803,-0.022167086601257324,0.07756563276052475
1772702638381467100,2.659467041015625,-0.02594052068889141,-0.02654372714459896,0.07617785781621933
1772702638391517200,2.66951708984375,-0.024149278178811073,-0.022818762809038162,0.08064398169517517
1772702638401567200,2.679567138671875,-0.022337796166539192,0.00039414784987457097,0.08318276703357697
1772702638411617300,2.6896171875,-0.019758258014917374,0.0075817531906068325,0.07718639820814133
1772702638421666000,2.699666015625,-0.02155296318233013,0.012220979668200016,0.06796679645776749
1772702638431716000,2.709716064453125,-0.024935442954301834,0.023503461852669716,0.06648501753807068
1772702638441766100,2.71976611328125,-0.028973327949643135,0.03182637318968773,0.06660299748182297
1772702638451816400,2.72981640625,-0.02792590670287609,0.04453497752547264,0.06748689711093903
1772702638461866200,2.7398662109375,-0.026755981147289276,0.04736032336950302,0.06931488960981369
1772702638471916300,2.749916259765625,-0.029937924817204475,0.046556584537029266,0.06543173640966415
1772702638481966300,2.75996630859375,-0.0323701910674572,0.04731158912181854,0.053396113216876984
1772702638492016400,2.770016357421875,-0.032654084265232086,0.03612231835722923,0.0525476299226284
1772702638502066200,2.780066162109375,-0.031738221645355225,0.0376586951315403,0.053520750254392624
1772702638512116200,2.7901162109375,-0.02666063979268074,0.03852289170026779,0.052070390433073044
1772702638522165200,2.800165283203125,-0.02718927711248398,0.03321201354265213,0.05140966176986694
1772702638532215000,2.810215087890625,-0.029815420508384705,0.03435051813721657,0.046958718448877335
1772702638542265000,2.82026513671875,-0.025557290762662888,0.0345502533018589,0.04393603280186653
1772702638552315100,2.830315185546875,-0.021989189088344574,0.032470058649778366,0.040706682950258255
1772702638562365200,2.840365234375,-0.022825688123703003,0.024649154394865036,0.03382134810090065
1772702638572415200,2.850415283203125,-0.02105202153325081,0.017941715195775032,0.026097381487488747
1772702638582465300,2.86046533203125,-0.024087226018309593,0.017549965530633926,0.021992916241288185
1772702638592515300,2.870515380859375,-0.02004614658653736,0.015894010663032532,0.020490361377596855
1772702638602565400,2.8805654296875,-0.02046452835202217,0.024956215173006058,0.014111824333667755
1772702638612614100,2.8906142578125,-0.01950659044086933,0.029103290289640427,0.009737315587699413
1772702638622664200,2.900664306640625,-0.02203286439180374,0.023622505366802216,0.004174771253019571
1772702638632714200,2.91071435546875,-0.021344702690839767,0.012707007117569447,0.001151018193922937
1772702638642764300,2.920764404296875,-0.022578546777367592,0.011330951005220413,0.004230431281030178
1772702638652814000,2.93081396484375,-0.025072596967220306,0.01534513384103775,0.012193016707897186
1772702638662864100,2.940864013671875,-0.025550633668899536,0.02454528957605362,0.014401576481759548
1772702638672914200,2.9509140625,-0.02341051772236824,0.029148031026124954,0.022219285368919373
1772702638682964200,2.960964111328125,-0.021344702690839767,0.02779887430369854,0.02431545965373516
1772702638693014300,2.97101416015625,-0.017430389299988747,0.03105725161731243,0.02803296595811844
1772702638703063300,2.981063232421875,-0.01655367575585842,0.03527356684207916,0.033257290720939636
1772702638713113300,2.99111328125,-0.01907702162861824,0.03554334491491318,0.03893035650253296
1772702638723163100,3.0011630859375,-0.021092768758535385,0.039373237639665604,0.040875259786844254
1772702638733213200,3.011213134765625,-0.021828865632414818,0.036799293011426926,0.04158898815512657
1772702638743263200,3.02126318359375,-0.020869063213467598,0.03931624814867973,0.03954048454761505
1772702638753313300,3.031313232421875,-0.02431013248860836,0.03863181546330452,0.04060361906886101
1772702638763363000,3.041363037109375,-0.02172340452671051,0.03716760873794556,0.04031706228852272
1772702638773413000,3.0514130859375,-0.01883653737604618,0.046189334243535995,0.031267110258340836
1772702638783463200,3.061463134765625,-0.013454556465148926,0.04440315067768097,0.03208070620894432
1772702638793512200,3.07151220703125,-0.012109393253922462,0.03605440631508827,0.03008786030113697
1772702638803562200,3.081562255859375,-0.009696302935481071,0.02310425415635109,0.025378594174981117
1772702638813612300,3.0916123046875,-0.010125604458153248,0.02251063473522663,0.015812251716852188
1772702638823662300,3.101662353515625,-0.009051285684108734,0.023505326360464096,0.01335735060274601
1772702638833712000,3.111712158203125,-0.012110991403460503,0.026021746918559074,0.008072040975093842
1772702638843762200,3.12176220703125,-0.011876633390784264,0.03068467602133751,0.004131628200411797
1772702638853812000,3.13181201171875,-0.012290221638977528,0.026508040726184845,-0.00532445777207613
1772702638863862000,3.141862060546875,-0.008651811629533768,0.02688833884894848,-0.007416637148708105
1772702638873911800,3.151911865234375,-0.009722402319312096,0.02810274064540863,-0.005399825517088175
1772702638883961000,3.161961181640625,-0.004084756597876549,0.027283020317554474,-0.00902438722550869
1772702638894011100,3.17201123046875,-0.005398760084062815,0.023739950731396675,-0.009949569590389729
1772702638904061200,3.182061279296875,-0.0021582257468253374,0.015300126746296883,-0.011233479715883732
1772702638914111000,3.192111083984375,-0.0007214503129944205,0.010293384082615376,-0.006027532275766134
1772702638924161000,3.2021611328125,-0.0020152139477431774,0.02051486261188984,-0.0073196981102228165
1772702638934211000,3.212211181640625,-0.0021467742044478655,0.03063487447798252,-0.0043593281880021095
1772702638944261000,3.22226123046875,-0.004455202259123325,0.04267715662717819,-0.0025331987999379635
1772702638954311000,3.232310791015625,-0.004986769054085016,0.04868471622467041,0.005450425669550896
1772702638964361000,3.24236083984375,-0.005801696330308914,0.05002375319600105,0.014201306737959385
1772702638974410000,3.252409912109375,-0.007980961352586746,0.04474776238203049,0.01458719838410616
1772702638984459800,3.262459716796875,-0.0054725296795368195,0.03497183322906494,0.017593374475836754
1772702638994509800,3.272509765625,-0.00381444557569921,0.038244057446718216,0.020432570949196815
1772702639004560000,3.282559814453125,-0.0016695356462150812,0.036737509071826935,0.02852964587509632
1772702639014610200,3.292610107421875,-0.0018540926976129413,0.0419652946293354,0.02678580768406391
1772702639024660000,3.302659912109375,0.001463406952098012,0.04878085479140282,0.025906166061758995
1772702639034710000,3.3127099609375,0.0034258903469890356,0.05722067877650261,0.020611802116036415
1772702639044760000,3.322760009765625,-0.00035446672700345516,0.0622178353369236,0.015512114390730858
1772702639054810000,3.33281005859375,-0.00042823629337362945,0.05642439424991608,0.011439874768257141
1772702639064859000,3.34285888671875,-0.0006500775925815105,0.03517929092049599,0.004869856406003237
1772702639074909000,3.352908935546875,-0.002089249901473522,0.015141402371227741,-0.004132693167775869
1772702639084959000,3.362958984375,-0.001770203118212521,0.003823500359430909,-0.006918626371771097
1772702639095008800,3.3730087890625,0.004759867675602436,-0.0046304380521178246,-0.004131894558668137
1772702639105058800,3.383058837890625,0.006578540429472923,-0.0065071675926446915,-0.00740198977291584
1772702639115108900,3.39310888671875,0.009125853888690472,-0.01002014335244894,-0.012035890482366085
1772702639125159000,3.403158935546875,0.01242497842758894,-0.01441142987459898,-0.01667298562824726
1772702639135209000,3.413208984375,0.013064136728644371,-0.013913685455918312,-0.02099103480577469
1772702639145259000,3.423259033203125,0.013759221881628036,-0.008272843435406685,-0.02671843022108078
1772702639155308000,3.43330810546875,0.01395789347589016,-0.013132845982909203,-0.03476464003324509
1772702639165358000,3.443358154296875,0.012500878423452377,-0.01582636684179306,-0.035226162523031235
1772702639175407900,3.453407958984375,0.012493954040110111,-0.014943263493478298,-0.04042359068989754
1772702639185458000,3.4634580078125,0.015015700832009315,-0.022612635046243668,-0.03949388116598129
1772702639195508000,3.473508056640625,0.016924655064940453,-0.029520342126488686,-0.03362560272216797
1772702639205558000,3.48355810546875,0.019640812650322914,-0.026794595643877983,-0.0340634286403656
1772702639215607800,3.49360791015625,0.02274605818092823,-0.02419508434832096,-0.028494225814938545
1772702639225657900,3.503657958984375,0.021708223968744278,-0.024053137749433517,-0.024600151926279068
1772702639235708000,3.5137080078125,0.019145730882883072,-0.022000906988978386,-0.021579593420028687
1772702639245757000,3.5237568359375,0.02028529718518257,-0.016699351370334625,-0.014002101495862007
1772702639255807000,3.533806884765625,0.015382684767246246,-0.004567587748169899,-0.009375658817589283
1772702639265857000,3.54385693359375,0.01655234582722187,0.004482100252062082,-0.006746852304786444
1772702639275907000,3.553906982421875,0.014151505194604397,0.00917272549122572,-0.0014285196084529161
1772702639285956900,3.563956787109375,0.009061671793460846,0.00751996785402298,0.0007246461464092135
1772702639296007000,3.5740068359375,0.007783621083945036,0.003062102710828185,0.0018940401496365666
1772702639306057000,3.584056884765625,0.004779042676091194,-0.002310824813321233,0.005264270585030317
1772702639316107000,3.59410693359375,-0.003668504301458597,-0.0041705104522407055,0.010300042107701302
1772702639326156800,3.60415673828125,-0.009004147723317146,0.0009590042755007744,0.012775982730090618
1772702639336206000,3.6142060546875,-0.01471742708235979,0.009303753264248371,0.017344901338219643
1772702639346256100,3.624256103515625,-0.016882576048374176,0.014545653015375137,0.021622737869620323
1772702639356306200,3.63430615234375,-0.01920139044523239,0.023123960942029953,0.025043834000825882
1772702639366356000,3.64435595703125,-0.019091935828328133,0.03146924450993538,0.026090189814567566
1772702639376406000,3.654406005859375,-0.020681576803326607,0.037823546677827835,0.02466513216495514
1772702639386456000,3.6644560546875,-0.02232448011636734,0.05014093220233917,0.02905215695500374
1772702639396506000,3.674506103515625,-0.02587234415113926,0.04284573346376419,0.02991262450814247
1772702639406556000,3.684555908203125,-0.030489997938275337,0.03651326894760132,0.031214645132422447
1772702639416606000,3.69460595703125,-0.03182024881243706,0.040336236357688904,0.02997174672782421
1772702639426655000,3.704655029296875,-0.036730051040649414,0.03641979396343231,0.03140346333384514
1772702639436704800,3.714704833984375,-0.03810610622167587,0.0286412313580513,0.03243277594447136
1772702639446754800,3.7247548828125,-0.0384637676179409,0.02316417545080185,0.03375796228647232
1772702639456804900,3.734804931640625,-0.03269349783658981,0.0054488275200128555,0.032637838274240494
1772702639466855200,3.744855224609375,-0.029380260035395622,0.021505825221538544,0.033543843775987625
1772702639476905000,3.754905029296875,-0.032700687646865845,0.025729065760970116,0.037333790212869644
1772702639486955000,3.764955078125,-0.03561951220035553,0.030842866748571396,0.04737284034490585
1772702639497005000,3.775005126953125,-0.03528022766113281,0.03893541544675827,0.04995504394173622
1772702639507055000,3.78505517578125,-0.034983549267053604,0.04616909474134445,0.052627526223659515
1772702639517103900,3.795103759765625,-0.03460165113210678,0.05355963110923767,0.059720054268836975
1772702639527154000,3.80515380859375,-0.03641846030950546,0.0608990378677845,0.06317976862192154
1772702639537204000,3.815203857421875,-0.03690342232584953,0.061470549553632736,0.06461254507303238
1772702639547254000,3.82525390625,-0.03585786744952202,0.05992245674133301,0.061471883207559586
1772702639557303800,3.8353037109375,-0.036311402916908264,0.057502973824739456,0.07275596261024475
1772702639567353900,3.845353759765625,-0.024931715801358223,0.05546831712126732,0.07345690578222275
1772702639577404000,3.85540380859375,-0.01949167624115944,0.045222338289022446,0.07805831730365753
1772702639587454200,3.8654541015625,-0.017115604132413864,0.04109470546245575,0.0680277869105339
1772702639597504000,3.87550390625,-0.017242103815078735,0.043106190860271454,0.05823267996311188
1772702639607553000,3.885552978515625,-0.0170852430164814,0.0408177375793457,0.056409478187561035
1772702639617603000,3.89560302734375,-0.01089552417397499,0.000008788431841821875,0.04154078662395477
1772702639627652900,3.90565283203125,-0.003867708845064044,-0.02370346523821354,0.018638398498296738
1772702639637703000,3.915702880859375,0.0016173376934602857,-0.025440644472837448,0.01589321345090866
1772702639647753000,3.9257529296875,0.002603239845484495,-0.03404664993286133,0.02725665457546711
1772702639657803000,3.935802978515625,-0.002519882982596755,-0.04029469192028046,0.027054786682128906
1772702639667852800,3.945852783203125,0.0017811221769079566,-0.04193226993083954,0.015782957896590233
1772702639677902800,3.95590283203125,0.004869856406003237,-0.028871862217783928,0.012036423198878765
1772702639687953000,3.965952880859375,0.01041455753147602,-0.0004040015337523073,0.012534700334072113
1772702639698002000,3.976001953125,0.013545103371143341,0.0037768951151520014,0.008040616288781166
1772702639708052000,3.986052001953125,0.015619972720742226,-0.0012314456980675459,0.0017664746847003698
1772702639718102000,3.99610205078125,0.014826083555817604,-0.005365736782550812,-0.006730606779456139
1772702639728152000,4.006152099609375,0.014610634185373783,-0.0052384380251169205,-0.010868893004953861
1772702639738201900,4.016201904296875,0.008890430442988873,0.00506799528375268,-0.01389983668923378
1772702639748252000,4.026251953125,0.00014647385978605598,0.020326310768723488,-0.016517192125320435
1772702639758302000,4.036302001953125,-0.004595817066729069,0.040328249335289,-0.01888660527765751
1772702639768352000,4.04635205078125,-0.00965582299977541,0.052327919751405716,-0.020627247169613838
1772702639778401800,4.05640185546875,-0.015615710988640785,0.06351026892662048,-0.023721307516098022
1772702639788451000,4.066451171875,-0.016027702018618584,0.05498149245977402,-0.023517310619354248
1772702639798501000,4.076501220703125,-0.019706061109900475,0.04975530505180359,-0.017376061528921127
1772702639808551200,4.08655126953125,-0.017238374799489975,0.05353992432355881,-0.009425459429621696
1772702639818601000,4.09660107421875,-0.016985641792416573,0.055456068366765976,-0.003364371368661523
1772702639828651000,4.106651123046875,-0.021014204248785973,0.06885389983654022,0.00038748994120396674
1772702639838701000,4.116701171875,-0.02196095883846283,0.08442327380180359,0.0026019082870334387
1772702639848751000,4.126751220703125,-0.024596689268946648,0.09091126173734665,0.002469815546646714
1772702639858801200,4.13680126953125,-0.03578915819525719,0.07569848746061325,0.007774566300213337
1772702639868851000,4.146850830078125,-0.04018576815724373,0.05529468134045601,0.010186324827373028
1772702639878900000,4.15689990234375,-0.04133811965584755,0.05705849081277847,0.011599131859838963
1772702639888950000,4.166949951171875,-0.03936871141195297,0.07702474296092987,0.010493920184671879
1772702639899000000,4.177,-0.03699663281440735,0.09379040449857712,0.012445217929780483
1772702639909050000,4.187050048828125,-0.038657113909721375,0.10063020139932632,0.018306834623217583
1772702639919100200,4.19710009765625,-0.03635747358202934,0.11732769012451172,0.02702442742884159
1772702639929150200,4.207150146484375,-0.030766434967517853,0.13211143016815186,0.02857305482029915
1772702639939200300,4.2172001953125,-0.03471483662724495,0.11347462981939316,0.027891552075743675
1772702639949250000,4.22725,-0.03834712132811546,0.06813724339008331,0.022422218695282936
1772702639959300000,4.237300048828125,-0.03870078921318054,0.033427998423576355,0.015389609150588512
1772702639969349000,4.24734912109375,-0.03808826208114624,0.03539367765188217,-0.00006524744821945205
1772702639979399000,4.25739892578125,-0.03748239576816559,0.05537537485361099,-0.0002287655370309949
1772702639989449000,4.267448974609375,-0.038418494164943695,0.06425062566995621,0.001446096459403634
1772702639999499000,4.2774990234375,-0.039019305258989334,0.05956665799021721,0.003915645647794008
1772702640009549000,4.287549072265625,-0.03295821696519852,0.06023457646369934,0.005246427375823259
1772702640019598800,4.297598876953125,-0.028851620852947235,0.06729275733232498,0.003649862250313163
1772702640029649000,4.30764892578125,-0.025425199419260025,0.08501822501420975,0.00039547940832562745
1772702640039699200,4.31769921875,-0.018683671951293945,0.09295950084924698,-0.00210602767765522
1772702640049749200,4.327749267578125,-0.019880764186382294,0.07827909290790558,-0.0027838023379445076
1772702640059798000,4.337798095703125,-0.024803616106510162,0.05144241824746132,0.0016498282784596086
1772702640069848000,4.34784814453125,-0.02797996997833252,0.019160378724336624,0.0005536712124012411
1772702640079898000,4.357898193359375,-0.027104055508971214,0.012074239552021027,-0.01196957752108574
1772702640089948000,4.367947998046875,-0.02436099946498871,0.0248401015996933,-0.0173259936273098
1772702640099998000,4.377998046875,-0.022836873307824135,0.037693049758672714,-0.01955718919634819
1772702640110048000,4.388048095703125,-0.020989438518881798,0.04019642248749733,-0.018458902835845947
1772702640120098000,4.39809814453125,-0.021279988810420036,0.041061948984861374,-0.02081952802836895
1772702640130147800,4.40814794921875,-0.01624341867864132,0.04236423596739769,-0.024471521377563477
1772702640140197000,4.418197021484375,-0.011905129067599773,0.04649479687213898,-0.03230281174182892
1772702640150247200,4.4282470703125,-0.002433063928037882,0.05368666350841522,-0.03862622007727623
1772702640160297200,4.438297119140625,-0.0003062635369133204,0.049785930663347244,-0.052506349980831146
1772702640170347000,4.448346923828125,0.0025015072897076607,0.03755722939968109,-0.06822779029607773
1772702640180397000,4.45839697265625,0.005906358826905489,0.025614550337195396,-0.07549981772899628
1772702640190447000,4.468447021484375,0.00025353292585350573,0.01176105160266161,-0.07671049237251282
1772702640200497200,4.4784970703125,-0.0030605047941207886,0.0023576964158564806,-0.07037509977817535
1772702640210547000,4.488546875,-0.0012173309223726392,-0.006223807577043772,-0.060014866292476654
1772702640220597000,4.498596923828125,-0.003453587181866169,-0.009223858825862408,-0.05579721927642822
1772702640230646000,4.50864599609375,-0.0014005564153194427,-0.010575412772595882,-0.05441264063119888
1772702640240696000,4.518696044921875,-0.0037713022902607918,-0.011854794807732105,-0.05222512036561966
1772702640250746000,4.52874609375,-0.003991812001913786,-0.01489292923361063,-0.05139075219631195
1772702640260796200,4.538796142578125,-0.006720753386616707,-0.02394474670290947,-0.047519583255052567
1772702640270846200,4.54884619140625,-0.008302937261760235,-0.02033429965376854,-0.04195384308695793
1772702640280896000,4.55889599609375,-0.01158501673489809,-0.01781574822962284,-0.030731281265616417
1772702640290946000,4.568946044921875,-0.012593556195497513,-0.015625031664967537,-0.02256762608885765
1772702640300996000,4.57899609375,-0.015618108212947845,-0.014483601786196232,-0.02189890667796135
1772702640311046100,4.589046142578125,-0.015063904225826263,-0.003862382611259818,-0.022363895550370216
1772702640321095000,4.599094970703125,-0.021043233573436737,0.0029201561119407415,-0.01792547106742859
1772702640331145000,4.60914501953125,-0.023388147354125977,0.008957009762525558,-0.019237875938415527
1772702640341195000,4.619195068359375,-0.024691231548786163,0.00929283443838358,-0.013486247509717941
1772702640351245000,4.6292451171875,-0.030416229739785194,0.0062272693030536175,-0.008881908841431141
1772702640361295000,4.639295166015625,-0.031748343259096146,0.005007009021937847,-0.00836498849093914
1772702640371345200,4.64934521484375,-0.03045031800866127,0.01690681092441082,-0.008565524592995644
1772702640381395200,4.659395263671875,-0.02268986590206623,0.030348317697644234,-0.00506852800026536
1772702640391445200,4.6694453125,-0.01823253370821476,0.03579794615507126,-0.004512726329267025
1772702640401494000,4.679493896484375,-0.017231717705726624,0.039142075926065445,0.0022767363116145134
1772702640411544000,4.6895439453125,-0.01571344956755638,0.03353745490312576,0.0035771578550338745
1772702640421594000,4.699593994140625,-0.014310229569673538,0.023607857525348663,0.00048655952559784055
1772702640431644000,4.709643798828125,-0.013430321589112282,0.030105171725153923,-0.00358834327198565
1772702640441694000,4.71969384765625,-0.011201521381735802,0.037389449775218964,-0.010005762800574303
1772702640451744000,4.729743896484375,-0.01380848977714777,0.042456645518541336,-0.01133680995553732
1772702640461794000,4.7397939453125,-0.010329869575798512,0.04001985490322113,-0.011386078782379627
1772702640471843800,4.74984375,-0.014485731720924377,0.0405769869685173,-0.014209828339517117
1772702640481894100,4.75989404296875,-0.017677530646324158,0.037035781890153885,-0.010248642414808273
1772702640491943200,4.769943115234375,-0.018740665167570114,0.03724271059036255,-0.0075484635308384895
1772702640501993000,4.779992919921875,-0.017138773575425148,0.03543415665626526,-0.017238374799489975
1772702640512043000,4.79004296875,-0.014552044682204723,0.03418033942580223,-0.01697605475783348
1772702640522093000,4.800093017578125,-0.014732873067259789,0.037687722593545914,-0.01576165296137333
1772702640532143000,4.81014306640625,-0.017347831279039383,0.03634096309542656,-0.01324043795466423
1772702640542193000,4.82019287109375,-0.021521536633372307,0.018214955925941467,-0.00881186779588461
1772702640552243000,4.830242919921875,-0.02141794003546238,0.0033039175905287266,-0.00378994457423687
1772702640562293000,4.84029296875,-0.020607540383934975,0.0038839541375637054,0.0004942826926708221
1772702640572343000,4.850343017578125,-0.02255910448729992,0.006392918061465025,0.004502872936427593
1772702640582392000,4.86039208984375,-0.02297908440232277,0.008175105787813663,0.013847905211150646
1772702640592442000,4.870442138671875,-0.0230531208217144,0.006551642436534166,0.0206951592117548
1772702640602492200,4.8804921875,-0.02594078704714775,0.010616958141326904,0.030904386192560196
1772702640612542200,4.890542236328125,-0.028797825798392296,0.02653653547167778,0.03209082409739494
1772702640622592000,4.900592041015625,-0.0257548987865448,0.04610197991132736,0.030112361535429955
1772702640632642000,4.91064208984375,-0.017244501039385796,0.06593534350395203,0.02015799842774868
1772702640642692000,4.920692138671875,-0.014007428660988808,0.06717104464769363,0.009342102333903313
1772702640652742100,4.9307421875,-0.011472631245851517,0.06502773612737656,0.0083700492978096
1772702640662792000,4.9407919921875,-0.013923272490501404,0.06337977200746536,0.007675496395677328
1772702640672841000,4.950841064453125,-0.014537131413817406,0.06136855110526085,0.007625428959727287
1772702640682891000,4.96089111328125,-0.012398079968988895,0.060256682336330414,0.005921538453549147
1772702640692941000,4.970941162109375,-0.013725665397942066,0.052495431154966354,0.0022152173332870007
1772702640702991000,4.9809912109375,-0.014147244393825531,0.04427878186106682,0.0018021611031144857
1772702640713041200,4.991041259765625,-0.015323296189308167,0.04363323003053665,0.003976631909608841
1772702640723091200,5.00109130859375,-0.01404844131320715,0.04605085030198097,0.005437109619379044
1772702640733141000,5.01114111328125,-0.013226322829723358,0.05041923001408577,0.007846471853554249
1772702640743191000,5.02119091796875,-0.01417494099587202,0.0409996323287487,0.013935256749391556
1772702640753240000,5.031239990234375,-0.010294715873897076,0.036665335297584534,0.013362410478293896
1772702640763290000,5.0412900390625,-0.010596984066069126,0.027296070009469986,0.007429686840623617
1772702640773340000,5.05133984375,-0.007226487621665001,0.023478960618376732,0.006646717432886362
1772702640783390000,5.061389892578125,-0.00759933004155755,0.03322932496666908,0.0016311861108988523
1772702640793440000,5.07143994140625,-0.005720203742384911,0.03633377328515053,-0.00019654128118418157
1772702640803490000,5.081489990234375,-0.005411010701209307,0.03804938122630119,-0.003950266633182764
1772702640813540000,5.0915400390625,-0.005361742340028286,0.03236699476838112,-0.004736964590847492
1772702640823590100,5.101590087890625,-0.006450176239013672,0.03423759713768959,-0.008700546808540821
1772702640833640200,5.11164013671875,-0.006264820229262114,0.03387141227722168,-0.007664311211556196
1772702640843689000,5.12168896484375,-0.006631537340581417,0.0349007248878479,-0.0036727653350681067
1772702640853739000,5.131739013671875,-0.006299973931163549,0.02889343351125717,-0.0017092167399823666
1772702640863788800,5.141788818359375,-0.0073015885427594185,0.023745542392134666,0.005283711478114128
1772702640873838800,5.1518388671875,-0.008596151135861874,0.03068920224905014,0.011137072928249836
1772702640883889000,5.161888916015625,-0.0095658078789711,0.031128890812397003,0.016750751063227654
1772702640893939000,5.17193896484375,-0.008069644682109356,0.0248480923473835,0.019657591357827187
1772702640903988700,5.18198876953125,-0.009241435676813126,0.01239248737692833,0.02678820490837097
1772702640914038800,5.192038818359375,-0.015275625512003899,0.006076801102608442,0.02911287732422352
1772702640924088800,5.2020888671875,-0.017773937433958054,-0.006792658474296331,0.030473221093416214
1772702640934137900,5.212137939453125,-0.017242370173335075,-0.011889416724443436,0.033784061670303345
1772702640944188000,5.22218798828125,-0.016955280676484108,0.004201669245958328,0.038910381495952606
1772702640954238000,5.232238037109375,-0.012966930866241455,0.0216594897210598,0.03719983249902725
1772702640964288000,5.2422880859375,-0.013284379616379738,0.03068547509610653,0.03768346458673477
1772702640974337800,5.252337890625,-0.014193583279848099,0.044019121676683426,0.03558169677853584
1772702640984387800,5.262387939453125,-0.015429556369781494,0.06623335182666779,0.028080103918910027
1772702640994438000,5.27243798828125,-0.014679343439638615,0.0661688968539238,0.024478178471326828
1772702641004488000,5.282488037109375,-0.014257765375077724,0.051306065171957016,0.025109613314270973
1772702641014537000,5.292536865234375,-0.011395134031772614,0.03836842626333237,0.030977623537182808
1772702641024587000,5.3025869140625,-0.015121161937713623,0.03555719554424286,0.027895014733076096
1772702641034637000,5.312636962890625,-0.01326653640717268,0.03304104134440422,0.023136744275689125
1772702641044685800,5.322685791015625,-0.012116583995521069,0.03965473547577858,0.023785224184393883
1772702641054736000,5.33273583984375,-0.0038631814531981945,0.04037032648921013,0.02587633766233921
1772702641064786000,5.342785888671875,-0.000437291048001498,0.04604126140475273,0.030498521402478218
1772702641074836000,5.3528359375,0.0021433120127767324,0.04372697323560715,0.029110215604305267
1772702641084885800,5.3628857421875,-0.00039308256236836314,0.04206915572285652,0.02123444899916649
1772702641094935800,5.372935791015625,0.005571332760155201,0.03705761954188347,0.023487748578190804
1772702641104985900,5.38298583984375,0.002182993106544018,0.03779291734099388,0.02201688475906849
1772702641115036000,5.393035888671875,0.005423527676612139,0.030790403485298157,0.018520154058933258
1772702641125085000,5.4030849609375,0.005933522712439299,0.02719247154891491,0.015986423939466476
1772702641135135000,5.413135009765625,0.010971425101161003,0.033125996589660645,0.012887835502624512
1772702641145185000,5.42318505859375,0.004996356554329395,0.03995540738105774,0.012636433355510235
1772702641155234800,5.43323486328125,0.00384427304379642,0.03713724762201309,0.010587663389742374
1772702641165284900,5.443284912109375,0.0013550163712352514,0.017297230660915375,0.006991330534219742
1772702641175335000,5.4533349609375,0.0029635655228048563,0.008786567486822605,0.001253017340786755
1772702641185385000,5.463385009765625,0.004378769546747208,0.01672225445508957,-0.005374525208026171
1772702641195434800,5.473434814453125,0.004767591133713722,0.03026016801595688,-0.006114884279668331
1772702641205484800,5.48348486328125,0.007221161387860775,0.03443999961018562,-0.005548696033656597
1772702641215534000,5.4935341796875,0.009502158500254154,0.0336809977889061,-0.0036999296862632036
1772702641225584000,5.503584228515625,0.007102650590240955,0.036018189042806625,-0.007877097465097904
1772702641235634000,5.513634033203125,0.00549356872215867,0.03621073439717293,-0.011317635886371136
1772702641245684000,5.52368408203125,-0.0009390306076966226,0.03244209662079811,-0.012961071915924549
1772702641255734000,5.533734130859375,-0.0006538060260936618,0.022825421765446663,-0.015283881686627865
1772702641265784000,5.5437841796875,-0.0014197311829775572,0.010318417102098465,-0.011591941118240356
1772702641275833900,5.553833740234375,-0.0023196132387965918,0.003591006388887763,-0.006927148438990116
1772702641285884000,5.5638837890625,-0.003055178327485919,0.008794290944933891,-0.006523413117974997
1772702641295933000,5.573932861328125,-0.00230842805467546,0.020978517830371857,-0.004053597338497639
1772702641305982700,5.583982666015625,-0.0035902075469493866,0.02171248570084572,-0.006056827027350664
1772702641316032800,5.59403271484375,-0.005846703890711069,0.02558312378823757,-0.0062826634384691715
1772702641326083000,5.6040830078125,-0.006815827917307615,0.03218802809715271,-0.004658135119825602
1772702641336133000,5.614133056640625,-0.008702411316335201,0.04320845752954483,-0.005905293393880129
1772702641346183000,5.624182861328125,-0.014012488536536694,0.03885818272829056,-0.00806325301527977
1772702641356233000,5.63423291015625,-0.012751747854053974,0.03062608651816845,-0.007207578979432583
1772702641366283000,5.644282958984375,-0.006539924535900354,0.023809459060430527,-0.011026818305253983
1772702641376333000,5.6543330078125,-0.008971390314400196,0.026193253695964813,-0.005846171174198389
1772702641386381800,5.6643818359375,-0.008773517794907093,0.02610616944730282,-0.003385410411283374
1772702641396432000,5.674431884765625,-0.00983532052487135,0.03230840340256691,-0.0019286612514406443
1772702641406482000,5.68448193359375,-0.017720140516757965,0.03352786600589752,0.002615224104374647
1772702641416532000,5.694531982421875,-0.01420423574745655,0.02329200692474842,0.00041039311327040195
1772702641426581800,5.704581787109375,-0.013378123752772808,0.022230204194784164,-0.0003507383225951344
1772702641436631800,5.7146318359375,-0.009751697070896626,0.03996126353740692,-0.00033209618413820863
1772702641446681900,5.724681884765625,-0.011506720446050167,0.04900349676609039,-0.0006311691831797361
1772702641456732200,5.734732177734375,-0.010734137147665024,0.050987016409635544,0.006265086587518454
1772702641466782000,5.744781982421875,-0.010426275432109833,0.044439371675252914,0.009936253540217876
1772702641476832000,5.75483203125,-0.010403105989098549,0.043234556913375854,0.01997583918273449
1772702641486882000,5.764882080078125,-0.016081498935818672,0.04758775979280472,0.025723205879330635
1772702641496930800,5.774930908203125,-0.020101273432374,0.059119246900081635,0.024107467383146286
1772702641506980900,5.78498095703125,-0.017474863678216934,0.08539585769176483,0.0272689051926136
1772702641517031000,5.795031005859375,-0.022959910333156586,0.09729433059692383,0.028193820267915726
1772702641527081000,5.8050810546875,-0.016877250745892525,0.08433325588703156,0.03503628075122833
1772702641537130800,5.815130859375,-0.017436247318983078,0.06203700602054596,0.03994874656200409
1772702641547180800,5.825180908203125,-0.021435784175992012,0.04725699499249458,0.03446156904101372
1772702641557230800,5.83523095703125,-0.020952686667442322,0.04609505832195282,0.022819828242063522
1772702641567281000,5.845281005859375,-0.018864234909415245,0.04976888746023178,0.011479289270937443
1772702641577330000,5.855329833984375,-0.0151003897190094,0.053406499326229095,0.002612028270959854
1772702641587380000,5.8653798828125,-0.016658339649438858,0.04797098785638809,0.000245543458731845
1772702641597430000,5.875429931640625,-0.013673467561602592,0.04133039712905884,0.0041638524271547794
1772702641607479800,5.885479736328125,-0.004817125853151083,0.04138712212443352,0.0059835901483893394
1772702641617529900,5.89552978515625,-0.005965214688330889,0.05405311658978462,0.003966245800256729
1772702641627580000,5.905579833984375,-0.004068777430802584,0.054599862545728683,-0.0010540791554376483
1772702641637630000,5.9156298828125,-0.0014245248166844249,0.046545930206775665,-0.0029798108153045177
1772702641647679700,5.9256796875,-0.00044900894863530993,0.041008420288562775,-0.009041964076459408
1772702641657729800,5.935729736328125,-0.0017949705943465233,0.04521222040057182,-0.010129866190254688
1772702641667779000,5.945779052734375,-0.001094825565814972,0.04891587793827057,-0.011264372617006302
1772702641677829000,5.9558291015625,0.0007323693134821951,0.04259699583053589,-0.00977353472262621
1772702641687879000,5.96587890625,0.0021824603900313377,0.03863527625799179,-0.01161697506904602
1772702641697929000,5.975928955078125,0.007136472500860691,0.027817782014608383,-0.01107688620686531
1772702641707979000,5.98597900390625,0.00806245394051075,0.020229637622833252,-0.012455604039132595
1772702641718029000,5.996029052734375,0.008417187258601189,0.011004980653524399,-0.01002360600978136
1772702641728078800,6.006078857421875,0.003466104157269001,0.005001416429877281,-0.007249390706419945
1772702641738129000,6.01612890625,0.0016192019684240222,0.0005033374181948602,-0.003433347214013338
1772702641748179000,6.026178955078125,0.003171025775372982,0.020123910158872604,-0.0009123989730142057
1772702641758227700,6.036227783203125,0.0046517434529960155,0.02912619337439537,-0.00035127095179632306
1772702641768277800,6.04627783203125,0.0024687503464519978,0.014817561954259872,-0.00045353634050115943
1772702641778328000,6.056328125,0.002704173792153597,-0.004269579891115427,0.006169212516397238
1772702641788378000,6.066378173828125,0.0023121563717722893,-0.01203988492488861,0.0032439965289086103
1772702641798428000,6.076427978515625,-0.0015307849971577525,-0.012261193245649338,0.002802444389089942
1772702641808478000,6.08647802734375,0.0028453213162720203,-0.01613076590001583,0.00896499864757061
1772702641818528000,6.096528076171875,0.0022831279784440994,-0.027633225545287132,0.011425226926803589
1772702641828578000,6.106578125,-0.0010572749888524413,-0.04523325711488724,0.02165709249675274
1772702641838626800,6.116626708984375,0.00042024682625196874,-0.04917686805129051,0.02347629703581333
1772702641848676900,6.1266767578125,0.00034674355993047357,-0.02694612927734852,0.017843179404735565
1772702641858727700,6.136727783203125,0.00023755396250635386,0.004800081718713045,0.01895531453192234
1772702641868777700,6.14677783203125,-0.0003374225052539259,0.005910885985940695,0.02412770688533783
1772702641878827500,6.15682763671875,-0.00021172130072955042,-0.0022338596172630787,0.02845241315662861
1772702641888877600,6.166877685546875,0.0017861821688711643,0.0010631339391693473,0.02857545204460621
1772702641898927600,6.176927734375,0.004673581570386887,0.004246676806360483,0.02634958177804947
1772702641908977700,6.186977783203125,0.00395852280780673,0.008067513816058636,0.02244938164949417
1772702641919027500,6.19702734375,0.004196343012154102,0.013919278047978878,0.025981798768043518
1772702641929076700,6.20707666015625,0.00316037330776453,0.023381488397717476,0.02359667234122753
1772702641939126800,6.217126708984375,-0.0006149238906800747,0.02839701995253563,0.026979153975844383
1772702641949176800,6.2271767578125,-0.00009747169679030776,0.0366903692483902,0.027965322136878967
1772702641959226600,6.2372265625,0.0022128205746412277,0.051349472254514694,0.024597754701972008
1772702641969276700,6.247276611328125,-0.0013899037148803473,0.039693884551525116,0.02791472151875496
1772702641979326700,6.25732666015625,-0.0027324033435434103,0.024273913353681564,0.027837757021188736
1772702641989376800,6.267376708984375,-0.002700711600482464,0.046002645045518875,0.02257028967142105
1772702641999426600,6.277426513671875,-0.0010242518037557602,0.06864351034164429,0.040280044078826904
1772702642009475600,6.2874755859375,-0.0005046690348535776,0.1600397378206253,0.4568394422531128
1772702642019526000,6.29752587890625,-0.025590315461158752,0.21714243292808533,0.48886021971702576
1772702642029575700,6.30757568359375,-0.03280934691429138,0.19446402788162231,0.3033793270587921
1772702642039625700,6.317625732421875,-0.02720791846513748,0.16042909026145935,0.03991572558879852
1772702642049675800,6.32767578125,-0.011115235276520252,0.013835920952260494,-0.1619521528482437
1772702642059725800,6.337725830078125,-0.02003602683544159,-0.16653971374034882,-0.21740928292274475
1772702642069775600,6.347775634765625,-0.010145312175154686,-0.17865124344825745,-0.1771196573972702
1772702642079825700,6.35782568359375,-0.01369210984557867,-0.044564273208379745,-0.11236302554607391
