time,seconds_elapsed,z,y,x
1772702910024149200,0.055149169921875,-0.396270751953125,0.3937530517578125,0.83251953125
1772702910034200000,0.065199951171875,-0.39898681640625,0.3943328857421875,0.8289642333984375
1772702910044250400,0.07525048828125,-0.3956298828125,0.3943328857421875,0.82769775390625
1772702910054300200,0.085300048828125,-0.3933258056640625,0.395538330078125,0.8297271728515625
1772702910064350200,0.09535009765625,-0.3921356201171875,0.39508056640625,0.8318328857421875
1772702910074400300,0.105400146484375,-0.390289306640625,0.3947296142578125,0.8312530517578125
1772702910084451000,0.115451171875,-0.392669677734375,0.3948516845703125,0.832763671875
1772702910094501400,0.12550146484375,-0.394195556640625,0.3937835693359375,0.8331451416015625
1772702910104551200,0.13555126953125,-0.3927154541015625,0.393585205078125,0.829437255859375
1772702910114601500,0.1456015625,-0.3900146484375,0.3965301513671875,0.8287811279296875
1772702910124651500,0.155651611328125,-0.391693115234375,0.3958892822265625,0.829620361328125
1772702910134701600,0.16570166015625,-0.39569091796875,0.3937225341796875,0.83026123046875
1772702910144752400,0.17575244140625,-0.3948822021484375,0.3939056396484375,0.8313140869140625
1772702910154802400,0.185802490234375,-0.393402099609375,0.39044189453125,0.83477783203125
1772702910164852500,0.1958525390625,-0.38983154296875,0.39044189453125,0.8351898193359375
1772702910174902500,0.205902587890625,-0.389373779296875,0.3926849365234375,0.8329315185546875
1772702910184952600,0.21595263671875,-0.391510009765625,0.394134521484375,0.8299713134765625
1772702910195002400,0.22600244140625,-0.3916473388671875,0.3974456787109375,0.8303375244140625
1772702910205053400,0.236053466796875,-0.3932342529296875,0.3950347900390625,0.830047607421875
1772702910215103500,0.246103515625,-0.393402099609375,0.39410400390625,0.8318939208984375
1772702910225153500,0.256153564453125,-0.3919525146484375,0.394073486328125,0.83221435546875
1772702910235203600,0.26620361328125,-0.3922119140625,0.391815185546875,0.8306427001953125
1772702910245253400,0.27625341796875,-0.3934783935546875,0.3921051025390625,0.8300933837890625
1772702910255304400,0.286304443359375,-0.3935089111328125,0.3898468017578125,0.83074951171875
1772702910265354500,0.2963544921875,-0.393707275390625,0.3936309814453125,0.8316192626953125
1772702910275404500,0.306404541015625,-0.392333984375,0.3936004638671875,0.8296966552734375
1772702910285454600,0.31645458984375,-0.39044189453125,0.3930816650390625,0.8314971923828125
1772702910295504400,0.32650439453125,-0.3924560546875,0.391876220703125,0.8341217041015625
1772702910305554400,0.336554443359375,-0.395111083984375,0.3932952880859375,0.8350372314453125
1772702910315605500,0.34660546875,-0.3920745849609375,0.392913818359375,0.8349609375
1772702910325655600,0.356655517578125,-0.3923187255859375,0.3928680419921875,0.8357086181640625
1772702910335705300,0.366705322265625,-0.392181396484375,0.394256591796875,0.836578369140625
1772702910345755400,0.37675537109375,-0.39227294921875,0.39666748046875,0.8326873779296875
1772702910355805400,0.386805419921875,-0.391845703125,0.39654541015625,0.83148193359375
1772702910365856500,0.3968564453125,-0.3914642333984375,0.3927764892578125,0.833587646484375
1772702910375906600,0.406906494140625,-0.3912200927734375,0.3931884765625,0.8345794677734375
1772702910385956400,0.416956298828125,-0.392730712890625,0.394012451171875,0.8341522216796875
1772702910396006400,0.42700634765625,-0.392608642578125,0.3931732177734375,0.8316497802734375
1772702910406056400,0.437056396484375,-0.3933258056640625,0.393829345703125,0.8309326171875
1772702910416106500,0.4471064453125,-0.3919677734375,0.3936920166015625,0.8287811279296875
1772702910426157600,0.457157470703125,-0.3921966552734375,0.3932647705078125,0.8286895751953125
1772702910436207400,0.467207275390625,-0.390899658203125,0.3940887451171875,0.82830810546875
1772702910446257400,0.47725732421875,-0.3890228271484375,0.3931884765625,0.83123779296875
1772702910456307500,0.487307373046875,-0.3907623291015625,0.3929595947265625,0.8305816650390625
1772702910466357500,0.497357421875,-0.3906707763671875,0.3952789306640625,0.8308868408203125
1772702910476407300,0.5074072265625,-0.3918304443359375,0.394378662109375,0.8330230712890625
1772702910486458400,0.517458251953125,-0.393463134765625,0.3954315185546875,0.8318328857421875
1772702910496508400,0.52750830078125,-0.392791748046875,0.39593505859375,0.82965087890625
1772702910506558500,0.537558349609375,-0.3936614990234375,0.3920745849609375,0.8310546875
1772702910516608500,0.5476083984375,-0.3930206298828125,0.3940582275390625,0.829315185546875
1772702910526658300,0.557658203125,-0.3915557861328125,0.3957366943359375,0.83087158203125
1772702910536708400,0.567708251953125,-0.3907928466796875,0.39599609375,0.83026123046875
1772702910546759400,0.577759521484375,-0.39263916015625,0.3942413330078125,0.8330841064453125
1772702910556809500,0.5878095703125,-0.39288330078125,0.3948974609375,0.831207275390625
1772702910566859500,0.597859619140625,-0.3915863037109375,0.3968353271484375,0.8307342529296875
1772702910576909300,0.607909423828125,-0.39300537109375,0.3973236083984375,0.8317413330078125
1772702910586959400,0.61795947265625,-0.3927154541015625,0.3975677490234375,0.8312835693359375
1772702910597010400,0.628010498046875,-0.3932037353515625,0.397186279296875,0.831634521484375
1772702910607060500,0.638060546875,-0.3935089111328125,0.396148681640625,0.829681396484375
1772702910617110500,0.648110595703125,-0.394500732421875,0.3976593017578125,0.83209228515625
1772702910627160300,0.658160400390625,-0.39410400390625,0.396270751953125,0.832061767578125
1772702910637210400,0.66821044921875,-0.3935699462890625,0.39483642578125,0.8309173583984375
1772702910647260400,0.678260498046875,-0.3925933837890625,0.39508056640625,0.8300323486328125
1772702910657311500,0.6883115234375,-0.3917236328125,0.3946533203125,0.82977294921875
1772702910667361500,0.698361572265625,-0.39208984375,0.39459228515625,0.83099365234375
1772702910677411300,0.708411376953125,-0.3930206298828125,0.395050048828125,0.8316802978515625
1772702910687461400,0.71846142578125,-0.3948974609375,0.3955841064453125,0.8300933837890625
1772702910697511400,0.728511474609375,-0.3928680419921875,0.3951568603515625,0.8321533203125
1772702910707562500,0.7385625,-0.3912811279296875,0.3949127197265625,0.8293304443359375
1772702910717612500,0.748612548828125,-0.39227294921875,0.3939208984375,0.8303680419921875
1772702910727662300,0.758662353515625,-0.3944854736328125,0.39471435546875,0.831573486328125
1772702910737712400,0.76871240234375,-0.394195556640625,0.39501953125,0.831878662109375
1772702910747762400,0.778762451171875,-0.3923797607421875,0.3954315185546875,0.833221435546875
1772702910757812500,0.7888125,-0.392059326171875,0.3927001953125,0.8311309814453125
1772702910767863600,0.798863525390625,-0.394500732421875,0.3932342529296875,0.83038330078125
1772702910777913300,0.808913330078125,-0.3941497802734375,0.39373779296875,0.8310089111328125
1772702910787963400,0.81896337890625,-0.3929595947265625,0.39337158203125,0.830841064453125
1772702910798013400,0.829013427734375,-0.393829345703125,0.392181396484375,0.8332977294921875
1772702910808063500,0.8390634765625,-0.3936767578125,0.389923095703125,0.8323974609375
1772702910818114300,0.8491142578125,-0.3925933837890625,0.391998291015625,0.8330230712890625
1772702910828164400,0.859164306640625,-0.3944854736328125,0.3936004638671875,0.8317718505859375
1772702910838214400,0.86921435546875,-0.3957061767578125,0.3951568603515625,0.8294525146484375
1772702910848264400,0.879264404296875,-0.396697998046875,0.3916473388671875,0.8297882080078125
1772702910858314200,0.889314208984375,-0.3950653076171875,0.3927764892578125,0.83056640625
1772702910868364300,0.8993642578125,-0.396270751953125,0.3944549560546875,0.83062744140625
1772702910878415400,0.909415283203125,-0.3925628662109375,0.393646240234375,0.833770751953125
1772702910888465400,0.91946533203125,-0.390228271484375,0.391693115234375,0.834197998046875
1772702910898515500,0.929515380859375,-0.389190673828125,0.39215087890625,0.832427978515625
1772702910908565200,0.939565185546875,-0.3935394287109375,0.3961181640625,0.8314208984375
1772702910918615300,0.949615234375,-0.39801025390625,0.393951416015625,0.829071044921875
1772702910928665300,0.959665283203125,-0.3983306884765625,0.392578125,0.8278961181640625
1772702910938716400,0.96971630859375,-0.3954010009765625,0.393524169921875,0.8309173583984375
1772702910948766500,0.979766357421875,-0.3926544189453125,0.3915557861328125,0.8309326171875
1772702910958816300,0.989816162109375,-0.3939971923828125,0.3934173583984375,0.8288116455078125
1772702910968866300,0.9998662109375,-0.395294189453125,0.392578125,0.826873779296875
1772702910978916400,1.009916259765625,-0.3939666748046875,0.39385986328125,0.827117919921875
1772702910988967400,1.019967529296875,-0.39459228515625,0.3934173583984375,0.8279266357421875
1772702910999017500,1.030017578125,-0.393798828125,0.39227294921875,0.830474853515625
1772702911009067300,1.0400673828125,-0.395538330078125,0.3936614990234375,0.829986572265625
1772702911019117300,1.050117431640625,-0.3956298828125,0.3925018310546875,0.8333740234375
1772702911029167400,1.06016748046875,-0.3961334228515625,0.390869140625,0.8340301513671875
1772702911039217400,1.070217529296875,-0.3979949951171875,0.393768310546875,0.8344573974609375
1772702911049268500,1.0802685546875,-0.396331787109375,0.3925933837890625,0.835723876953125
1772702911059318300,1.090318359375,-0.3966522216796875,0.3939666748046875,0.8332977294921875
1772702911069368300,1.100368408203125,-0.39520263671875,0.395477294921875,0.8299713134765625
1772702911079418400,1.11041845703125,-0.3943328857421875,0.3947906494140625,0.8282318115234375
1772702911089468400,1.120468505859375,-0.394927978515625,0.3953857421875,0.829681396484375
1772702911099518200,1.130518310546875,-0.3948211669921875,0.394134521484375,0.830596923828125
1772702911109569800,1.14056982421875,-0.3933868408203125,0.394073486328125,0.82769775390625
1772702911119619800,1.150619873046875,-0.3919677734375,0.3942718505859375,0.82586669921875
1772702911129669600,1.160669677734375,-0.3925628662109375,0.397186279296875,0.8266754150390625
1772702911139719700,1.1707197265625,-0.3960418701171875,0.396331787109375,0.827880859375
1772702911149769700,1.180769775390625,-0.398162841796875,0.3973541259765625,0.8293914794921875
1772702911159820800,1.19082080078125,-0.39764404296875,0.39605712890625,0.8329925537109375
1772702911169870800,1.200870849609375,-0.39483642578125,0.395263671875,0.833892822265625
1772702911179920600,1.210920654296875,-0.3956451416015625,0.3945770263671875,0.8319549560546875
1772702911189970700,1.220970703125,-0.395782470703125,0.395416259765625,0.8318634033203125
1772702911200020700,1.231020751953125,-0.3964996337890625,0.3945465087890625,0.829010009765625
1772702911210070800,1.24107080078125,-0.3967132568359375,0.3934478759765625,0.8258056640625
1772702911220121900,1.251121826171875,-0.3946380615234375,0.394317626953125,0.8256378173828125
1772702911230171600,1.261171630859375,-0.3934173583984375,0.3966522216796875,0.8273162841796875
1772702911240221700,1.2712216796875,-0.3950042724609375,0.3951568603515625,0.829681396484375
1772702911250271700,1.281271728515625,-0.398956298828125,0.395294189453125,0.82855224609375
1772702911260321800,1.29132177734375,-0.397125244140625,0.39471435546875,0.83123779296875
1772702911270372900,1.301372802734375,-0.3937835693359375,0.3966827392578125,0.8292236328125
1772702911280422700,1.311422607421875,-0.39654541015625,0.39508056640625,0.8289031982421875
1772702911290472700,1.32147265625,-0.39910888671875,0.3941192626953125,0.8306732177734375
1772702911300522800,1.331522705078125,-0.4011077880859375,0.39617919921875,0.830657958984375
1772702911310572800,1.34157275390625,-0.401123046875,0.394866943359375,0.8308258056640625
1772702911320622600,1.35162255859375,-0.399139404296875,0.394317626953125,0.8291015625
1772702911330673700,1.361673583984375,-0.39794921875,0.393829345703125,0.8270721435546875
1772702911340723700,1.3717236328125,-0.39923095703125,0.3937835693359375,0.826873779296875
1772702911350773800,1.381773681640625,-0.39605712890625,0.3944549560546875,0.82647705078125
1772702911360823800,1.39182373046875,-0.395294189453125,0.39471435546875,0.826171875
1772702911370873600,1.40187353515625,-0.394500732421875,0.3949432373046875,0.8269500732421875
1772702911380923600,1.411923583984375,-0.39520263671875,0.3960418701171875,0.8268585205078125
1772702911390974700,1.421974609375,-0.3975067138671875,0.3964691162109375,0.8256683349609375
1772702911401024800,1.432024658203125,-0.3961639404296875,0.395416259765625,0.8281707763671875
1772702911411074800,1.44207470703125,-0.3974609375,0.3971710205078125,0.82977294921875
1772702911421124600,1.45212451171875,-0.3980712890625,0.3964996337890625,0.828765869140625
1772702911431174700,1.462174560546875,-0.399505615234375,0.393707275390625,0.830169677734375
1772702911441225700,1.472225830078125,-0.3994140625,0.3949127197265625,0.8291168212890625
1772702911451275800,1.48227587890625,-0.3965911865234375,0.3945159912109375,0.82977294921875
1772702911461325800,1.492325927734375,-0.395355224609375,0.39361572265625,0.8309326171875
1772702911471375600,1.502375732421875,-0.3935089111328125,0.3956298828125,0.830718994140625
1772702911481425700,1.51242578125,-0.397308349609375,0.3955230712890625,0.828765869140625
1772702911491475700,1.522475830078125,-0.3967132568359375,0.3951263427734375,0.8271942138671875
1772702911501526800,1.53252685546875,-0.3971405029296875,0.395538330078125,0.829437255859375
1772702911511576600,1.54257666015625,-0.39788818359375,0.3939056396484375,0.8277435302734375
1772702911521626600,1.552626708984375,-0.397613525390625,0.393798828125,0.8263092041015625
1772702911531676700,1.5626767578125,-0.4003143310546875,0.3951263427734375,0.826446533203125
1772702911541726700,1.572726806640625,-0.399932861328125,0.39508056640625,0.8255157470703125
1772702911551776800,1.58277685546875,-0.4004974365234375,0.396209716796875,0.825927734375
1772702911561827600,1.59282763671875,-0.3988037109375,0.3968048095703125,0.8272247314453125
1772702911571877600,1.602877685546875,-0.3979949951171875,0.39752197265625,0.83123779296875
1772702911581927700,1.612927734375,-0.398651123046875,0.39654541015625,0.83074951171875
1772702911591977700,1.622977783203125,-0.397216796875,0.3960113525390625,0.8310089111328125
1772702911602027800,1.63302783203125,-0.3963623046875,0.39727783203125,0.828094482421875
1772702911612077800,1.643077880859375,-0.3968353271484375,0.39556884765625,0.828125
1772702911622128600,1.653128662109375,-0.39825439453125,0.3951873779296875,0.828369140625
1772702911632178700,1.6631787109375,-0.400238037109375,0.3917388916015625,0.82891845703125
1772702911642228700,1.673228759765625,-0.3984832763671875,0.3917999267578125,0.8296661376953125
1772702911652278800,1.68327880859375,-0.3966064453125,0.390625,0.8284149169921875
1772702911662328800,1.693328857421875,-0.3970184326171875,0.391998291015625,0.827789306640625
1772702911672379600,1.703379638671875,-0.3985748291015625,0.39453125,0.826263427734375
1772702911682429700,1.7134296875,-0.3979034423828125,0.3951416015625,0.8266143798828125
1772702911692479700,1.723479736328125,-0.3951568603515625,0.3932037353515625,0.8272705078125
1772702911702529800,1.73352978515625,-0.396575927734375,0.3948516845703125,0.828033447265625
1772702911712579800,1.743579833984375,-0.3962860107421875,0.3937835693359375,0.82965087890625
1772702911722630700,1.753630615234375,-0.396026611328125,0.3951416015625,0.8312835693359375
1772702911732680700,1.7636806640625,-0.396392822265625,0.3970184326171875,0.83154296875
1772702911742730800,1.773730712890625,-0.3971710205078125,0.3963623046875,0.8317718505859375
1772702911752780800,1.78378076171875,-0.3960418701171875,0.3946075439453125,0.83160400390625
1772702911762830800,1.793830810546875,-0.3969879150390625,0.39495849609375,0.8303070068359375
1772702911772881000,1.803880859375,-0.3957366943359375,0.394012451171875,0.8289337158203125
1772702911782931000,1.813930908203125,-0.395294189453125,0.3932342529296875,0.8283843994140625
1772702911792981800,1.823981689453125,-0.39556884765625,0.3953399658203125,0.8316802978515625
1772702911803031800,1.83403173828125,-0.396697998046875,0.394378662109375,0.830810546875
1772702911813081900,1.844081787109375,-0.3953704833984375,0.3957366943359375,0.8251953125
1772702911823132000,1.8541318359375,-0.3958587646484375,0.396209716796875,0.8224334716796875
1772702911833182000,1.864181884765625,-0.3970489501953125,0.39593505859375,0.8263702392578125
1772702911843232800,1.874232666015625,-0.39984130859375,0.3968963623046875,0.8292236328125
1772702911853282800,1.88428271484375,-0.397796630859375,0.3963470458984375,0.8285675048828125
1772702911863332900,1.894332763671875,-0.3939971923828125,0.395904541015625,0.830291748046875
1772702911873383000,1.9043828125,-0.3957977294921875,0.3956298828125,0.8296356201171875
1772702911883433000,1.914432861328125,-0.3976593017578125,0.3968353271484375,0.830078125
1772702911893482800,1.924482666015625,-0.398223876953125,0.3977813720703125,0.8289794921875
1772702911903533800,1.934533935546875,-0.3965911865234375,0.397125244140625,0.8286895751953125
1772702911913583900,1.944583984375,-0.3972320556640625,0.3971405029296875,0.8278656005859375
1772702911923634000,1.954634033203125,-0.395477294921875,0.394683837890625,0.82708740234375
1772702911933684000,1.96468408203125,-0.39599609375,0.395294189453125,0.8265380859375
1772702911943733800,1.974733642578125,-0.3944549560546875,0.3966522216796875,0.828765869140625
1772702911953783800,1.98478369140625,-0.3936614990234375,0.3971405029296875,0.8281097412109375
1772702911963835000,1.9948349609375,-0.3947906494140625,0.398193359375,0.8293914794921875
1772702911973885000,2.004885009765625,-0.39434814453125,0.3964080810546875,0.828033447265625
1772702911983935000,2.01493505859375,-0.3942718505859375,0.3967742919921875,0.8279876708984375
1772702911993984800,2.02498486328125,-0.39813232421875,0.3958892822265625,0.8285675048828125
1772702912004034800,2.035034912109375,-0.3977813720703125,0.3969879150390625,0.8299713134765625
1772702912014086000,2.0450859375,-0.3978729248046875,0.3971710205078125,0.8289337158203125
1772702912024136000,2.055135986328125,-0.39642333984375,0.3974151611328125,0.82574462890625
1772702912034186000,2.06518603515625,-0.398284912109375,0.3972930908203125,0.8264312744140625
1772702912044235800,2.07523583984375,-0.3966522216796875,0.395965576171875,0.8280792236328125
1772702912054285800,2.085285888671875,-0.39581298828125,0.3958282470703125,0.8292694091796875
1772702912064336000,2.0953359375,-0.39569091796875,0.3957977294921875,0.8291473388671875
1772702912074387000,2.105386962890625,-0.3979034423828125,0.3951873779296875,0.8285675048828125
1772702912084436700,2.115436767578125,-0.39794921875,0.3964385986328125,0.828857421875
1772702912094486800,2.12548681640625,-0.39678955078125,0.396392822265625,0.8277435302734375
1772702912104536800,2.135536865234375,-0.3974456787109375,0.3965606689453125,0.8271942138671875
1772702912114586400,2.14558642578125,-0.3962554931640625,0.3965911865234375,0.82965087890625
1772702912124637400,2.155637451171875,-0.3954925537109375,0.397125244140625,0.832244873046875
1772702912134687200,2.165687255859375,-0.39642333984375,0.3966522216796875,0.8296356201171875
1772702912144737300,2.1757373046875,-0.39752197265625,0.395294189453125,0.8277740478515625
1772702912154787300,2.185787353515625,-0.399627685546875,0.396484375,0.82611083984375
1772702912164837400,2.19583740234375,-0.3990020751953125,0.39874267578125,0.8270263671875
1772702912174887200,2.20588720703125,-0.3986358642578125,0.394561767578125,0.8266143798828125
1772702912184938200,2.215938232421875,-0.3978271484375,0.393524169921875,0.8297119140625
1772702912194988300,2.22598828125,-0.394989013671875,0.3938446044921875,0.8305816650390625
1772702912205038300,2.236038330078125,-0.3957672119140625,0.3940277099609375,0.82928466796875
1772702912215088400,2.24608837890625,-0.3975067138671875,0.393341064453125,0.8291015625
1772702912225138200,2.25613818359375,-0.39849853515625,0.393951416015625,0.8281402587890625
1772702912235188200,2.266188232421875,-0.397064208984375,0.3960723876953125,0.827911376953125
1772702912245239300,2.2762392578125,-0.397308349609375,0.395782470703125,0.8274688720703125
1772702912255289300,2.286289306640625,-0.39666748046875,0.3959503173828125,0.8296966552734375
1772702912265339400,2.29633935546875,-0.39764404296875,0.3971099853515625,0.830596923828125
1772702912275389200,2.30638916015625,-0.3983917236328125,0.3950653076171875,0.830108642578125
1772702912285439200,2.316439208984375,-0.3959808349609375,0.39569091796875,0.8289947509765625
1772702912295489300,2.3264892578125,-0.3953094482421875,0.3955230712890625,0.830291748046875
1772702912305540400,2.336540283203125,-0.395416259765625,0.3963165283203125,0.829376220703125
1772702912315590400,2.34659033203125,-0.3951416015625,0.3950347900390625,0.829864501953125
1772702912325640200,2.35664013671875,-0.397705078125,0.3954925537109375,0.8294219970703125
1772702912335690200,2.366690185546875,-0.3968505859375,0.394195556640625,0.82952880859375
1772702912345740300,2.376740234375,-0.3959197998046875,0.3953857421875,0.8282012939453125
1772702912355790300,2.386790283203125,-0.399322509765625,0.395294189453125,0.827117919921875
1772702912365841200,2.396841064453125,-0.3980865478515625,0.3939056396484375,0.8264007568359375
1772702912375891200,2.40689111328125,-0.39739990234375,0.393798828125,0.826995849609375
1772702912385941200,2.416941162109375,-0.3950958251953125,0.3932647705078125,0.8290557861328125
1772702912395991300,2.4269912109375,-0.3950347900390625,0.3914947509765625,0.8297882080078125
1772702912406041300,2.437041259765625,-0.3929290771484375,0.3934783935546875,0.8313140869140625
1772702912416092200,2.447092041015625,-0.39501953125,0.392852783203125,0.8343048095703125
1772702912426142200,2.45714208984375,-0.3958587646484375,0.3950042724609375,0.8348236083984375
1772702912436192300,2.467192138671875,-0.3987884521484375,0.3944244384765625,0.8330230712890625
1772702912446242300,2.4772421875,-0.3973388671875,0.3961334228515625,0.83209228515625
1772702912456292000,2.4872919921875,-0.3967742919921875,0.3939208984375,0.8300628662109375
1772702912466342100,2.497342041015625,-0.3963165283203125,0.392242431640625,0.83135986328125
1772702912476393200,2.507393310546875,-0.3944244384765625,0.3929901123046875,0.8299407958984375
1772702912486443300,2.517443359375,-0.3917236328125,0.3933563232421875,0.8306884765625
1772702912496493300,2.527493408203125,-0.3919525146484375,0.3935546875,0.830291748046875
1772702912506543000,2.537543212890625,-0.391815185546875,0.3954620361328125,0.831787109375
1772702912516593200,2.54759326171875,-0.3938140869140625,0.3964691162109375,0.830047607421875
1772702912526644200,2.557644287109375,-0.39447021484375,0.39642333984375,0.828948974609375
1772702912536694300,2.5676943359375,-0.3955078125,0.3980712890625,0.8286590576171875
1772702912546744300,2.577744384765625,-0.396331787109375,0.3965606689453125,0.8291473388671875
1772702912556794000,2.587794189453125,-0.3930511474609375,0.3973541259765625,0.831298828125
1772702912566844200,2.59784423828125,-0.390838623046875,0.3966827392578125,0.8308563232421875
1772702912576894200,2.607894287109375,-0.3914642333984375,0.3965301513671875,0.829315185546875
1772702912586945300,2.6179453125,-0.3933258056640625,0.3968353271484375,0.8295135498046875
1772702912596995300,2.627995361328125,-0.39605712890625,0.3968963623046875,0.830078125
1772702912607045000,2.638045166015625,-0.3957672119140625,0.3953399658203125,0.8285369873046875
1772702912617095200,2.64809521484375,-0.3953399658203125,0.3965606689453125,0.828887939453125
1772702912627145200,2.658145263671875,-0.394500732421875,0.394287109375,0.8319244384765625
1772702912637195300,2.6681953125,-0.394195556640625,0.3963775634765625,0.8289794921875
1772702912647246300,2.678246337890625,-0.3927459716796875,0.3945465087890625,0.8293914794921875
1772702912657296100,2.688296142578125,-0.3951263427734375,0.39556884765625,0.8285675048828125
1772702912667346200,2.69834619140625,-0.3944549560546875,0.396392822265625,0.83038330078125
1772702912677396200,2.708396240234375,-0.394989013671875,0.3973846435546875,0.8317718505859375
1772702912687446300,2.7184462890625,-0.394866943359375,0.3981170654296875,0.830841064453125
1772702912697496000,2.72849609375,-0.392242431640625,0.39794921875,0.828765869140625
1772702912707547100,2.738547119140625,-0.39276123046875,0.3967742919921875,0.8302764892578125
1772702912717597200,2.74859716796875,-0.393341064453125,0.3968048095703125,0.8297576904296875
1772702912727647200,2.758647216796875,-0.3958892822265625,0.3945465087890625,0.82720947265625
1772702912737697300,2.768697265625,-0.3950347900390625,0.3961029052734375,0.828369140625
1772702912747747000,2.7787470703125,-0.3921661376953125,0.39605712890625,0.8292999267578125
1772702912757798100,2.788798095703125,-0.3915863037109375,0.3955841064453125,0.8294525146484375
1772702912767848200,2.79884814453125,-0.3927764892578125,0.3935394287109375,0.829620361328125
1772702912777898200,2.808898193359375,-0.3930206298828125,0.395050048828125,0.8281097412109375
1772702912787948300,2.8189482421875,-0.3916473388671875,0.3973846435546875,0.8291168212890625
1772702912797998000,2.828998046875,-0.392181396484375,0.399139404296875,0.828948974609375
1772702912808048000,2.839048095703125,-0.3959197998046875,0.398895263671875,0.830963134765625
1772702912818099200,2.84909912109375,-0.3967132568359375,0.3962554931640625,0.8302154541015625
1772702912828149200,2.859149169921875,-0.39849853515625,0.395355224609375,0.831024169921875
1772702912838199300,2.86919921875,-0.3964691162109375,0.396575927734375,0.83270263671875
1772702912848249000,2.8792490234375,-0.395538330078125,0.3949737548828125,0.831451416015625
1772702912858299100,2.889299072265625,-0.3957672119140625,0.39373779296875,0.829193115234375
1772702912868349400,2.899349365234375,-0.39410400390625,0.3942718505859375,0.8299713134765625
1772702912878400300,2.909400146484375,-0.393341064453125,0.3947296142578125,0.8299407958984375
1772702912888450300,2.9194501953125,-0.3941497802734375,0.39361572265625,0.8302001953125
1772702912898500000,2.9295,-0.3959808349609375,0.395477294921875,0.8298187255859375
1772702912908550100,2.939550048828125,-0.3955535888671875,0.394989013671875,0.8314971923828125
1772702912918600400,2.949600341796875,-0.39581298828125,0.3914337158203125,0.82958984375
1772702912928651300,2.9596513671875,-0.3943634033203125,0.39373779296875,0.8257293701171875
1772702912938701000,2.969701171875,-0.3940887451171875,0.3947906494140625,0.8239898681640625
1772702912948751000,2.979751220703125,-0.3953704833984375,0.394134521484375,0.8274383544921875
1772702912958801200,2.98980126953125,-0.3963623046875,0.39447021484375,0.8305511474609375
1772702912968851200,2.999851318359375,-0.3943634033203125,0.39453125,0.83245849609375
1772702912978901500,3.009901611328125,-0.394989013671875,0.394744873046875,0.8334808349609375
1772702912988952000,3.0199521484375,-0.39508056640625,0.3955535888671875,0.8335723876953125
1772702912999002000,3.030002197265625,-0.392669677734375,0.3975830078125,0.8313140869140625
1772702913009052200,3.04005224609375,-0.3938140869140625,0.395965576171875,0.8285064697265625
1772702913019102200,3.050102294921875,-0.39471435546875,0.397430419921875,0.8265228271484375
1772702913029152300,3.06015234375,-0.3968353271484375,0.39312744140625,0.828826904296875
1772702913039202300,3.070202392578125,-0.3946533203125,0.3910675048828125,0.833526611328125
1772702913049253000,3.080253173828125,-0.3929901123046875,0.3926544189453125,0.8314208984375
1772702913059303200,3.09030322265625,-0.3945465087890625,0.3918914794921875,0.830657958984375
1772702913069353200,3.100353271484375,-0.395294189453125,0.3916473388671875,0.8295745849609375
1772702913079403300,3.1104033203125,-0.39556884765625,0.3905029296875,0.8307342529296875
1772702913089453300,3.120453369140625,-0.3992767333984375,0.39154052734375,0.8316192626953125
1772702913099504000,3.130504150390625,-0.3962554931640625,0.39056396484375,0.8277435302734375
1772702913109554400,3.140554443359375,-0.394927978515625,0.390960693359375,0.829071044921875
1772702913119604500,3.1506044921875,-0.394744873046875,0.3920135498046875,0.830780029296875
1772702913129654500,3.160654541015625,-0.3950347900390625,0.392669677734375,0.831878662109375
1772702913139704600,3.17070458984375,-0.3943023681640625,0.3934478759765625,0.8314208984375
1772702913149754600,3.180754638671875,-0.396270751953125,0.39154052734375,0.8313446044921875
1772702913159805400,3.190805419921875,-0.3961334228515625,0.3939361572265625,0.833099365234375
1772702913169855500,3.20085546875,-0.3952789306640625,0.3957061767578125,0.83294677734375
1772702913179905500,3.210905517578125,-0.3937530517578125,0.396697998046875,0.8310546875
1772702913189955600,3.22095556640625,-0.3934326171875,0.3946685791015625,0.8282470703125
1772702913200005600,3.231005615234375,-0.3943328857421875,0.394775390625,0.8301849365234375
1772702913210055700,3.2410556640625,-0.3959197998046875,0.3947601318359375,0.8302001953125
1772702913220106500,3.2511064453125,-0.3964080810546875,0.3942413330078125,0.82781982421875
1772702913230156500,3.261156494140625,-0.393402099609375,0.3938140869140625,0.828948974609375
1772702913240206600,3.27120654296875,-0.3924102783203125,0.3930816650390625,0.8289794921875
1772702913250256600,3.281256591796875,-0.3925628662109375,0.3947601318359375,0.8308258056640625
1772702913260306700,3.291306640625,-0.3937225341796875,0.39556884765625,0.8321533203125
1772702913270357500,3.301357421875,-0.3957977294921875,0.3938140869140625,0.8318328857421875
1772702913280407600,3.311407470703125,-0.39599609375,0.394195556640625,0.8308868408203125
1772702913290457600,3.32145751953125,-0.395965576171875,0.3956451416015625,0.82861328125
1772702913300507600,3.331507568359375,-0.396453857421875,0.3971710205078125,0.8291168212890625
1772702913310557700,3.3415576171875,-0.3957061767578125,0.3964996337890625,0.8285064697265625
1772702913320607500,3.351607421875,-0.394683837890625,0.3947906494140625,0.82586669921875
1772702913330658600,3.361658447265625,-0.395782470703125,0.3954620361328125,0.8286895751953125
1772702913340708600,3.37170849609375,-0.395111083984375,0.39404296875,0.8293609619140625
1772702913350758700,3.381758544921875,-0.39593505859375,0.393585205078125,0.8299560546875
1772702913360808700,3.39180859375,-0.3948822021484375,0.3955078125,0.8305816650390625
1772702913370858500,3.4018583984375,-0.39398193359375,0.3960418701171875,0.8311614990234375
1772702913380908500,3.411908447265625,-0.3945465087890625,0.397430419921875,0.831146240234375
1772702913390959600,3.421959716796875,-0.3963470458984375,0.3966827392578125,0.8336944580078125
1772702913401009700,3.432009765625,-0.396392822265625,0.3953094482421875,0.8345489501953125
1772702913411059700,3.442059814453125,-0.3977813720703125,0.396881103515625,0.8305206298828125
1772702913421109500,3.452109619140625,-0.3960418701171875,0.3966064453125,0.82952880859375
1772702913431159600,3.46215966796875,-0.3961029052734375,0.3950653076171875,0.8288421630859375
1772702913441209600,3.472209716796875,-0.39483642578125,0.39556884765625,0.82916259765625
1772702913451260700,3.4822607421875,-0.39373779296875,0.39532470703125,0.8280792236328125
1772702913461310700,3.492310791015625,-0.393585205078125,0.39361572265625,0.8288421630859375
1772702913471360500,3.502360595703125,-0.39434814453125,0.3960723876953125,0.828948974609375
1772702913481410600,3.51241064453125,-0.3957061767578125,0.39520263671875,0.829681396484375
1772702913491460600,3.522460693359375,-0.3964080810546875,0.396728515625,0.8292083740234375
1772702913501510700,3.5325107421875,-0.397918701171875,0.3952484130859375,0.8286590576171875
1772702913511561700,3.542561767578125,-0.39654541015625,0.39471435546875,0.8309173583984375
1772702913521611500,3.552611572265625,-0.3964080810546875,0.39398193359375,0.828704833984375
1772702913531661600,3.56266162109375,-0.395782470703125,0.3943939208984375,0.8288116455078125
1772702913541711600,3.572711669921875,-0.3947601318359375,0.3943328857421875,0.82891845703125
1772702913551761700,3.58276171875,-0.3931121826171875,0.3948516845703125,0.826385498046875
1772702913561812500,3.5928125,-0.3927001953125,0.395172119140625,0.8281707763671875
1772702913571862500,3.602862548828125,-0.3935089111328125,0.3946075439453125,0.8297271728515625
1772702913581912600,3.61291259765625,-0.3969268798828125,0.3942413330078125,0.8270111083984375
1772702913591962600,3.622962646484375,-0.3949432373046875,0.3928680419921875,0.8282623291015625
1772702913602012700,3.6330126953125,-0.3940582275390625,0.3945465087890625,0.8286590576171875
1772702913612062500,3.6430625,-0.3936309814453125,0.3943634033203125,0.8287506103515625
1772702913622113500,3.653113525390625,-0.393218994140625,0.396240234375,0.830291748046875
1772702913632163600,3.66316357421875,-0.396453857421875,0.3966064453125,0.8292999267578125
1772702913642213600,3.673213623046875,-0.395660400390625,0.395233154296875,0.8274688720703125
1772702913652263400,3.683263427734375,-0.3963470458984375,0.397064208984375,0.821807861328125
1772702913662313500,3.6933134765625,-0.3971099853515625,0.3941192626953125,0.824798583984375
1772702913672363500,3.703363525390625,-0.3984832763671875,0.39453125,0.8284759521484375
1772702913682414600,3.71341455078125,-0.3975982666015625,0.39520263671875,0.8317413330078125
1772702913692464600,3.723464599609375,-0.39520263671875,0.3948516845703125,0.83251953125
1772702913702514400,3.733514404296875,-0.3939971923828125,0.3946075439453125,0.8297882080078125
1772702913712564500,3.743564453125,-0.396148681640625,0.3970794677734375,0.8304290771484375
1772702913722614500,3.753614501953125,-0.395751953125,0.3982391357421875,0.8316650390625
1772702913732665600,3.76366552734375,-0.3955230712890625,0.3961181640625,0.8307342529296875
1772702913742715600,3.773715576171875,-0.3960418701171875,0.3952178955078125,0.8290252685546875
1772702913752765400,3.783765380859375,-0.3977813720703125,0.3957672119140625,0.82830810546875
1772702913762815500,3.7938154296875,-0.3985443115234375,0.392669677734375,0.8294525146484375
1772702913772865500,3.803865478515625,-0.39715576171875,0.3883514404296875,0.829498291015625
1772702913782915600,3.81391552734375,-0.3956756591796875,0.3914031982421875,0.828857421875
1772702913792966700,3.823966552734375,-0.3943023681640625,0.3953857421875,0.826690673828125
1772702913803016400,3.834016357421875,-0.3927459716796875,0.3942718505859375,0.8280029296875
1772702913813066500,3.84406640625,-0.3962860107421875,0.395599365234375,0.8251800537109375
1772702913823116500,3.854116455078125,-0.39630126953125,0.394927978515625,0.824493408203125
1772702913833166600,3.86416650390625,-0.396270751953125,0.395721435546875,0.825958251953125
1772702913843216400,3.87421630859375,-0.393218994140625,0.3954315185546875,0.8293609619140625
1772702913853267500,3.884267333984375,-0.3946990966796875,0.39630126953125,0.833953857421875
1772702913863317500,3.8943173828125,-0.3948211669921875,0.3973846435546875,0.8323822021484375
1772702913873367600,3.904367431640625,-0.3961181640625,0.3965911865234375,0.8324737548828125
1772702913883417600,3.91441748046875,-0.39801025390625,0.3960723876953125,0.8296356201171875
1772702913893467400,3.92446728515625,-0.39752197265625,0.3968658447265625,0.8293914794921875
1772702913903517400,3.934517333984375,-0.3963470458984375,0.39862060546875,0.8309326171875
1772702913913568500,3.944568603515625,-0.3960418701171875,0.3995208740234375,0.8316497802734375
1772702913923618600,3.95461865234375,-0.3952178955078125,0.3973846435546875,0.8307037353515625
1772702913933668600,3.964668701171875,-0.3961181640625,0.392974853515625,0.82940673828125
1772702913943718400,3.974718505859375,-0.39422607421875,0.394622802734375,0.8299713134765625
1772702913953768400,3.9847685546875,-0.3939361572265625,0.3964080810546875,0.83056640625
1772702913963818500,3.994818603515625,-0.3952484130859375,0.3970184326171875,0.8302001953125
1772702913973869600,4.00486962890625,-0.3968353271484375,0.3962860107421875,0.831329345703125
1772702913983919600,4.014919677734375,-0.397064208984375,0.3949737548828125,0.8306732177734375
1772702913993969400,4.024969482421875,-0.39508056640625,0.3957672119140625,0.83294677734375
1772702914004019500,4.03501953125,-0.3950958251953125,0.3976593017578125,0.8320465087890625
1772702914014069500,4.045069580078125,-0.394775390625,0.3978118896484375,0.830047607421875
1772702914024120600,4.05512060546875,-0.396148681640625,0.397918701171875,0.8284759521484375
1772702914034170600,4.065170654296875,-0.3952484130859375,0.3972625732421875,0.827880859375
1772702914044220400,4.075220458984375,-0.3932647705078125,0.396270751953125,0.8254852294921875
1772702914054270500,4.0852705078125,-0.395843505859375,0.39544677734375,0.8256072998046875
1772702914064320500,4.095320556640625,-0.3942718505859375,0.3942718505859375,0.8283233642578125
1772702914074370600,4.10537060546875,-0.395172119140625,0.3927459716796875,0.82989501953125
1772702914084421600,4.115421630859375,-0.39434814453125,0.3944091796875,0.829559326171875
1772702914094471400,4.125471435546875,-0.3943634033203125,0.39483642578125,0.8301849365234375
1772702914104521500,4.135521484375,-0.392547607421875,0.39697265625,0.831787109375
1772702914114572000,4.145572021484375,-0.393890380859375,0.3967437744140625,0.831146240234375
1772702914124621800,4.155621826171875,-0.3943634033203125,0.396026611328125,0.8307952880859375
1772702914134672000,4.165671875,-0.3940887451171875,0.3952484130859375,0.829986572265625
1772702914144723000,4.175722900390625,-0.3959197998046875,0.395172119140625,0.8272705078125
1772702914154773000,4.18577294921875,-0.3955841064453125,0.3964691162109375,0.8290252685546875
1772702914164822800,4.19582275390625,-0.3929290771484375,0.39642333984375,0.8298187255859375
1772702914174872800,4.205872802734375,-0.3932342529296875,0.3955230712890625,0.83026123046875
1772702914184923000,4.2159228515625,-0.3924713134765625,0.3948211669921875,0.8294830322265625
1772702914194973000,4.225972900390625,-0.392486572265625,0.39508056640625,0.8294219970703125
1772702914205024000,4.23602392578125,-0.3927764892578125,0.3972930908203125,0.8285064697265625
1772702914215073800,4.24607373046875,-0.3940582275390625,0.3956146240234375,0.8308258056640625
1772702914225123800,4.256123779296875,-0.394439697265625,0.3977813720703125,0.83074951171875
1772702914235174000,4.266173828125,-0.3943328857421875,0.39898681640625,0.8302154541015625
1772702914245224000,4.276223876953125,-0.3938140869140625,0.39776611328125,0.8293304443359375
1772702914255275000,4.28627490234375,-0.3926849365234375,0.3984832763671875,0.8283233642578125
1772702914265324800,4.29632470703125,-0.3932952880859375,0.3988037109375,0.8287506103515625
1772702914275374800,4.306374755859375,-0.393463134765625,0.39923095703125,0.8303070068359375
1772702914285425000,4.3164248046875,-0.3946990966796875,0.3968353271484375,0.829376220703125
1772702914295475000,4.326474853515625,-0.3911895751953125,0.39715576171875,0.8280181884765625
1772702914305524700,4.336524658203125,-0.3913421630859375,0.4013824462890625,0.8273162841796875
1772702914315575800,4.346575927734375,-0.3930206298828125,0.3980255126953125,0.826904296875
1772702914325625900,4.3566259765625,-0.394317626953125,0.3993682861328125,0.8255767822265625
1772702914335676000,4.366676025390625,-0.3917236328125,0.4002838134765625,0.8270721435546875
1772702914345726000,4.376725830078125,-0.39154052734375,0.39923095703125,0.829010009765625
1772702914355775700,4.386775634765625,-0.391998291015625,0.3980712890625,0.8301239013671875
1772702914365825800,4.39682568359375,-0.3906097412109375,0.3950958251953125,0.828094482421875
1772702914375876900,4.406876953125,-0.391357421875,0.397613525390625,0.82818603515625
1772702914385927000,4.416927001953125,-0.3923187255859375,0.4001312255859375,0.830169677734375
1772702914395977000,4.42697705078125,-0.392608642578125,0.4011077880859375,0.83050537109375
1772702914406026800,4.43702685546875,-0.3928680419921875,0.3997650146484375,0.830810546875
1772702914416076800,4.447076904296875,-0.3925628662109375,0.399871826171875,0.8311920166015625
1772702914426126800,4.457126953125,-0.393463134765625,0.401092529296875,0.8314361572265625
1772702914436178000,4.467177978515625,-0.391693115234375,0.4003143310546875,0.828704833984375
1772702914446228000,4.47722802734375,-0.391815185546875,0.4004974365234375,0.8285369873046875
1772702914456277800,4.48727783203125,-0.3922576904296875,0.3978271484375,0.8280029296875
1772702914466327800,4.497327880859375,-0.392242431640625,0.3957977294921875,0.8292694091796875
1772702914476377900,4.5073779296875,-0.3936309814453125,0.3976287841796875,0.83026123046875
1772702914486428000,4.517427978515625,-0.39312744140625,0.39556884765625,0.8318939208984375
1772702914496479000,4.52747900390625,-0.3933868408203125,0.397247314453125,0.8302459716796875
1772702914506528800,4.53752880859375,-0.394378662109375,0.3974151611328125,0.82781982421875
1772702914516578800,4.547578857421875,-0.395721435546875,0.39697265625,0.8248138427734375
1772702914526628900,4.55762890625,-0.3936767578125,0.399017333984375,0.825714111328125
1772702914536679000,4.567678955078125,-0.392547607421875,0.398284912109375,0.8269805908203125
1772702914546730000,4.57772998046875,-0.3934326171875,0.3983917236328125,0.826385498046875
1772702914556779800,4.58777978515625,-0.3925628662109375,0.395599365234375,0.82830810546875
1772702914566829800,4.597829833984375,-0.394866943359375,0.395904541015625,0.8318328857421875
1772702914576879900,4.6078798828125,-0.3950958251953125,0.39453125,0.83245849609375
1772702914586930000,4.617929931640625,-0.3971405029296875,0.3959197998046875,0.8326568603515625
1772702914596980000,4.62797998046875,-0.3963470458984375,0.3952484130859375,0.8322906494140625
1772702914607030800,4.63803076171875,-0.39434814453125,0.3970947265625,0.8305511474609375
1772702914617080800,4.648080810546875,-0.3936614990234375,0.3973388671875,0.8289337158203125
1772702914627131000,4.658130859375,-0.395294189453125,0.396240234375,0.8291168212890625
1772702914637181000,4.668180908203125,-0.3960113525390625,0.3987884521484375,0.831146240234375
1772702914647231000,4.67823095703125,-0.3937225341796875,0.3985137939453125,0.8315582275390625
1772702914657281000,4.688281005859375,-0.3929290771484375,0.3965606689453125,0.8287353515625
1772702914667331800,4.698331787109375,-0.3910369873046875,0.3964080810546875,0.82879638671875
1772702914677382000,4.7083818359375,-0.391571044921875,0.397125244140625,0.830963134765625
1772702914687432000,4.718431884765625,-0.391693115234375,0.4004364013671875,0.8306121826171875
1772702914697482000,4.72848193359375,-0.392242431640625,0.399505615234375,0.83111572265625
1772702914707532000,4.738531982421875,-0.3932647705078125,0.3971710205078125,0.8318634033203125
1772702914717582000,4.74858203125,-0.395538330078125,0.397705078125,0.83251953125
1772702914727633000,4.7586328125,-0.395416259765625,0.4012908935546875,0.8309173583984375
1772702914737683000,4.768682861328125,-0.394256591796875,0.40106201171875,0.83062744140625
1772702914747733000,4.77873291015625,-0.3944091796875,0.3983154296875,0.83050537109375
1772702914757783000,4.788782958984375,-0.394378662109375,0.395660400390625,0.8275604248046875
1772702914767833000,4.7988330078125,-0.39300537109375,0.3970794677734375,0.828460693359375
1772702914777883100,4.808883056640625,-0.391204833984375,0.3975067138671875,0.829742431640625
1772702914787934000,4.818933837890625,-0.3906402587890625,0.398284912109375,0.8291473388671875
1772702914797984000,4.82898388671875,-0.392059326171875,0.398956298828125,0.8282623291015625
1772702914808034000,4.839033935546875,-0.3939208984375,0.3999176025390625,0.8298187255859375
1772702914818084000,4.849083984375,-0.39349365234375,0.398529052734375,0.8306884765625
1772702914828134000,4.8591337890625,-0.3917999267578125,0.39691162109375,0.830810546875
1772702914838184000,4.869183837890625,-0.3907012939453125,0.3992156982421875,0.831329345703125
1772702914848235000,4.879235107421875,-0.392364501953125,0.3979034423828125,0.83050537109375
1772702914858285000,4.88928515625,-0.3921966552734375,0.396881103515625,0.8309326171875
1772702914868335000,4.899335205078125,-0.3925628662109375,0.3982696533203125,0.8311309814453125
1772702914878385000,4.909385009765625,-0.393402099609375,0.3973541259765625,0.8302764892578125
1772702914888435000,4.91943505859375,-0.392059326171875,0.397430419921875,0.8294677734375
1772702914898486000,4.929486083984375,-0.3917388916015625,0.397247314453125,0.8292694091796875
1772702914908536000,4.9395361328125,-0.39056396484375,0.397735595703125,0.83026123046875
1772702914918586000,4.949586181640625,-0.3907318115234375,0.39886474609375,0.8282928466796875
1772702914928636000,4.959635986328125,-0.39013671875,0.3996124267578125,0.8287353515625
1772702914938686000,4.96968603515625,-0.3890228271484375,0.3989715576171875,0.8282318115234375
1772702914948736000,4.979736083984375,-0.3928375244140625,0.397613525390625,0.8294830322265625
1772702914958787000,4.989787109375,-0.393035888671875,0.397186279296875,0.82879638671875
1772702914968837000,4.999837158203125,-0.390472412109375,0.397064208984375,0.8291778564453125
1772702914978887000,5.009886962890625,-0.3890380859375,0.3989105224609375,0.8277435302734375
1772702914988937000,5.01993701171875,-0.3892059326171875,0.3996429443359375,0.8304290771484375
1772702914998987000,5.029987060546875,-0.390655517578125,0.399749755859375,0.8287200927734375
1772702915009037000,5.040037109375,-0.392730712890625,0.39678955078125,0.82647705078125
1772702915019088100,5.050088134765625,-0.394256591796875,0.3974761962890625,0.8285675048828125
1772702915029138000,5.060137939453125,-0.3926239013671875,0.39691162109375,0.8295745849609375
1772702915039188000,5.07018798828125,-0.393768310546875,0.391326904296875,0.82720947265625
1772702915049238000,5.080238037109375,-0.3895111083984375,0.397796630859375,0.8282623291015625
1772702915059288000,5.0902880859375,-0.3852386474609375,0.39849853515625,0.8298187255859375
1772702915069337900,5.100337890625,-0.390625,0.3987884521484375,0.8259429931640625
1772702915079389000,5.110388916015625,-0.391448974609375,0.400543212890625,0.823486328125
1772702915089439000,5.12043896484375,-0.393829345703125,0.3991546630859375,0.827850341796875
1772702915099489000,5.130489013671875,-0.39324951171875,0.3971099853515625,0.82928466796875
1772702915109538300,5.140538330078125,-0.39361572265625,0.3983612060546875,0.829833984375
1772702915119588400,5.15058837890625,-0.3896636962890625,0.4024658203125,0.829254150390625
1772702915129638100,5.16063818359375,-0.390350341796875,0.40106201171875,0.8303680419921875
1772702915139689200,5.170689208984375,-0.3907470703125,0.4001922607421875,0.8296966552734375
1772702915149739300,5.1807392578125,-0.3903045654296875,0.39947509765625,0.8263092041015625
1772702915159789300,5.190789306640625,-0.3908233642578125,0.40228271484375,0.8266448974609375
1772702915169839400,5.20083935546875,-0.3918914794921875,0.3990631103515625,0.8274383544921875
1772702915179889200,5.21088916015625,-0.3933563232421875,0.4014739990234375,0.82763671875
1772702915189940200,5.220940185546875,-0.3952178955078125,0.396820068359375,0.8303375244140625
1772702915199990300,5.230990234375,-0.3948211669921875,0.397613525390625,0.8287353515625
1772702915210040300,5.241040283203125,-0.391815185546875,0.3988494873046875,0.8279266357421875
1772702915220090000,5.251090087890625,-0.3924407958984375,0.397308349609375,0.8267822265625
1772702915230140200,5.26114013671875,-0.3938751220703125,0.397918701171875,0.8258209228515625
1772702915240190200,5.271190185546875,-0.39306640625,0.3972015380859375,0.827178955078125
1772702915250241300,5.2812412109375,-0.3927001953125,0.396331787109375,0.8285675048828125
1772702915260291300,5.291291259765625,-0.392791748046875,0.39697265625,0.8304443359375
1772702915270341000,5.301341064453125,-0.3922882080078125,0.3948822021484375,0.832855224609375
1772702915280391200,5.31139111328125,-0.3919830322265625,0.3976287841796875,0.83392333984375
1772702915290440400,5.3214404296875,-0.3918609619140625,0.398193359375,0.8333587646484375
1772702915300491300,5.3314912109375,-0.3930206298828125,0.39715576171875,0.8323974609375
1772702915310541000,5.341541015625,-0.39166259765625,0.400177001953125,0.8305816650390625
1772702915320591000,5.351591064453125,-0.392578125,0.3986358642578125,0.8307342529296875
1772702915330641200,5.36164111328125,-0.394073486328125,0.398712158203125,0.8304595947265625
1772702915340691500,5.37169140625,-0.394439697265625,0.4000396728515625,0.83087158203125
1772702915350741500,5.381741455078125,-0.3926849365234375,0.3978118896484375,0.8325653076171875
1772702915360792000,5.3917919921875,-0.389862060546875,0.3976287841796875,0.8323974609375
1772702915370842000,5.401842041015625,-0.3917083740234375,0.39886474609375,0.831695556640625
1772702915380892200,5.41189208984375,-0.393402099609375,0.39959716796875,0.83203125
1772702915390942200,5.421942138671875,-0.3937530517578125,0.401123046875,0.8323822021484375
1772702915400992300,5.4319921875,-0.394012451171875,0.4003753662109375,0.8296966552734375
1772702915411042300,5.442042236328125,-0.3915557861328125,0.400054931640625,0.828765869140625
1772702915421093000,5.452093017578125,-0.390594482421875,0.3989105224609375,0.830230712890625
1772702915431143200,5.46214306640625,-0.3931884765625,0.399688720703125,0.8311920166015625
1772702915441193200,5.472193115234375,-0.3936920166015625,0.400726318359375,0.8277130126953125
1772702915451243300,5.4822431640625,-0.3933868408203125,0.39874267578125,0.829620361328125
1772702915461293300,5.492293212890625,-0.3927459716796875,0.396697998046875,0.8305511474609375
1772702915471344000,5.50234423828125,-0.3933563232421875,0.397552490234375,0.8289794921875
1772702915481394200,5.512394287109375,-0.3944854736328125,0.3954925537109375,0.8277587890625
1772702915491444200,5.5224443359375,-0.39361572265625,0.395599365234375,0.8309326171875
1772702915501494300,5.532494384765625,-0.3930511474609375,0.3968505859375,0.830841064453125
1772702915511544300,5.54254443359375,-0.3891448974609375,0.3966064453125,0.8285980224609375
1772702915521594400,5.552594482421875,-0.3923187255859375,0.395721435546875,0.8292236328125
1772702915531645200,5.562645263671875,-0.392333984375,0.3943328857421875,0.8288116455078125
1772702915541695200,5.5726953125,-0.3925323486328125,0.39593505859375,0.830413818359375
1772702915551745300,5.582745361328125,-0.3938751220703125,0.3945159912109375,0.829345703125
1772702915561795300,5.59279541015625,-0.3935546875,0.3935394287109375,0.83050537109375
1772702915571845400,5.602845458984375,-0.3932647705078125,0.3951263427734375,0.8305816650390625
1772702915581895400,5.6128955078125,-0.3914031982421875,0.3982086181640625,0.8288116455078125
1772702915591946200,5.6229462890625,-0.3913116455078125,0.3981170654296875,0.829376220703125
1772702915601996300,5.632996337890625,-0.390655517578125,0.397369384765625,0.82977294921875
1772702915612046300,5.64304638671875,-0.390045166015625,0.39886474609375,0.830474853515625
1772702915622096400,5.653096435546875,-0.391265869140625,0.399627685546875,0.83380126953125
1772702915632146400,5.663146484375,-0.390960693359375,0.4005126953125,0.8352508544921875
1772702915642197200,5.673197265625,-0.3915863037109375,0.400054931640625,0.8339080810546875
1772702915652247300,5.683247314453125,-0.393341064453125,0.399658203125,0.831298828125
1772702915662297300,5.69329736328125,-0.3922882080078125,0.4001922607421875,0.8311614990234375
1772702915672347400,5.703347412109375,-0.3908538818359375,0.40191650390625,0.831817626953125
1772702915682397400,5.7133974609375,-0.38861083984375,0.40191650390625,0.8284454345703125
1772702915692448300,5.7234482421875,-0.3878936767578125,0.4015960693359375,0.826629638671875
1772702915702498300,5.733498291015625,-0.3879241943359375,0.4020233154296875,0.8264923095703125
1772702915712548400,5.74354833984375,-0.3880615234375,0.39996337890625,0.8292388916015625
1772702915722598400,5.753598388671875,-0.3918914794921875,0.3981170654296875,0.8304290771484375
1772702915732648400,5.7636484375,-0.39215087890625,0.3976593017578125,0.8314208984375
1772702915742698200,5.7736982421875,-0.3915557861328125,0.396942138671875,0.836517333984375
1772702915752749300,5.783749267578125,-0.388824462890625,0.39569091796875,0.8350830078125
1772702915762799400,5.79379931640625,-0.387237548828125,0.396270751953125,0.8314971923828125
1772702915772849400,5.803849365234375,-0.3890838623046875,0.3986358642578125,0.8294830322265625
1772702915782899500,5.8138994140625,-0.38885498046875,0.3990936279296875,0.8297882080078125
1772702915792949200,5.82394921875,-0.388824462890625,0.3984375,0.829376220703125
1772702915803000300,5.834000244140625,-0.387176513671875,0.397216796875,0.8301544189453125
1772702915813050400,5.84405029296875,-0.383880615234375,0.39752197265625,0.8303070068359375
1772702915823100400,5.854100341796875,-0.384521484375,0.3985137939453125,0.8312835693359375
1772702915833150500,5.864150390625,-0.3834075927734375,0.39697265625,0.8309173583984375
1772702915843200300,5.8742001953125,-0.3852691650390625,0.3999176025390625,0.8296966552734375
1772702915853250300,5.884250244140625,-0.3875274658203125,0.4017486572265625,0.831573486328125
1772702915863301400,5.89430126953125,-0.3896484375,0.4039764404296875,0.8317108154296875
1772702915873351400,5.904351318359375,-0.3885040283203125,0.4010009765625,0.8313140869140625
1772702915883401200,5.914401123046875,-0.3849639892578125,0.400482177734375,0.83148193359375
1772702915893451300,5.924451171875,-0.388458251953125,0.399017333984375,0.830841064453125
1772702915903501300,5.934501220703125,-0.3890228271484375,0.397979736328125,0.828521728515625
1772702915913551400,5.94455126953125,-0.3883819580078125,0.39593505859375,0.8290557861328125
1772702915923602400,5.9546025390625,-0.386749267578125,0.3978271484375,0.8299560546875
1772702915933652200,5.96465234375,-0.386138916015625,0.3973388671875,0.828948974609375
1772702915943702300,5.974702392578125,-0.3888702392578125,0.397491455078125,0.8303985595703125
1772702915953752300,5.98475244140625,-0.3903350830078125,0.395721435546875,0.8321990966796875
1772702915963802400,5.99480224609375,-0.3871917724609375,0.3974151611328125,0.8304595947265625
1772702915973853400,6.004853515625,-0.3878936767578125,0.4001617431640625,0.831695556640625
1772702915983903200,6.0149033203125,-0.3879241943359375,0.40008544921875,0.8331146240234375
1772702915993953300,6.024953369140625,-0.3907318115234375,0.4026336669921875,0.8317413330078125
1772702916004003300,6.03500341796875,-0.390533447265625,0.404144287109375,0.8305816650390625
1772702916014053400,6.045053466796875,-0.39007568359375,0.4041595458984375,0.828887939453125
1772702916024103200,6.055103271484375,-0.390533447265625,0.402801513671875,0.8286285400390625
1772702916034154200,6.065154296875,-0.3897705078125,0.4028778076171875,0.8326416015625
1772702916044204300,6.075204345703125,-0.3885345458984375,0.4013671875,0.8329620361328125
1772702916054254300,6.08525439453125,-0.386810302734375,0.40057373046875,0.8287353515625
1772702916064304400,6.095304443359375,-0.38568115234375,0.3997650146484375,0.829864501953125
1772702916074354200,6.105354248046875,-0.3874359130859375,0.4005584716796875,0.8289031982421875
1772702916084404200,6.115404296875,-0.391632080078125,0.39971923828125,0.830474853515625
1772702916094455300,6.125455322265625,-0.392120361328125,0.3978424072265625,0.830322265625
1772702916104505300,6.13550537109375,-0.3906402587890625,0.3983306884765625,0.8306732177734375
1772702916114556000,6.145555908203125,-0.38958740234375,0.3993072509765625,0.8301239013671875
1772702916124605700,6.155605712890625,-0.389129638671875,0.3986053466796875,0.8292388916015625
1772702916134655700,6.16565576171875,-0.390045166015625,0.3993377685546875,0.8300933837890625
1772702916144705800,6.175705810546875,-0.390106201171875,0.3996429443359375,0.8294219970703125
1772702916154756900,6.1857568359375,-0.389007568359375,0.4003448486328125,0.82879638671875
1772702916164807000,6.195806884765625,-0.388946533203125,0.3989105224609375,0.8297119140625
1772702916174856700,6.205856689453125,-0.3907012939453125,0.3995819091796875,0.8291015625
1772702916184906800,6.21590673828125,-0.3898773193359375,0.3975830078125,0.82989501953125
1772702916194956800,6.225956787109375,-0.3905181884765625,0.399017333984375,0.829498291015625
1772702916205006800,6.2360068359375,-0.38885498046875,0.39886474609375,0.83135986328125
1772702916215058000,6.246057861328125,-0.3886566162109375,0.398895263671875,0.8318023681640625
1772702916225107700,6.256107666015625,-0.3898162841796875,0.396881103515625,0.83447265625
1772702916235157800,6.26615771484375,-0.39300537109375,0.39801025390625,0.8330078125
1772702916245207800,6.276207763671875,-0.39080810546875,0.399566650390625,0.831390380859375
1772702916255257900,6.2862578125,-0.3925018310546875,0.4010009765625,0.83050537109375
1772702916265309000,6.296308837890625,-0.3925933837890625,0.398895263671875,0.83056640625
1772702916275358700,6.306358642578125,-0.3934326171875,0.398193359375,0.829132080078125
1772702916285408800,6.31640869140625,-0.3924102783203125,0.39825439453125,0.8278961181640625
1772702916295458800,6.326458740234375,-0.3895111083984375,0.3967742919921875,0.829193115234375
1772702916305508900,6.3365087890625,-0.3912353515625,0.39630126953125,0.8304595947265625
1772702916315558700,6.34655859375,-0.392425537109375,0.396575927734375,0.8304290771484375
1772702916325609700,6.356609619140625,-0.39251708984375,0.3993988037109375,0.8303070068359375
1772702916335659800,6.36665966796875,-0.3931884765625,0.4004974365234375,0.8295440673828125
1772702916345709800,6.376709716796875,-0.3946990966796875,0.3988189697265625,0.8291473388671875
1772702916355759900,6.386759765625,-0.3926849365234375,0.39862060546875,0.8282928466796875
1772702916365809700,6.3968095703125,-0.39251708984375,0.400299072265625,0.8291778564453125
1772702916375859700,6.406859619140625,-0.3923797607421875,0.3992462158203125,0.82891845703125
1772702916385910800,6.416910888671875,-0.392303466796875,0.399078369140625,0.8296356201171875
1772702916395960800,6.4269609375,-0.3904876708984375,0.3989410400390625,0.8304443359375
1772702916406011000,6.437010986328125,-0.3891143798828125,0.3984832763671875,0.829559326171875
1772702916416060700,6.447060791015625,-0.3918304443359375,0.3966217041015625,0.8302764892578125
1772702916426110700,6.45711083984375,-0.3927154541015625,0.39691162109375,0.8323822021484375
1772702916436161800,6.467161865234375,-0.393218994140625,0.398040771484375,0.83367919921875
1772702916446211800,6.4772119140625,-0.3926849365234375,0.3982696533203125,0.8319091796875
1772702916456262000,6.487261962890625,-0.3928680419921875,0.3976287841796875,0.8272247314453125
1772702916466311700,6.497311767578125,-0.392578125,0.3973541259765625,0.82550048828125
1772702916476361700,6.50736181640625,-0.3924713134765625,0.397613525390625,0.8266448974609375
1772702916486411800,6.517411865234375,-0.392303466796875,0.3953857421875,0.8282623291015625
1772702916496462800,6.527462890625,-0.3953094482421875,0.3960723876953125,0.8316802978515625
1772702916506513000,6.537512939453125,-0.3914794921875,0.398223876953125,0.836639404296875
1772702916516562700,6.547562744140625,-0.390716552734375,0.39739990234375,0.8380584716796875
1772702916526612700,6.55761279296875,-0.3902435302734375,0.3972320556640625,0.8345489501953125
1772702916536662800,6.567662841796875,-0.3903656005859375,0.3991241455078125,0.83172607421875
1772702916546712800,6.577712890625,-0.3922576904296875,0.4034881591796875,0.8275909423828125
1772702916556763600,6.587763671875,-0.3928070068359375,0.4028778076171875,0.8271484375
1772702916566813700,6.597813720703125,-0.3958892822265625,0.4032745361328125,0.827880859375
1772702916576863700,6.60786376953125,-0.3939666748046875,0.4012298583984375,0.8274383544921875
1772702916586913800,6.617913818359375,-0.394012451171875,0.3986053466796875,0.82672119140625
1772702916596963800,6.6279638671875,-0.395294189453125,0.398193359375,0.82537841796875
1772702916607014700,6.6380146484375,-0.393798828125,0.3994140625,0.825897216796875
1772702916617064700,6.648064697265625,-0.3910675048828125,0.4003448486328125,0.826080322265625
1772702916627114800,6.65811474609375,-0.3924560546875,0.4014739990234375,0.82525634765625
1772702916637164800,6.668164794921875,-0.3953399658203125,0.402313232421875,0.8203277587890625
1772702916647214600,6.678214599609375,-0.3968048095703125,0.4008026123046875,0.8194732666015625
1772702916657264600,6.6882646484375,-0.39599609375,0.3987579345703125,0.8224945068359375
1772702916667315700,6.698315673828125,-0.3924102783203125,0.3990478515625,0.8248138427734375
1772702916677365800,6.70836572265625,-0.3917999267578125,0.400909423828125,0.825225830078125
1772702916687415800,6.718415771484375,-0.396240234375,0.4007415771484375,0.825927734375
1772702916697465600,6.728465576171875,-0.4003143310546875,0.4027862548828125,0.8240203857421875
1772702916707515600,6.738515625,-0.3952178955078125,0.4021453857421875,0.8261871337890625
1772702916717565700,6.748565673828125,-0.3917694091796875,0.39996337890625,0.8291778564453125
1772702916727616800,6.75861669921875,-0.395263671875,0.40118408203125,0.8310089111328125
1772702916737666800,6.768666748046875,-0.399169921875,0.4036407470703125,0.824462890625
1772702916747716600,6.778716552734375,-0.407684326171875,0.396453857421875,0.8283233642578125
1772702916757766700,6.7887666015625,-0.38751220703125,0.390716552734375,0.822296142578125
1772702916767816700,6.798816650390625,-0.3567962646484375,0.41937255859375,0.841796875
1772702916777866800,6.80886669921875,-0.393646240234375,0.4086456298828125,0.842437744140625
1772702916787917800,6.818917724609375,-0.43853759765625,0.3935699462890625,0.8215789794921875
1772702916797967600,6.828967529296875,-0.4324951171875,0.4008331298828125,0.8201141357421875
1772702916808017700,6.839017578125,-0.3984375,0.3926544189453125,0.840118408203125
1772702916818067700,6.849067626953125,-0.390472412109375,0.3922576904296875,0.8355865478515625
1772702916828117800,6.85911767578125,-0.4011077880859375,0.3992462158203125,0.813934326171875
1772702916838168800,6.8691689453125,-0.3899078369140625,0.388824462890625,0.82635498046875
