time,seconds_elapsed,z,y,x
1772702910041737000,0.072737060546875,-0.0596434445798397,0.006143325060606003,-0.02457271572053432
1772702910051787300,0.082787353515625,-0.021916648253798483,0.006462474012374877,-0.026588731718063353
1772702910061837300,0.09283740234375,-0.0065814242169260975,0.023234160593152045,0.0005319149196147918
1772702910071887400,0.102887451171875,0.011362521013617516,0.011006839443743229,0.00006429740786552428
1772702910081937200,0.112937255859375,0.027338381041586396,0.010395721808075905,0.009858546191453934
1772702910091988000,0.122988037109375,0.004676175117492676,0.0040320319950580595,0.02176467256247997
1772702910102038300,0.133038330078125,-0.013119009292125701,0.006601005700230598,0.014883096355199812
1772702910112088300,0.14308837890625,0.014338321954011916,0.0021428572475910186,-0.023033669584989546
1772702910122138600,0.153138671875,0.03029576954245567,0.027856267435848712,-0.011456044515967368
1772702910132188400,0.1631884765625,0.009943301865458488,0.018846154767274855,-0.018764321702718734
1772702910142238500,0.173238525390625,-0.02087327668070793,0.010580722986161709,-0.013655600386857985
1772702910152289300,0.183289306640625,-0.018769582399725912,-0.0007879355072975159,0.010965046128630638
1772702910162339300,0.19333935546875,0.007521043154597282,-0.02953822917342186,0.03669102353751659
1772702910172389600,0.2033896484375,0.0323684841632843,-0.01838555151820183,0.0322463190883398
1772702910182439400,0.213439453125,0.03610124095082283,-0.0031365444600582122,0.010946925950050354
1772702910192489500,0.223489501953125,0.015464111113548278,0.012458791817724704,-0.008868950632214545
1772702910202540300,0.233540283203125,0.013676643174886703,0.038187107314169404,-0.009373393023014069
1772702910212590300,0.24359033203125,-0.005855155768990516,0.011544307321310043,-0.017037644040584565
1772702910222640400,0.253640380859375,-0.001644260075688362,0.005433715486526489,0.005846972462534904
1772702910232690400,0.2636904296875,0.013900515058636664,-0.003576397182047367,0.004050152173638344
1772702910242740500,0.273740478515625,-0.0017138181805610656,-0.008416238428652287,-0.005448328533768654
1772702910252790500,0.28379052734375,0.000014028525352478027,-0.020987258449196813,-0.009298574221134186
1772702910262841300,0.29384130859375,-0.010493921485543251,-0.03401917397975921,-0.004677928683161735
1772702910272891400,0.303891357421875,-0.01202156944423914,0.005480769498646259,-0.00281681098639965
1772702910282941400,0.31394140625,0.010901917764544486,0.003383504958450794,-0.009070026162266731
1772702910292991500,0.323991455078125,0.020312720188498497,-0.007379004335403442,0.008283844220638275
1772702910303041500,0.33404150390625,0.0013315408647060394,-0.009065349987149238,0.035113398957252503
1772702910313092400,0.34409228515625,-0.017181436425447463,-0.003988192853331566,0.03455693411827087
1772702910323142400,0.354142333984375,0.0066793316334486,0.0011199439406394957,0.03466565518975258
1772702910333192400,0.3641923828125,0.0020689152285456656,-0.0016316928550601005,0.05273381132185459
1772702910343242500,0.374242431640625,0.004504617942869663,0.006012099896371364,0.052881110838055606
1772702910353292500,0.38429248046875,0.0014914076015353202,0.027045243313908576,0.008152326795458794
1772702910363342300,0.39434228515625,0.013201719139516352,0.022671266013383862,-0.000571077886223793
1772702910373393400,0.404393310546875,0.012382511711120604,-0.008238836035132409,0.02425824294388294
1772702910383443500,0.414443359375,0.015378770917654036,-0.0017386603608727455,0.0375227981865406
1772702910393493500,0.424493408203125,0.00949789618551731,0.0046454877182841295,0.020750527083873746
1772702910403543600,0.43454345703125,0.003725450263917446,-0.0006549567773938179,0.010326748225092887
1772702910413593300,0.44459326171875,0.008300795355439186,0.0016930676534771918,-0.009213234025239945
1772702910423643400,0.454643310546875,0.016026713432371616,0.004734335045516491,-0.021674071669578552
1772702910433694500,0.464694580078125,0.012465806080400942,0.004191606470942497,-0.018755553874373436
1772702910443744500,0.47474462890625,0.027339842346310615,0.015326748469471931,-0.023536942932009697
1772702910453794600,0.484794677734375,0.03863748143017292,0.0007999182060360908,0.003526420560479164
1772702910463844400,0.49484423828125,0.030624855366349218,0.005071019653975963,-0.01001812066733837
1772702910473894400,0.504894287109375,0.02905015339553356,0.016071137095987797,-0.0012713351100683212
1772702910483945500,0.514945556640625,0.01822773060798645,0.015797580851614475,0.015436638584733008
1772702910493995500,0.52499560546875,0.006353168419003487,0.031983868759870526,0.003184475255012512
1772702910504045600,0.535045654296875,0.00443067592382431,0.025569617803394794,-0.01957446904182434
1772702910514095400,0.545095458984375,0.003974164327979088,-0.011424480333924293,-0.0028898762226104734
1772702910524145400,0.5551455078125,0.003759644794464111,0.010661094745993614,-0.013595979154109953
1772702910534195500,0.565195556640625,0.021775486217439174,0.029842472817003727,-0.0020586860954761505
1772702910544246500,0.57524658203125,0.024536767624318598,0.032227614387869835,-0.01563128437399864
1772702910554296600,0.585296630859375,0.004206511779129505,0.0143172791659832,0.021474749705195424
1772702910564346400,0.595346435546875,0.003938508492708206,0.02644815420359373,0.0018190321207046509
1772702910574396400,0.605396484375,0.01393733993768692,0.029763270100951193,0.00036240357160568235
1772702910584446500,0.615446533203125,0.005205459688603878,0.03765840726494789,0.00003799392282962799
1772702910594497500,0.62549755859375,0.007895721685886382,0.0406119963735342,0.003339373555779457
1772702910604547600,0.635547607421875,-0.0035559389159083364,0.03693184655606747,-0.002886369091272354
1772702910614597400,0.645597412109375,-0.0006131634622812271,0.03174830643832684,-0.0070697922557592385
1772702910624647400,0.6556474609375,-0.007062485732138157,0.03683452366143465,0.0109971948325634
1772702910634697500,0.665697509765625,-0.004659223982691764,0.026480595168471333,0.0058329439371824264
1772702910644747500,0.67574755859375,-0.0005284077882766723,0.007651683796942234,-0.0027601123631000517
1772702910654798600,0.685798583984375,0.010176526099443434,0.008604162216186522,-0.01495557706952095
1772702910664848400,0.695848388671875,0.01601473073363304,0.009814999310672283,-0.005769815573096275
1772702910674898400,0.7058984375,0.019220833298563954,0.014082009105384348,0.0010837035834789276
1772702910684948500,0.715948486328125,0.003706161041557789,0.01320230366140604,0.01050093574821949
1772702910694998500,0.72599853515625,-0.018881226080656052,0.013059680320322512,-0.006273673442006111
1772702910705048300,0.73604833984375,0.008598901519179344,0.013834756346046924,0.013047697621583938
1772702910715099400,0.746099365234375,0.017015432208776472,0.013388473883271216,-0.014634674552083015
1772702910725149400,0.7561494140625,0.007564590035378933,0.004319909025728702,0.00012450316250324248
1772702910735199500,0.766199462890625,-0.007303016489744186,0.012298340559005737,0.004549918389320374
1772702910745249500,0.77624951171875,-0.005023381119966507,0.007430734522640705,0.019403788650035857
1772702910755299300,0.78629931640625,0.0211707983225584,0.010505611923336981,0.02068330706655979
1772702910765350400,0.796350341796875,0.0159206227093935,-0.013162263911962508,0.007048749467730522
1772702910775400400,0.806400390625,-0.011138649129867553,-0.010763970598578452,-0.00006838906109333039
1772702910785450500,0.816450439453125,-0.009783142867684363,-0.010804887130856514,0.010721885022521018
1772702910795500300,0.826500244140625,0.009087854079902171,-0.013971826729178427,-0.0011655366480350495
1772702910805550300,0.83655029296875,0.0011713818669319151,-0.028532559262216088,0.02115910788476467
1772702910815600400,0.846600341796875,0.010180325491726398,-0.034946225696802134,0.015091770669817924
1772702910825651500,0.8566513671875,0.002819733595848083,-0.026135142731666564,0.02113514248728752
1772702910835701500,0.866701416015625,-0.0006409282520413399,-0.011714695452153681,0.018619944795966147
1772702910845751300,0.876751220703125,-0.018570844957232473,0.006008885025978088,-0.01156184297800064
1772702910855801300,0.88680126953125,-0.022944237735867498,-0.028964813199639318,-0.005108136793971062
1772702910865851400,0.896851318359375,-0.013773966069519519,-0.010894026719033717,0.0008282675176858902
1772702910875901400,0.9069013671875,-0.019299743753671644,-0.0016924831315875053,0.0004126724541187286
1772702910885952500,0.916952392578125,0.018893501040339468,-0.015137071116268634,0.03363865022957325
1772702910896002300,0.927002197265625,0.03766191439628601,-0.02559153737425804,0.044354105511307716
1772702910906052400,0.93705224609375,0.03759995507597923,-0.014249766887724398,0.022720365852117536
1772702910916102400,0.947102294921875,0.0015238485664129256,0.02115384718775749,0.010851064360141754
1772702910926152400,0.95715234375,-0.04379121093153953,-0.006679039372503757,-0.01570844126343727
1772702910936203500,0.96720361328125,-0.03823065419495106,-0.015564356617629527,-0.016962240716814993
1772702910946253300,0.97725341796875,-0.00774549956023693,-0.017005203075706958,0.008928571864962577
1772702910956303400,0.987303466796875,0.009264964212477207,-0.023751462465524672,0.007313537883758545
1772702910966353400,0.997353515625,0.000893149447441101,-0.011701543709635734,-0.011668225961923599
1772702910976403500,1.007403564453125,-0.010620762735605239,-0.01900923637449741,-0.027622166419029235
1772702910986453200,1.017453369140625,-0.0017009586989879606,-0.0123413029178977,-0.02172024889886379
1772702910996504300,1.02750439453125,-0.000301028773188591,-0.01295914255529642,-0.01330547177493572
1772702911006554400,1.037554443359375,0.0015948679760098457,-0.018578151480853556,0.004965513452887535
1772702911016604400,1.0476044921875,-0.01184153670221567,-0.005349836595356464,0.009661562314629554
1772702911026654500,1.057654541015625,-0.015898995399475098,-0.015689444302022456,0.03315349706113338
1772702911036704300,1.067704345703125,-0.020741759255528448,-0.0251619137853384,0.04496259279847145
1772702911046755300,1.07775537109375,-0.02991758387982845,-0.0033680151283740994,0.038138884258270264
1772702911056805400,1.087805419921875,-0.009605740474164485,-0.019867899030447004,0.053230654928088185
1772702911066855400,1.09785546875,-0.012293664383888243,0.0038420623809099193,0.025039748710393904
1772702911076905500,1.107905517578125,-0.0011111761122941971,0.01132481935173273,-0.0019493805021047592
1772702911086955300,1.117955322265625,0.009804770177602767,0.007051087555289268,-0.016157938596606254
1772702911097005300,1.12800537109375,0.000682137045264244,0.005037994167208671,-0.0004319616764783859
1772702911107056400,1.138056396484375,-0.0010334347009658812,-0.0014975450813770293,0.012582418197393417
1772702911117106700,1.148106689453125,0.026462767250835895,0.0014709493353962898,-0.01661737280189991
1772702911127156700,1.15815673828125,0.037575405156612396,0.007818564796447753,-0.045216275298595426
1772702911137206800,1.168206787109375,0.019996786107122896,0.02383212648630142,-0.026844752305746077
1772702911147256800,1.1782568359375,-0.015733867965638637,0.025266250942647457,-0.015347791257500647
1772702911157306600,1.188306640625,-0.022074761424958705,0.035623686566948885,-0.0011164368093013763
1772702911167357700,1.198357666015625,-0.012737316498160362,0.015703765088319777,0.04693476965427398
1772702911177407700,1.20840771484375,0.007023030504584312,0.0067144029468297955,0.04063888438045978
1772702911187457800,1.218457763671875,0.002446224108338356,0.016292086370289324,0.023061142113804816
1772702911197507800,1.2285078125,0.0004094575837254524,0.012599953854084014,0.01772328821718693
1772702911207557600,1.2385576171875,-0.0010202829584479332,0.006677870328724384,-0.009763853645324706
1772702911217608700,1.248608642578125,-0.006357844594120979,-0.0022258593559265137,-0.028877719438076016
1772702911227658800,1.25865869140625,0.026066169148683545,0.010656126309931277,-0.03514671670496464
1772702911237708800,1.268708740234375,0.035327918490767475,0.02363777295798063,-0.008299626311659812
1772702911247758800,1.2787587890625,0.004871405428647994,0.00398147085160017,0.0011018237620592116
1772702911257808600,1.28880859375,-0.023118717519938943,0.010730652850866317,0.003920388314127922
1772702911267858700,1.298858642578125,0.0005324994415044785,0.008468260876834392,0.019931027394533157
1772702911277909800,1.30890966796875,0.022584464512765405,0.027469606205821034,0.0010907178461551665
1772702911287959800,1.318959716796875,0.003632219022512436,0.006473579928278923,0.004195698124170303
1772702911298009900,1.329009765625,-0.020363281331956386,0.0009223755419254302,0.015978490376472473
1772702911308059600,1.3390595703125,-0.04181874181479216,0.02175035177618265,0.020087094739079474
1772702911318109700,1.349109619140625,-0.032362638944387435,0.005074526785314083,0.019494974064826965
1772702911328159700,1.35915966796875,-0.00992927334010601,0.007961480398476124,-0.004213818302750587
1772702911338210800,1.3692109375,-0.01445055015683174,-0.010794073475897312,-0.01568622943162918
1772702911348260900,1.3792607421875,-0.010009352838993072,-0.0005938742399215698,-0.014778466936945914
1772702911358310700,1.389310546875,0.023847031794488428,0.00009644611179828643,-0.027399463579058647
1772702911368360700,1.399360595703125,0.027302432945370672,0.008688041107356548,-0.024748656809329986
1772702911378410800,1.40941064453125,0.02694996624588966,0.009656593878567219,-0.01314998895227909
1772702911388461800,1.4194619140625,0.015368834045529365,0.011972177344560622,-0.020330255845189094
1772702911398511900,1.429511962890625,0.003817512461543083,0.01957885295599699,-0.015550620353221892
1772702911408561700,1.439561767578125,0.008023147457838059,0.008400748598575591,-0.00023790040910243987
1772702911418611700,1.44961181640625,-0.0015437223106622695,0.0302007847353816,0.009581482815742491
1772702911428661800,1.459661865234375,-0.0023965397477149963,0.012628595426678657,0.014254735323786735
1772702911438711800,1.4697119140625,-0.022247195382416245,-0.012781740161776542,0.018735095608234404
1772702911448762600,1.4797626953125,-0.018941139574348925,0.009584405425190925,0.009783142867684363
1772702911458812700,1.489812744140625,0.007729425208270549,-0.0025029227316379545,0.015828852772712707
1772702911468862700,1.49986279296875,0.022932255037128924,-0.005116320100426674,0.03107785983085632
1772702911478912800,1.509912841796875,0.04003390422463417,0.00360240840613842,0.018276245924830434
1772702911488962600,1.519962646484375,0.009749240598082541,0.011636661779880523,0.00741875182390213
1772702911499013600,1.530013671875,0.013035714922845363,-0.0002884615525603294,-0.010420271727442742
1772702911509063700,1.540063720703125,0.004087853835523128,0.0053206105008721345,0.014698387438058852
1772702911519113700,1.55011376953125,-0.0021887422159314156,-0.01514554668366909,-0.0028998130947351453
1772702911529163800,1.560163818359375,0.004146890546381473,-0.003626666064560413,-0.015676877081394196
1772702911539213600,1.570213623046875,-0.027492987081408498,0.0068920976012945175,-0.015957447588443755
1772702911549263600,1.580263671875,-0.02234685636460781,-0.007670973019301891,-0.025178280398249625
1772702911559314700,1.590314697265625,-0.01802256342470646,0.008921849863231182,-0.021813772401213644
1772702911569364700,1.60036474609375,-0.004734335045516491,0.01989595608115196,-0.00008417115211486816
1772702911579414800,1.610414794921875,0.00047580081820487974,0.02851210099607706,0.03315232801735401
1772702911589464600,1.620464599609375,0.00009235445857048034,0.01514730024933815,0.021905542337894438
1772702911599514600,1.6305146484375,0.014428630585968494,0.006968085446953773,0.028900515791773794
1772702911609564700,1.640564697265625,0.016565350353717805,0.01653583199828863,0.002744330272078514
1772702911619615700,1.65061572265625,0.010407412245869637,0.008425006256997585,0.0019335984110832214
1772702911629665800,1.660665771484375,-0.012424597287178039,0.0019759762480854987,0.0015291092634201048
1772702911639715600,1.670715576171875,-0.01992868930697441,-0.03197276284396648,0.00846270791888237
1772702911649765600,1.680765625,-0.0047884033203125,-0.03418926984965801,0.011752981635928153
1772702911659815700,1.690815673828125,0.014344751694798468,-0.03718552905619144,0.009721183547377586
1772702911669865700,1.70086572265625,0.00897767170369625,-0.030138240893185137,-0.008754384341835975
1772702911679916800,1.710916748046875,-0.01357785897552967,0.0004769698619842529,-0.020294015488028526
1772702911689966600,1.720966552734375,0.0018026655077934264,-0.00016425065100193021,-0.016692191603779792
1772702911700016600,1.7310166015625,0.028763737669587133,-0.014608663327991961,-0.01483224295079708
1772702911710066700,1.741066650390625,0.01129471647441387,0.0005164250895380974,-0.001191255611181259
1772702911720116700,1.75111669921875,0.007778525047004222,-0.007975216662883759,0.013205518531799316
1772702911730167800,1.761167724609375,0.01730915445834398,0.0059922261521220205,0.035540099936723704
1772702911740217600,1.771217529296875,0.00817863028049469,0.02405833645761013,0.03542202651500702
1772702911750267600,1.781267578125,0.008439911565184593,0.011981529694795608,0.0303729264318943
1772702911760317700,1.791317626953125,0.01454027426689863,0.00019172317981719968,0.031233342653512953
1772702911770367700,1.80136767578125,0.0073322425842285155,-0.0004126724541187286,0.01266249769628048
1772702911780417800,1.811417724609375,0.02259878529906273,-0.006351414853334426,0.009043722677230834
1772702911790468600,1.821468505859375,0.01968202106952667,-0.02376812133938074,0.005362403815984726
1772702911800518700,1.8315185546875,0.02435322775095701,-0.0018269231662154197,0.038240591067075724
1772702911810568700,1.841568603515625,0.014344751694798468,-0.011330080048739909,0.01741466065943241
1772702911820618800,1.85161865234375,0.02507306645810604,0.013281506377458572,-0.02954290534853935
1772702911830668800,1.861668701171875,0.01574234353303909,0.011811726085841655,-0.05119476518630981
1772702911840718800,1.87171875,-0.0004909983873367309,0.0025651743128895757,-0.014869652351737022
1772702911850769700,1.881769775390625,-0.022755729426443574,0.022452947087585926,0.01217617548406124
1772702911860819700,1.89181982421875,0.008011164759099482,0.018692425510287283,0.0003489595681428909
1772702911870869800,1.901869873046875,0.040188802525401114,0.010159867225587368,0.026252631631493568
1772702911880919800,1.911919921875,0.012357377269864082,0.004326046505570411,0.008158756536245346
1772702911890969900,1.921969970703125,0.0008382043898105621,0.023243805204331874,0.011800327908992766
1772702911901020700,1.932020751953125,-0.0018520576074719428,0.025030980882048606,0.0020008184283971785
1772702911911070700,1.94207080078125,0.008038929548859595,0.02342471472918987,-0.00018996961414813993
1772702911921120800,1.952120849609375,0.0064794251471757885,0.013996961170434951,-0.009730535897612571
1772702911931170800,1.9621708984375,0.01653670878112316,-0.0017667174115777015,-0.016274842974543572
1772702911941220900,1.972220947265625,0.019178163200616834,0.002850713256001472,-0.010675707793235779
1772702911951271000,1.98227099609375,0.03083703681230545,0.01391337454020977,0.0013853168785572052
1772702911961321700,1.99232177734375,0.03620762393474579,0.02344955690950155,-0.0003021978169679642
1772702911971371800,2.002371826171875,0.021334464451670646,0.03293926978856325,0.005651742151379585
1772702911981421800,2.012421875,0.032035891208052635,0.010305413176119327,-0.00010462941825389861
1772702911991471900,2.022471923828125,0.016827800682187078,0.02211713926196098,-0.009709493109583854
1772702912001522000,2.03252197265625,-0.01497428176999092,0.015037702395021914,0.004795417582988739
1772702912011572000,2.042572021484375,-0.0017307693153619766,0.027037936790287494,0.017906828090548513
1772702912021622800,2.052622802734375,-0.003514145600795746,0.025926468417048452,-0.0030120412975549694
1772702912031672800,2.0626728515625,0.007136720012128353,0.025698212619125842,-0.030275311276316642
1772702912041723000,2.072722900390625,-0.018737725956737995,0.02218202119171619,-0.02230418626666069
1772702912051773000,2.08277294921875,0.007318214058876037,0.0144806530341506,0.001757072800397873
1772702912061822700,2.09282275390625,0.014524784436821937,0.01533200916647911,0.01549099912047386
1772702912071873800,2.102873779296875,0.007628887443244457,0.00952449193149805,0.0040332010388374325
1772702912081923800,2.112923828125,-0.014103928676247596,0.008819850793480872,-0.0032592940568923947
1772702912091974000,2.122973876953125,-0.011941197684407233,0.017882278171181678,0.004455225843191146
1772702912102024000,2.13302392578125,-0.006905541604757309,0.02166676514595747,-0.012643792995810508
1772702912112073200,2.1430732421875,-0.005827683240175247,0.01684738216549158,-0.007150456276535987
1772702912122123300,2.153123291015625,0.007613982135057449,0.025064298629760742,0.015126257461309432
1772702912132174300,2.16317431640625,0.015538637654483317,0.013808745121955871,0.039002807611227035
1772702912142224400,2.173224365234375,0.0033197920724749564,0.011387655454874038,0.0017021277427673339
1772702912152274400,2.1832744140625,-0.015927052450180054,-0.0009267594560980796,-0.011041033974289894
1772702912162324200,2.19332421875,-0.02903583260923624,0.009798340436816214,-0.023559154763817786
1772702912172374300,2.203374267578125,-0.02407002689540386,0.02959054388254881,-0.018555647388100623
1772702912182424300,2.21342431640625,-0.02169979063272476,-0.011837737309932707,-0.0155851071447134
1772702912192475400,2.223475341796875,-0.0102870007365942,-0.01472936709821224,0.009744564422965049
1772702912202525400,2.233525390625,0.015993687945604323,-0.015076865361630916,0.0197679457873106
1772702912212575200,2.2435751953125,0.002354454171657562,-0.01065817213654518,-0.0020510873109102247
1772702912222625300,2.253625244140625,-0.009048691113293171,-0.013693009787797927,-0.0010632453173398972
1772702912232675300,2.26367529296875,-0.01573152987807989,-0.002719195830821991,-0.002026537391543388
1772702912242726400,2.273726318359375,-0.008236790208518505,0.0044011575683951375,-0.0027320553123950956
1772702912252776400,2.2837763671875,-0.013918050715327262,0.007371990072727203,-0.01319441261589527
1772702912262826200,2.293826171875,-0.00047054012119770045,-0.0010804887130856514,0.0076303487479686734
1772702912272876300,2.303876220703125,-0.009233984552323818,0.015051146398484707,0.017929039922356605
1772702912282926300,2.31392626953125,-0.014603110370039939,-0.0070423197269439694,0.01575344944894314
1772702912292976400,2.323976318359375,0.013863982440531252,0.009845978970825672,0.005019873988628387
1772702912303027200,2.334027099609375,0.009799509480595587,0.007475450447201729,0.014736965882778168
1772702912313077200,2.3440771484375,0.010413841986656189,0.015503566341102122,0.0052127662122249604
1772702912323127300,2.354127197265625,0.004244797962903976,0.0022167992666363716,0.003477320721745491
1772702912333177300,2.36417724609375,-0.01416822608411312,0.013454232595860958,-0.00281856455206871
1772702912343227400,2.374227294921875,-0.004226677784323692,-0.014208265833556652,0.0014706570744514465
1772702912353277200,2.384277099609375,-0.00013327099084854124,0.007600245870649814,-0.004997662156820297
1772702912363328300,2.394328369140625,-0.029953239715099333,0.0006131634622812271,-0.013796470162272452
1772702912373378300,2.40437841796875,-0.01851122372448444,-0.017946867839992046,-0.020566402688622473
1772702912383428400,2.414428466796875,-0.011327741961181163,-0.019025310726463792,-0.016354337951540947
1772702912393478100,2.42447802734375,0.010799626433849335,-0.019916122086346147,0.001681084954738617
1772702912403528200,2.434528076171875,0.010478139394521713,-0.03531973518431186,0.011191256099939345
1772702912413578200,2.444578125,0.02913198646008968,-0.018206103298068047,0.018486673805117607
1772702912423629300,2.45462939453125,0.013318915778398513,-0.019338029937446117,0.053210196661949156
1772702912433679400,2.464679443359375,-0.0036000703185796734,-0.006698620855808257,0.050257776597142215
1772702912443729200,2.474729248046875,-0.02153729354739189,-0.00006751227825880051,0.039541736793518065
1772702912453779200,2.484779296875,-0.007611059525609016,0.011674363441765308,0.021999650362133978
1772702912463829200,2.494829345703125,-0.006001870763301849,-0.006416004522144794,0.01575461849272251
1772702912473880300,2.50488037109375,-0.001370119309425354,-0.01881722093373537,0.02314063709080219
1772702912483930400,2.514930419921875,0.025986089649796484,-0.012853344093263148,0.0036848259925842284
1772702912493980200,2.524980224609375,0.04803513211160898,-0.011399638153612612,0.013456862944364547
1772702912504030200,2.5350302734375,0.03789806123971939,-0.010295476303994655,0.012407646152377128
1772702912514080300,2.545080322265625,0.0450102313324809,0.00706190121024847,0.020384616380929945
1772702912524130300,2.55513037109375,0.027596447455883025,0.016064999616146085,0.007556698989868164
1772702912534181400,2.565181396484375,0.021250877821445465,0.023497779965400693,-0.0014268179327249525
1772702912544231200,2.575231201171875,0.005102876096963882,0.03423924647122621,-0.0022948329389095305
1772702912554281200,2.58528125,0.0053021980613470075,0.023044190979003905,0.0005664017111063003
1772702912564331300,2.595331298828125,0.03736789988577366,0.020689736807346343,0.022650807747244834
1772702912574381300,2.60538134765625,0.0501408722192049,0.01796148088723421,0.018367431339621543
1772702912584431000,2.61543115234375,0.047831426233053205,0.016392331874370576,0.000571077886223793
1772702912594482200,2.625482177734375,0.02940525044351816,0.026506898653507232,0.007253332129120826
1772702912604532200,2.6355322265625,0.003188566908240318,0.023588673119246957,0.01160802020728588
1772702912614582300,2.645582275390625,0.012456161469221114,0.016664426814019678,-0.0016226327657699584
1772702912624632300,2.65563232421875,0.014991817426681518,0.01773585543781519,-0.004559270739555359
1772702912634682000,2.66568212890625,0.02335281853675842,0.0015033903002738952,0.02816518725454807
1772702912644733200,2.675733154296875,0.030502105769515037,0.01804828238785267,-0.006073182433843612
1772702912654783200,2.685783203125,0.03796995743215084,0.0021411036819219587,0.005485153412818908
1772702912664833300,2.695833251953125,0.015009645344316959,0.017235504700243473,-0.009039046502113342
1772702912674883300,2.70588330078125,0.016539046868681906,0.021080781951546668,0.017796937975287436
1772702912684933000,2.71593310546875,0.013642156383395195,0.03469020510911942,0.023767829078435897
1772702912694983200,2.725983154296875,0.02036211228817701,0.0344990664511919,0.01869943977296352
1772702912705034200,2.7360341796875,0.033928573086857795,0.037789340168237685,0.004161211332678795
1772702912715084300,2.746084228515625,0.03115560124218464,0.027175883956253526,0.0038970074385404584
1772702912725134300,2.75613427734375,0.026117314814031123,0.023238836768269537,-0.00009819967746734619
1772702912735184100,2.76618408203125,-0.0033200843334197996,0.004775836099684238,-0.014859130957722663
1772702912745234200,2.776234130859375,0.014340952302515506,0.015862462781369685,-0.005664601632952689
1772702912755284200,2.7862841796875,0.04373334326446056,0.014768530064821242,0.0021750059515237806
1772702912765335300,2.796335205078125,0.04549275415241718,0.01787526390850544,0.0032283143967390057
1772702912775385300,2.80638525390625,0.03186784116476774,-0.004966974757611751,0.004558686217665672
1772702912785435100,2.81643505859375,0.022941315126419067,0.00850011731982231,-0.011557166802883148
1772702912795485200,2.826485107421875,0.037923487941920755,0.039405835454165934,-0.0024468086302280425
1772702912805535200,2.83653515625,0.030301907022297382,0.039753333717584605,0.0036047464936971663
1772702912815585300,2.846585205078125,-0.008221884900331497,0.046054187427461146,0.02204875020086765
1772702912825636400,2.85663623046875,-0.01381663616746664,0.01132744970023632,0.0006347907721996307
1772702912835686100,2.86668603515625,-0.021809388487040997,0.009559563244879245,0.023258125990629194
1772702912845736200,2.876736083984375,-0.010283785866200924,0.019742519085109232,0.03462181604802608
1772702912855786200,2.8867861328125,0.002413490882515907,0.00011748889982700347,0.017634440889954566
1772702912865836300,2.896836181640625,0.0017985738545656202,-0.014650456643104553,-0.002746083837747574
1772702912875887000,2.90688720703125,0.01590367157459259,-0.001263151803612709,0.0016571195572614669
1772702912885937200,2.916937255859375,0.020791151355206965,0.0014247721061110496,0.003808160111308098
1772702912895987200,2.9269873046875,0.009365794238448142,-0.0045019875943660735,0.008095043650269508
1772702912906037200,2.937037353515625,-0.0073632222443819045,0.002950374238193035,0.012989829954504966
1772702912916087000,2.947087158203125,-0.0020247838258743286,-0.004131692977249622,0.012021277183294295
1772702912926137000,2.95713720703125,-0.003158171769976616,-0.033844986456632614,-0.00047112464308738706
1772702912936188200,2.967188232421875,0.014455518592894076,-0.00533171641677618,-0.03598725918233395
1772702912946238200,2.97723828125,0.015870938348770142,-0.002663373990356922,-0.05118482831418514
1772702912956288300,2.987288330078125,0.0016278934627771376,-0.007584171518683433,-0.013854922351241111
1772702912966338000,2.997338134765625,-0.012182020702958107,-0.0029623569369316097,0.015547697743773459
1772702912976388000,3.00738818359375,0.0009422492861747741,-0.0023047698110342024,0.03435293597877025
1772702912986438400,3.0174384765625,0.0011544307321310042,-0.0003787701845169067,0.036793314868211746
1772702912996489200,3.0274892578125,0.009172609753906727,0.01964285810291767,0.03087795334458351
1772702913006539300,3.037539306640625,0.019819091452658175,0.025273557466268536,0.009317278921604156
1772702913016589000,3.047589111328125,0.015088263538479803,0.013187982875108717,-0.014663316124677658
1772702913026639000,3.05763916015625,-0.000014613047242164611,0.02712210794240236,-0.03111234662234783
1772702913036689400,3.067689453125,-0.018167817114293574,-0.023548341108858582,0.0028127193331718443
1772702913046740200,3.077740234375,0.010115443561971187,-0.033499241758883,0.03966039473712444
1772702913056790300,3.087790283203125,0.01778027910143137,-0.016497253553569315,0.013517068699002266
1772702913066840000,3.097840087890625,0.007998597538471222,-0.028111703501641747,0.002611643803119659
1772702913076890000,3.10789013671875,-0.006118775141239166,-0.03742518303096294,0.007691139024496078
1772702913086940400,3.1179404296875,-0.011686346140503883,-0.04570288977175951,0.021158523362874982
1772702913096990500,3.127990478515625,-0.03549859888255596,-0.02984714899212122,0.012694061878323554
1772702913107041300,3.138041259765625,-0.017135259196162222,-0.04063128559589386,-0.012160393393039703
1772702913117091300,3.14809130859375,-0.002825578814744949,-0.03809679868221283,-0.002377250525355339
1772702913127141400,3.158141357421875,0.0019248305827379226,-0.01770049186348915,0.00882043531537056
1772702913137191400,3.16819140625,0.0001955225721001625,-0.018499825547635552,0.028870705175399778
1772702913147241500,3.178241455078125,0.0027720950618386267,-0.00910363617092371,0.017471943804621696
1772702913157291500,3.18829150390625,-0.007557868033647537,-0.021460428918898104,0.020889643293619156
1772702913167342300,3.19834228515625,-0.012971709775924682,-0.004051905739307403,0.03799041569828987
1772702913177392400,3.208392333984375,-0.004240121787786483,0.01274608432650566,0.027743746972084045
1772702913187442400,3.2184423828125,0.008765490257740021,0.02874415618628263,0.01336392396390438
1772702913197492500,3.228492431640625,0.021731062553822993,-0.005184709161520004,-0.02096738470494747
1772702913207542500,3.23854248046875,0.005125380189716816,0.014259411498904227,0.0007154547929763794
1772702913217593300,3.24859326171875,-0.003661445116996765,0.009013035278022288,0.002821487161517143
1772702913227643400,3.258643310546875,-0.0019160627543926237,-0.0025780337944626805,-0.01841770022213459
1772702913237693400,3.268693359375,0.02671177357584238,-0.00805441937893629,-0.014218494966626166
1772702913247743500,3.278743408203125,0.028042437657713887,-0.005553542473912239,-0.0004945055186748505
1772702913257793500,3.28879345703125,0.028088907147943973,0.016323066030442715,0.015233224967122077
1772702913267843600,3.298843505859375,0.009233984552323818,0.01625175435990095,0.016094225710630416
1772702913277894400,3.308894287109375,0.003822480897605419,-0.0020624854877591132,0.014614216285943985
1772702913287944400,3.3189443359375,-0.006584931348264217,0.002230535531044006,0.007101356437802314
1772702913297994500,3.328994384765625,-0.001534077699482441,0.02539543028026819,-0.006233925953507423
1772702913308044500,3.33904443359375,-0.002660159119963646,0.03231353910565376,-0.0036871640801429744
1772702913318094600,3.349094482421875,0.002466682374477386,0.02149491571038961,-0.014584405669569969
1772702913328144600,3.35914453125,0.012489186955988406,0.013957213681936264,-0.029003391644358632
1772702913338195500,3.369195556640625,-0.005379939472675323,0.012089373983442783,-0.0063958385169506065
1772702913348245500,3.37924560546875,0.014003390911221504,0.002626549111306667,-0.002514028647542
1772702913358295600,3.389295654296875,0.0028939678758382794,0.0011117606341838836,0.007290157008171081
1772702913368345600,3.399345703125,0.010082418075203894,0.012906535585224628,0.00851765297651291
1772702913378395600,3.409395751953125,0.013302549165487289,0.024118542212247848,0.01649754581451416
1772702913388445700,3.41944580078125,0.01523702435940504,0.03207037799954414,0.019915829825401306
1772702913398496500,3.42949658203125,-0.0008306056052446365,0.023941139818727968,0.038297289690375325
1772702913408546600,3.439546630859375,-0.008415069384872912,0.008753215298056602,0.044020343512296674
1772702913418596600,3.4495966796875,-0.01757891131043434,0.02976648497134447,0.0014414309799671173
1772702913428646700,3.459646728515625,0.006560089167952537,0.022362930716574192,-0.003688333123922348
1772702913438696700,3.46969677734375,0.004454933582246304,0.012679156570136546,-0.00665536623597145
1772702913448747500,3.47974755859375,0.012267360898852348,0.020741174733638762,0.004577975440025329
1772702913458797600,3.489797607421875,0.02682809343189001,0.011268412989377976,-0.010499766704440116
1772702913468847600,3.49984765625,0.027627719376981257,-0.004034954604506492,0.0031616789013147353
1772702913478897700,3.509897705078125,0.016539046868681906,0.0233101484388113,-0.005064297652244568
1772702913488947700,3.51994775390625,0.0077668346092104905,0.018128654147684574,0.00016600421667099
1772702913498997500,3.52999755859375,0.002806289592385292,0.01886193685829639,-0.00419803621172905
1772702913509048600,3.540048583984375,-0.007907119862735271,0.010331716661155224,0.006427402698993683
1772702913519098600,3.5500986328125,0.001719371138513088,0.012186989139020441,0.011554244193434714
1772702913529148700,3.560148681640625,0.002446224108338356,-0.005794073231518268,-0.007018938851356506
1772702913539198700,3.57019873046875,0.012772972333431243,0.000874152486026287,-0.007522212198376655
1772702913549248500,3.58024853515625,0.015779752933979034,0.005192015685141087,-0.005189969858527183
1772702913559298600,3.590298583984375,0.03469429676234722,0.012718027275800705,-0.036091888600587846
1772702913569349600,3.600349609375,0.03778992469012737,0.005161036024987698,-0.010277648386359214
1772702913579399700,3.610399658203125,0.021662088970839977,-0.002020399911701679,0.0007236380994319916
1772702913589449500,3.620449462890625,-0.00038812253475189204,-0.008018471282720565,-0.0219768540084362
1772702913599499500,3.63049951171875,0.016779285365343094,-0.01703647499680519,0.0009095160603523254
1772702913609549600,3.640549560546875,0.028440497064590453,-0.0019064181432127951,-0.012500585132837295
1772702913619600600,3.6506005859375,0.03280366071015596,0.008245558036863804,0.0036029929280281064
1772702913629650700,3.660650634765625,0.027039982616901395,0.023605039732158183,0.015033318480849265
1772702913639700500,3.670700439453125,0.003281505888700485,0.015474340246617794,-0.0009463409394025802
1772702913649750500,3.68075048828125,0.00600011719763279,0.006694236941635608,-0.026930677023530004
1772702913659800600,3.690800537109375,-0.0033536943420767783,0.01877922701090574,-0.07214870588779448
1772702913669850600,3.7008505859375,-0.00813420661687851,-0.007650514753162861,-0.03266834389269352
1772702913679901700,3.710901611328125,-0.022075638207793236,-0.004287175799906254,0.00784311471581459
1772702913689951500,3.720951416015625,-0.016055062744021416,0.001995557731389999,0.02903670939207077
1772702913700001500,3.73100146484375,0.014045476487278937,-0.0010232055678963661,0.0378103829562664
1772702913710051600,3.741051513671875,0.020590660347044466,-0.003109656453132629,0.011821370697021483
1772702913720101600,3.7511015625,-0.005352174682915211,0.029965222413837908,0.01852525224983692
1772702913730151400,3.7611513671875,0.0037304186999797817,0.025000585743784904,0.02847673742175102
1772702913740202500,3.771202392578125,0.0024304420173168182,0.0014347089782357214,0.012079729372262954
1772702913750252500,3.78125244140625,-0.0071639002799987785,0.002294248417019844,-0.0029588498055934903
1772702913760302600,3.791302490234375,-0.021552491116523742,0.0033712299987673756,0.00006546645164489745
1772702913770352600,3.8013525390625,-0.027607261110842225,-0.03556961829215288,0.006698036333918571
1772702913780402400,3.81140234375,-0.015301321767270564,-0.07121405538618564,-0.003003273469209671
1772702913790452500,3.821452392578125,0.001342062258720398,-0.0321679931551218,0.003068155398964882
1772702913800503600,3.831503662109375,0.014959376461803913,-0.01410071380585432,-0.014882511833310127
1772702913810553600,3.8415537109375,0.023608839124441144,-0.012354746921360491,-0.00964168857038021
1772702913820603600,3.851603759765625,-0.01778027910143137,-0.005814239236712456,-0.044071196916699404
1772702913830653400,3.8616533203125,-0.016515081471204757,-0.011258768378198147,-0.041893268355727195
1772702913840703500,3.871703369140625,-0.0111605687007308,-0.009551379938423633,-0.02882569698989391
1772702913850753500,3.88175341796875,0.009334230056405067,-0.01096796873807907,0.012905658802390097
1772702913860804600,3.8918046875,-0.011772855380177498,0.0003901683613657951,0.044427170747518535
1772702913870854700,3.901854736328125,-0.0028030747219920157,0.006507189936935901,0.02656184371113777
1772702913880904400,3.911904541015625,-0.024495558831095693,0.00042523967474699016,0.03072422408759594
1772702913890954500,3.92195458984375,-0.044480946761369704,-0.005343991376459598,0.0025087679505348204
1772702913901004500,3.932004638671875,-0.026754735934734344,0.00407470209300518,0.00918809958398342
1772702913911055600,3.9420556640625,-0.018486673805117607,0.01971387751251459,0.019852701461315153
1772702913921105700,3.952105712890625,-0.013595979154109953,0.02311579491049051,0.02080605666339397
1772702913931155500,3.962155517578125,-0.011743044763803482,-0.007815349926054477,0.022147534400224683
1772702913941205500,3.97220556640625,-0.017167992421984673,-0.03941869493573904,0.006126958447694778
1772702913951255600,3.982255615234375,0.00348608855009079,-0.02173164707571268,0.019812953972816467
1772702913961305600,3.9923056640625,-0.002121229937672615,-0.01495206993818283,0.01206336275935173
1772702913971356700,4.002356689453125,-0.012077975806593894,-0.004704524429142475,0.016715572479367256
1772702913981406500,4.012406494140625,-0.03135843033790588,-0.013896131144464014,0.027615736678242683
1772702913991456500,4.02245654296875,-0.025252514678239822,-0.0212099612891674,0.017725626304745674
1772702914001506600,4.032506591796875,-0.01184767418205738,-0.008899930292367934,0.0342073900282383
1772702914011556600,4.042556640625,-0.01756546730697155,0.0011006547182798386,0.025368250012397765
1772702914021606400,4.0526064453125,-0.009299451003968714,0.004378945736587047,-0.0005026888251304626
1772702914031657500,4.062657470703125,-0.023124270477890965,0.008049450942873954,0.0021978023052215577
1772702914041707500,4.07270751953125,-0.0117749012067914,0.00031534955948591233,-0.012728548669815062
1772702914051757600,4.082757568359375,0.0047279053047299385,-0.003803483936190605,-0.03914952260553837
1772702914061807600,4.0928076171875,-0.016871639823913574,-0.02061842513680458,-0.027839608561992645
1772702914071857400,4.102857421875,-0.0017857143729925154,-0.03712123164832592,-0.008892916029691696
1772702914081908500,4.112908447265625,-0.009136661657691001,-0.04200637334138155,0.0023100305080413818
1772702914091958500,4.12295849609375,-0.0129272861123085,-0.03463993622660637,0.006923077261447906
1772702914102008600,4.133008544921875,-0.00036766426861286163,-0.01859188774526119,0.01111176112294197
1772702914112059000,4.143058837890625,0.01669745230078697,-0.0048895256072282785,0.02971417026221752
1772702914122109000,4.15310888671875,-0.0027998598515987395,-0.003782441148161888,0.014928689062595367
1772702914132159000,4.163158935546875,-0.005496259328722953,-0.011099778424203396,0.009085223731398582
1772702914142210000,4.1732099609375,-0.01120499236434698,-0.018693302293121813,0.010844634619355201
1772702914152259800,4.183259765625,-0.019774375528097153,-0.01897007340788841,-0.01814355945587158
1772702914162310000,4.193309814453125,-0.013893500795960426,-0.003918927009403705,-0.005073650002479553
1772702914172360000,4.20335986328125,0.0060863341763615604,-0.010503858357667923,0.0058937342137098305
1772702914182410000,4.213409912109375,0.0025707272708415984,-0.012803075210750102,0.008812252008914946
1772702914192459800,4.223459716796875,0.008101765652000903,-0.013088614153861998,0.0014928689062595367
1772702914202510800,4.2335107421875,0.012547931405901908,-0.019205343468487263,0.004698971471190453
1772702914212561000,4.243560791015625,0.01372165136039257,0.002286649632453918,-0.0061240358382463455
1772702914222611000,4.25361083984375,-0.011408405981957912,-0.009200666804611683,0.012796353209018707
1772702914232661000,4.263660888671875,-0.004520692294836044,0.006400806953012943,0.014196283134818076
1772702914242710800,4.273710693359375,-0.011693360403180121,0.01530453663766384,0.006305822145938873
1772702914252760800,4.2837607421875,-0.0007242226213216781,0.008398118250072003,0.003952537018060684
1772702914262812000,4.29381201171875,0.006600421178340912,0.007814180882275104,-0.01004559319615364
1772702914272862000,4.303862060546875,-0.0016758242577314376,0.01929214496910572,-0.0017453823626041411
1772702914282912000,4.313912109375,0.0004281622841954231,0.015693535955250262,0.009257657688856124
1772702914292961800,4.3239619140625,-0.007301847445964813,-0.002712181568145752,-0.0018675474375486373
1772702914303011800,4.33401171875,0.021577625557780266,0.009857669408619403,-0.0059223757863044735
1772702914313062000,4.344061767578125,0.015338438907265663,0.037309447696805,-0.026076106020808218
1772702914323113000,4.354113037109375,0.007644377273321151,0.00042173254340887066,-0.01770166090726852
1772702914333163000,4.3641630859375,-0.004497019158303737,0.016601590710878373,-0.03642389703392982
1772702914343212800,4.374212890625,0.0147027713522315,0.022873802848160266,-0.016184826603531835
1772702914353262800,4.384262939453125,0.0147007255256176,0.023832711008191107,0.002050502789020538
1772702914363313000,4.39431298828125,0.01500000073313713,-0.004936287358403206,0.005448328533768654
1772702914373364000,4.404364013671875,0.025820669955015182,-0.019713585251569746,-0.008155249404907226
1772702914383414000,4.4144140625,0.013460077814757823,0.003946399538218975,-0.01381049868762493
1772702914393463800,4.4244638671875,0.0016346154645085335,0.027696400699019432,0.004839256724715232
1772702914403513900,4.434513916015625,0.004917582657933235,0.037060441371798515,0.016768763971328735
1772702914413564000,4.44456396484375,0.005353635987639427,0.01903553985953331,0.0182820911437273
1772702914423614000,4.454614013671875,0.005887304472923278,0.02134001740962267,0.015517887127399444
1772702914433665000,4.4646650390625,-0.008420622342824936,0.026514205177128315,0.01617547425329685
1772702914443714800,4.47471484375,0.011066752937436104,0.02729687998741865,-0.0025192893445491788
1772702914453764900,4.484764892578125,0.004087561574578285,0.025772154638171195,-0.007779986351728439
1772702914463815000,4.49481494140625,0.00652034167945385,-0.007675649194419384,-0.010180033230781555
1772702914473865000,4.504864990234375,-0.0005400982260704041,-0.017690554991364477,0.00889583863914013
1772702914483914800,4.514914794921875,-0.008087444865703583,-0.0052574821367859835,0.01260404550731182
1772702914493965800,4.5249658203125,-0.009137830701470374,-0.021769348737597463,0.024821722045540808
1772702914504016000,4.535015869140625,-0.010413257464766502,-0.009162965142726898,0.0005932897180318832
1772702914514066000,4.54506591796875,-0.01925327426344156,-0.010119827476143836,-0.0159206227093935
1772702914524116000,4.555115966796875,-0.028667876079678533,-0.007505553324520587,-0.036004210317134855
1772702914534165800,4.565165771484375,-0.009348258581757545,0.01459784967303276,-0.02594926477074623
1772702914544215800,4.5752158203125,-0.0045101709008216855,0.005523731857538223,-0.01785655920803547
1772702914554267000,4.585266845703125,-0.007349778240919112,-0.005090601137280464,-0.03175356713533401
1772702914564317000,4.59531689453125,0.00034808278530836103,-0.0181841837272048,-0.0021229835033416745
1772702914574367000,4.605366943359375,-0.022051088288426397,-0.018849661898612976,0.025470541343092918
1772702914584416800,4.615416748046875,-0.03623801907300949,-0.028136253421008586,0.030425533401966093
1772702914594466800,4.625466796875,-0.04795417582988739,-0.018616145403683185,0.03267418911159038
1772702914604516900,4.635516845703125,-0.035497137577831746,-0.03151537446528673,0.0336667072802782
1772702914614568000,4.64556787109375,-0.01576981606185436,-0.004015080860257148,0.015021628043055534
1772702914624618000,4.655617919921875,-0.012615735945105552,-0.012525719574093819,-0.00438099156320095
1772702914634667800,4.665667724609375,-0.026215222230553625,-0.01995353148728609,0.004484451937675476
1772702914644717800,4.6757177734375,-0.02931114241927862,0.011406652416288852,0.024199206233024597
1772702914654767900,4.685767822265625,-0.012740239107608794,-0.004911737439036369,0.017580080354213712
1772702914664818200,4.695818115234375,-0.0016939444363117217,-0.006956102748215198,-0.012248071676492691
1772702914674868700,4.70586865234375,0.021292963397502897,-0.015984920117259025,0.0017301847934722899
1772702914684918800,4.715918701171875,0.00898117883503437,0.0034232524469494817,0.018194997382164
1772702914694968800,4.72596875,0.013697101441025733,0.026872809356451033,0.01856149260699749
1772702914705019000,4.736018798828125,0.015865093129873276,0.0166503982886672,0.026774609678983687
1772702914715069000,4.74606884765625,-0.0017997428983449935,-0.0064060676500201225,0.0310264219045639
1772702914725119000,4.756118896484375,-0.021016484543681144,0.00748275697082281,0.031660628154873846
1772702914735169800,4.766169677734375,-0.012528057661652565,0.035814825224876404,0.0230617266356945
1772702914745219800,4.7762197265625,-0.0005009352594614029,0.03193243083357811,0.013484919995069502
1772702914755270000,4.786269775390625,-0.00531213493347168,0.006015022505819798,0.013021394136548042
1772702914765320000,4.79631982421875,0.002468435940146446,-0.008682780410349368,-0.011371288841962814
1772702914775370000,4.806369873046875,0.014887772530317306,-0.002808043158054352,-0.0007101940959692001
1772702914785420800,4.8164208984375,0.028289105895161627,-0.003204348999261856,0.01021861167550087
1772702914795470800,4.826470947265625,0.03299450710713863,0.015037702395021914,0.000006429740786552429
1772702914805521000,4.83652099609375,0.02328676756322384,0.01891220574080944,0.00009936872124671936
1772702914815571000,4.846571044921875,0.010153729745745658,0.035086803211271764,0.0158902275711298
1772702914825621000,4.85662109375,0.010651742395758628,0.006624678836762905,0.016973931154608726
1772702914835671000,4.866671142578125,0.027715397660434245,0.0063154667571187015,0.02319207501709461
1772702914845721900,4.876721923828125,0.03707739250659942,0.03244710235744715,0.025358313140273092
1772702914855772000,4.88677197265625,0.023876550149917602,0.013965104727447032,0.01789572217464447
1772702914865822000,4.896822021484375,0.02344663430005312,0.00527940170764923,0.023072832551598546
1772702914875872000,4.9068720703125,0.02248275770395994,0.019416355870664117,0.02726736163198948
1772702914885922000,4.916922119140625,0.018014087857306002,0.01730360150039196,0.010824760875105857
1772702914895972000,4.92697216796875,0.04054360731244087,0.006690729810297489,-0.0006634323447942734
1772702914906023000,4.93702294921875,0.03204085964411497,0.0069265843927860254,0.007166238367557525
1772702914916073000,4.947072998046875,0.044433892749249936,0.016093348927795886,0.017843699726462364
1772702914926123000,4.957123046875,0.04095189585238695,0.030732991915941237,-0.008864274457097053
1772702914936173000,4.967173095703125,0.051691024270653724,0.04368190533816814,0.004633505019545555
1772702914946223000,4.97722314453125,0.054959670677781104,0.032008418679237365,-0.002026537391543388
1772702914956273000,4.98727294921875,0.021513912671804428,0.016203239043056965,0.007558452555537223
1772702914966324000,4.997323974609375,0.024030279406905174,0.012172960613667964,0.005810147583484649
1772702914976374000,5.0073740234375,0.04326192636042833,0.013187398353219032,0.008256371691823005
1772702914986424000,5.017424072265625,0.0636783991843462,0.0327498846963048,-0.011666472396254539
1772702914996474000,5.02747412109375,0.06514788721501827,0.03184650611579418,0.014659808993339537
1772702915006524000,5.03752392578125,0.0466769955009222,0.03313128522932529,-0.002713350611925125
1772702915016574000,5.047573974609375,0.0319067118704319,0.00573474425971508,-0.01257657297849655
1772702915026625000,5.057625,0.004058335480093956,0.023048867154121397,-0.005322071805596351
1772702915036675000,5.067675048828125,0.02575929515659809,-0.007339841368794441,0.01688917548060417
1772702915046725000,5.07772509765625,0.013987608820199966,-0.04755231703072786,-0.015106968238949775
1772702915056775000,5.08777490234375,0.0670350161358714,0.02569178287833929,-0.006510989329218864
1772702915066825000,5.097824951171875,0.09665127898156642,0.027004619042575357,0.003961304846405982
1772702915076876000,5.1078759765625,0.04143587997704744,0.03509732460528612,-0.04233984307944774
1772702915086926000,5.117926025390625,0.02784720734655857,0.04187748626470566,-0.042405309531092644
1772702915096976100,5.12797607421875,0.01191781680881977,0.031059739652276038,-0.000737082102894783
1772702915107026000,5.13802587890625,0.011420388680696487,0.0027627427116036414,0.010099953731894493
1772702915117075200,5.1480751953125,0.01926817957162857,0.021529694762825964,0.013103227201104163
1772702915127125200,5.158125244140625,0.043407764571905136,0.06097586222738027,0.00949964975118637
1772702915137176300,5.16817626953125,0.04366086255013942,0.04887684363275766,0.017705168038606642
1772702915147226400,5.178226318359375,0.04208557605743408,0.034598727433383464,0.0014876082092523575
1772702915157276200,5.188276123046875,0.04007160588651895,0.030854280208051203,-0.024991817915439606
1772702915167326200,5.198326171875,0.023788871866464615,0.05025105459541082,-0.02626081493794918
1772702915177376300,5.208376220703125,0.017230244003236292,0.024874036754667758,-0.012857143485546112
1772702915187426300,5.21842626953125,-0.0008779518783092498,0.0446510426312685,-0.019657471150159835
1772702915197477400,5.228477294921875,-0.008192658805847167,-0.0066512745827436446,0.014633505508303642
1772702915207527200,5.238527099609375,-0.013578151236474514,0.007994213624298573,-0.00030804303586483
1772702915217577200,5.2485771484375,0.013843816435337065,0.016273673930764197,-0.010404489636421203
1772702915227627300,5.258627197265625,0.012101356682181357,0.004889817868173122,-0.02068506063222885
1772702915237677300,5.26867724609375,-0.01183247661292553,0.011145078870654105,-0.03658464055359363
1772702915247727000,5.27872705078125,0.0012409399718046187,-0.012942483681440353,-0.01670797369480133
1772702915257778200,5.288778076171875,0.003642740416526794,-0.012551146276295184,-0.005199906730651855
1772702915267828200,5.298828125,0.0026952304333448408,-0.013128946164250373,0.01020809028148651
1772702915277878300,5.308878173828125,0.006458966881036758,-0.026091595850884913,0.03678513156175613
1772702915287928300,5.31892822265625,0.008439327043294906,-0.002001402950286865,0.042816812941432
1772702915297978000,5.32897802734375,0.000039162966609001156,0.0019160627543926237,0.037516368445754046
1772702915308028200,5.339028076171875,-0.017477204501628874,0.000374094009399414,0.025593875461816785
1772702915318078200,5.349078125,-0.0019417817175388335,0.02561988668590784,0.012668927437067032
1772702915328129300,5.35912939453125,-0.016737784311175345,0.008273030565679074,0.004670914420485496
1772702915338179300,5.369179443359375,-0.027490064471960066,0.014363164134323597,0.009796586871147156
1772702915348229000,5.37922900390625,-0.029666823989152907,0.012638532298803328,0.014811200162768363
1772702915358279200,5.389279052734375,-0.008088029387593268,-0.003990238679945469,0.022391864550113678
1772702915368329200,5.3993291015625,0.01182370878458023,-0.003953706061840057,0.029943887364864346
1772702915378379300,5.409379150390625,-0.0006593406915664673,0.006197977857291698,0.018272738793492317
1772702915388430300,5.419430419921875,-0.01926174983084202,0.020337562368810177,0.031867548903822894
1772702915398480100,5.429480224609375,-0.028925650233030318,0.016187456952035426,0.028996377381682394
1772702915408530200,5.4395302734375,-0.03275777574181556,0.017003741770982742,-0.00374620079100132
1772702915418580200,5.449580322265625,-0.008780103304982185,0.019637012884020803,-0.002781155151128769
1772702915428630300,5.45963037109375,-0.003426467317342758,0.00793283882588148,0.00044832828938961026
1772702915438680000,5.46968017578125,-0.022893092070519924,0.024279870253801343,0.004031447473168373
1772702915448731100,5.479731201171875,-0.032361469900608064,0.020053484730422497,-0.01480827755331993
1772702915458781200,5.48978125,-0.02572130123376846,-0.000630114597082138,0.005364741903543472
1772702915468831200,5.499831298828125,-0.024101591077446936,-0.021065292121469972,0.003596563187241554
1772702915478881300,5.50988134765625,-0.030559973436594008,-0.012011924833059311,-0.009397942942380905
1772702915488931000,5.51993115234375,-0.03350041080266237,-0.03279693870842457,-0.01715454841852188
1772702915498982100,5.529982177734375,-0.03439180668443441,-0.02274725385904312,0.005008183550834655
1772702915509032200,5.5400322265625,-0.017886662085354325,-0.011496668787300586,0.0028758476972579957
1772702915519082200,5.550082275390625,0.011242109504342079,-0.015289631329476833,-0.00734510206580162
1772702915529132300,5.56013232421875,-0.02756663683950901,-0.026003040784597396,-0.004528875601291656
1772702915539182000,5.57018212890625,-0.027962942680716512,-0.03583323766440153,-0.01788870791196823
1772702915549232000,5.580232177734375,-0.02037175689935684,-0.023656769919395446,-0.002732639834284782
1772702915559283200,5.590283203125,-0.03877484407424926,-0.0376449632614851,-0.009350012147426605
1772702915569333200,5.600333251953125,-0.03411912722289562,-0.04167290360331535,0.004200374299287796
1772702915579383300,5.61038330078125,-0.023943770167231558,-0.022969079916179178,0.0064461073994636535
1772702915589433000,5.62043310546875,-0.004516600641608238,0.005176233594119548,-0.014966098463535308
1772702915599483100,5.630483154296875,-0.008232990816235542,0.0018579028263688087,-0.011489362263679503
1772702915609533200,5.640533203125,-0.002013093388080597,-0.008458031743764877,-0.01241407589316368
1772702915619584300,5.650584228515625,-0.006933598655462264,0.007191372808814048,0.005429039311408996
1772702915629634300,5.66063427734375,-0.010830021572113036,0.014240706798434257,0.0390086528301239
1772702915639684000,5.67068408203125,-0.012165069568157195,0.028809038116037845,0.048636897397041315
1772702915649734100,5.680734130859375,-0.02135959889292717,0.01512508841753006,0.03351297802329063
1772702915659785200,5.69078515625,-0.02065466549396515,0.017214461912214755,0.01281798051893711
1772702915669835300,5.700835205078125,-0.004371054691076279,0.030358897906541824,0.016152677899599073
1772702915679885000,5.710885009765625,0.01897708767056465,0.0337780587002635,-0.018957213926315306
1772702915689936100,5.72093603515625,0.02635609200596809,0.03385346202403307,-0.03582768470644951
1772702915699986200,5.730986083984375,0.026274551202356815,0.03390694577693939,-0.030812486892938612
1772702915710036200,5.7410361328125,0.02448357613235712,0.014954700286686419,-0.0045078328132629394
1772702915720086300,5.751086181640625,-0.012159516610205173,0.0017240473136305807,-0.002905658313632011
1772702915730136000,5.761135986328125,-0.015903379313647745,-0.00741699825823307,0.024328970092535016
1772702915740186000,5.77118603515625,-0.0063899932980537415,-0.019232523736357688,0.06522329053878784
1772702915750237200,5.7812373046875,0.02453179918825626,-0.021178981629014014,0.04177168780267238
1772702915760287200,5.791287353515625,0.030375849041342735,-0.016741291442513465,0.009473346266150474
1772702915770337300,5.801337158203125,0.01736409951597452,0.010355974319577216,-0.0083393738001585
1772702915780387000,5.811386962890625,0.01863280427753925,0.01305938805937767,0.002610474759340286
1772702915790437000,5.82143701171875,0.02218289797455072,0.0003343465209007263,-0.006025836160778999
1772702915800488200,5.83148828125,0.05064239200055599,-0.006769055743515491,0.0029886604219675063
1772702915810538200,5.841538330078125,0.07303308750689029,-0.003427344100177288,0.005551204386353492
1772702915820588300,5.85158837890625,0.06463526151776314,0.00487988099604845,0.019347674548625945
1772702915830638000,5.86163818359375,0.06828647750169038,-0.008571721251308917,0.0042763621449470515
1772702915840688000,5.871688232421875,0.051746261589229105,0.016866379126906392,-0.0061252048820257185
1772702915850738200,5.88173828125,0.028466216027736663,0.041029345002770425,0.013135375905036925
1772702915860789200,5.891789306640625,0.009281038564443587,0.061114101654291146,0.01971300072968006
1772702915870839300,5.90183935546875,0.02455284197628498,0.03247603619098663,0.007051087555289268
1772702915880889000,5.91188916015625,0.059870239073038095,0.03255670021176338,0.013889993664622307
1772702915890939100,5.921939208984375,0.022364392021298408,0.006524725593626499,-0.0015121581286191938
1772702915900989200,5.9319892578125,0.01688742191493511,-0.00009176993668079376,-0.018311901760101317
1772702915911039200,5.942039306640625,0.029473931765556335,-0.02066723271459341,-0.009451134434342383
1772702915921090300,5.95209033203125,0.04401216020584106,-0.0003869534909725189,-0.0009597849428653717
1772702915931140000,5.96214013671875,0.041188919478654856,-0.008932955779135226,-0.00559270544052124
1772702915941190100,5.972190185546875,0.01518558643311262,-0.013275368897616862,0.012377835536003112
1772702915951240200,5.982240234375,-0.0006578793868422508,-0.02678659237772226,0.01922492495179176
1772702915961290200,5.992290283203125,0.03677694825530052,0.004052198000252247,0.004576806396245956
1772702915971341300,6.00234130859375,0.028190321695804595,0.026023206789791583,0.011614449948072432
1772702915981391000,6.01239111328125,0.015793196937441824,0.020552374163269996,0.024624153646826744
1772702915991441200,6.022441162109375,-0.005105506445467472,0.040839667649567125,0.015481062248349189
1772702916001491200,6.0324912109375,-0.002199263609945774,0.058057344432175154,0.007270867785811424
1772702916011541200,6.042541259765625,-0.0029857378125190733,0.04811725743710994,-0.009200959065556525
1772702916021591300,6.05259130859375,0.00019610709398984908,0.04679974509775638,-0.014237199667096138
1772702916031642000,6.06264208984375,0.004431260445713996,0.04229074324071407,0.03266659032702446
1772702916041692200,6.072692138671875,0.016627894195914268,0.02648907073587179,0.020519640937447545
1772702916051742200,6.0827421875,0.040647067686915395,0.02269844628125429,-0.012280220380425453
1772702916061792300,6.092792236328125,0.05457680884003639,0.01752484303563833,-0.0017535656690597532
1772702916071842300,6.10284228515625,0.029310850158333776,0.023724866719543932,-0.002964695024490356
1772702916081892400,6.112892333984375,-0.009734627550840378,0.015198153653740882,0.007669511714577674
1772702916091943200,6.122943115234375,-0.013184183482825755,-0.00992664299160242,0.00466506920158863
1772702916101993200,6.1329931640625,0.0022030630022287366,-0.0018529343903064726,0.010325579181313514
1772702916112043800,6.143043701171875,0.007492986103892326,0.010426701468229294,0.0020920038431882855
1772702916122093600,6.153093505859375,0.012469605472683906,0.0061985623791813846,-0.002304185289144516
1772702916132143600,6.1631435546875,0.011663549786806105,0.004445288971066475,0.0018809914410114288
1772702916142194000,6.17319384765625,0.007998305277526378,0.011208791756629944,-0.005607903009653091
1772702916152244700,6.18324462890625,0.014080547800660132,0.01863280427753925,-0.006602174744009971
1772702916162294800,6.193294677734375,0.012285481077432632,0.001589315018057823,-0.0036368951976299283
1772702916172344600,6.203344482421875,-0.0025108137771487236,0.014516893391311167,-0.004347089293599129
1772702916182394600,6.21339453125,0.008020224848389625,-0.002558160050213337,0.0012093757897615432
1772702916192445000,6.22344482421875,0.006971592578291892,0.011348492488265038,-0.0005184709161520004
1772702916202495000,6.233494873046875,0.030028058516979216,-0.003660568334162235,0.022546178328990935
1772702916212545800,6.2435458984375,0.02593348267972469,-0.00253448691368103,0.025389292800426483
1772702916222595600,6.253595703125,0.008302548921108245,-0.015525778172910213,0.04932371061742306
1772702916232645600,6.263645751953125,-0.012782032422721384,-0.0046706221595406525,0.028556232398748396
1772702916242696000,6.273696044921875,-0.0004983049109578133,0.007994213624298573,0.009648702833056449
1772702916252746000,6.28374609375,-0.009129939655959606,0.020683599327504635,0.016838322076201437
1772702916262796800,6.293796875,-0.014045476487278937,0.0005853986725211143,0.014897709402441978
1772702916272846600,6.3038466796875,-0.019348843592405317,-0.008319792316853999,-0.003610591712594032
1772702916282896600,6.313896728515625,-0.005437807139754295,-0.0033376199901103973,-0.011667056918144226
1772702916292946700,6.32394677734375,0.020616087049245835,-0.023794717085361478,0.002661328163743019
1772702916302997000,6.3339970703125,-0.00040974984467029567,-0.0278393163010478,0.019148937106132507
1772702916313046800,6.344046875,0.0018698855251073835,-0.018677520202100277,0.01749181754887104
1772702916323097600,6.35409765625,-0.00414396793693304,0.013276537941396235,0.011435586249828338
1772702916333147600,6.364147705078125,-0.012654898911714552,0.013345511524379253,0.008463292440772057
1772702916343197700,6.37419775390625,-0.02486526892632246,-0.00021101240217685698,-0.00017184943556785583
1772702916353248000,6.384248046875,-0.002812427072227001,0.006347030939161777,-0.010106967994570731
1772702916363297800,6.3942978515625,0.001235094752907753,0.014897709402441978,0.0037760114073753354
1772702916373347800,6.404347900390625,-0.0003968903630971908,-0.0005187631770968437,-0.0006534954726696014
1772702916383398700,6.414398681640625,0.006316343539953232,0.005855740290880203,0.010717208847403526
1772702916393448700,6.42444873046875,0.025575755283236502,0.003605623276531696,0.017199556604027746
1772702916403498800,6.434498779296875,0.03825520411431789,0.002960311110317707,0.004321370330452919
1772702916413548800,6.444548828125,0.006901449951529502,-0.018237082958221434,0.01965337949693203
1772702916423598800,6.454598876953125,0.0002034136176109314,-0.010961246736347675,0.04302899438738823
1772702916433649700,6.464649658203125,0.0024257658421993253,0.0015983751073479651,0.04606792369186878
1772702916443699700,6.47469970703125,0.0046694531157612795,-0.005789981578290462,0.028409517404437062
1772702916453749800,6.484749755859375,0.007609305959939956,-0.004656301373243332,-0.02323649868071079
1772702916463799800,6.4947998046875,0.009293021263182162,-0.012746376587450503,-0.02472936758697033
1772702916473849900,6.504849853515625,0.013154080605506897,-0.001609188762307167,-0.011552490627765654
1772702916483900000,6.51489990234375,0.012171207047998905,-0.02628127320408821,0.004762099835276604
1772702916493950700,6.52495068359375,-0.004220540304481983,-0.01510755276083946,0.03637479719519615
1772702916504000800,6.535000732421875,0.03014291706830263,-0.002628302676975727,0.08897007682919501
1772702916514050800,6.54505078125,0.03535919041186571,-0.005675999809801578,0.0888835675895214
1772702916524100900,6.555100830078125,0.04488368234336376,0.0034703064590692516,0.06009644904434681
1772702916534151000,6.56515087890625,0.04252484425753355,0.020960370442271233,0.025316812086105346
1772702916544200700,6.57520068359375,0.03175093678683042,0.062059273549914355,-0.00570727173089981
1772702916554251800,6.585251708984375,0.016853519645333288,0.05667758051156997,-0.014281623330712317
1772702916564301800,6.5953017578125,-0.01395955176949501,0.04998480487465858,0.0017769465446472166
1772702916574352000,6.605351806640625,0.009661562314629554,0.03540653668493032,-0.007880524116754531
1772702916584402000,6.61540185546875,0.008915127861499787,0.015799334417283536,-0.014124386942386626
1772702916594451700,6.62545166015625,-0.0033212533771991726,0.007474865925312042,-0.02637362766265869
1772702916604502800,6.635502685546875,0.02524550041556358,0.027076515235006808,-0.016166121903061867
1772702916614552800,6.645552734375,0.047292497050762175,0.02950286559909582,-0.019040216034650802
1772702916624603000,6.655602783203125,0.031655367457866665,0.04504617942869663,-0.01934007576406002
1772702916634653000,6.66565283203125,0.012673311351239681,0.03885550809502601,-0.08039280261993408
1772702916644702700,6.67570263671875,-0.002141688203811645,0.03551175062507391,-0.08120821065604686
1772702916654752800,6.685752685546875,0.006862871506810188,0.011232757154107093,-0.052961774858832356
1772702916664803800,6.695803955078125,0.042568098877370356,0.026118483857810494,-0.029962007543444632
1772702916674854000,6.70585400390625,0.038110242685675616,0.029594051013886926,-0.02427051790356636
1772702916684904000,6.715904052734375,-0.008163432711362838,0.04300152185857296,-0.018208441385626793
1772702916694953700,6.72595361328125,-0.033895839861035344,0.052798693251609796,-0.037919688549637794
1772702916705003800,6.736003662109375,0.022539748588204383,0.04846241761296987,-0.005720131212472915
1772702916715053800,6.7460537109375,0.051421851940453046,0.028386428789794443,0.023256372424960134
1772702916725105000,6.75610498046875,0.011124328343570232,0.040109892070293425,0.028650340422987936
1772702916735155000,6.766155029296875,-0.03132569711208343,0.06491349393725394,-0.03456570194661617
1772702916745204700,6.776204833984375,-0.11682488296031951,-0.033031331986188885,0.0014683189868927
1772702916755254800,6.7862548828125,0.15135229872316122,-0.03197042475640774,-0.04000935430526733
1772702916765304800,6.796304931640625,0.39442163489609955,0.2513353524759412,0.1670838286012411
1772702916775355000,6.80635498046875,-0.013645955775678157,0.09753098442554474,0.1247509997844696
1772702916785406000,6.816406005859375,-0.4235562517046928,-0.02521598206013441,-0.07478489961028098
1772702916795455700,6.826455810546875,-0.297056362426281,0.05040624515712261,-0.047620998352766036
1772702916805505800,6.836505859375,0.03547200313657522,-0.06525368567705155,0.1442956582099199
1772702916815555800,6.846555908203125,0.08346183480173348,-0.030449791060388087,0.06351122592389583
1772702916825606000,6.85660595703125,-0.02221884607076645,0.006398468865454196,-0.12305997795760631
1772702916835657000,6.866656982421875,0.12862725669592617,-0.08148702759742736,0.03194762840270996
