time,seconds_elapsed,z,y,x
1772702910041737000,0.072737060546875,0.0009221783839166164,0.0033930488862097263,0.0012093780096620321
1772702910051787300,0.082787353515625,0.0014885645359754562,0.0010578208602964878,0.0054452852346003056
1772702910061837300,0.09283740234375,-0.0003852355293929577,0.003340416122227907,0.0040636369958519936
1772702910071887400,0.102887451171875,0.00024707347620278597,0.0021782582625746727,0.00621658843010664
1772702910081937200,0.112937255859375,0.00298986304551363,-0.0013277935795485973,0.0037217389326542616
1772702910091988000,0.122988037109375,0.001841575838625431,0.0013509821146726608,0.0057937949895858765
1772702910102038300,0.133038330078125,-0.0022596921771764755,0.0027158521115779877,0.008107016794383526
1772702910112088300,0.14308837890625,-0.0013395261485129595,-0.002570921555161476,0.0019749337807297707
1772702910122138600,0.153138671875,-0.0018785500433295965,0.004275799263268709,-0.000025100103812292218
1772702910132188400,0.1631884765625,-0.003030423540621996,0.005177127663046122,-0.0010195056675001979
1772702910142238500,0.173238525390625,-0.0008333155419677496,0.001080919522792101,0.0006028920761309564
1772702910152289300,0.183289306640625,0.001121779321692884,0.0002339365892112255,-0.00046065766946412623
1772702910162339300,0.19333935546875,0.0010077960323542356,0.001987894531339407,0.0014624109026044607
1772702910172389600,0.2033896484375,-0.0005795222241431475,0.006408165208995342,0.004092497285455465
1772702910182439400,0.213439453125,0.001072969171218574,0.009385844692587852,0.0015025731408968568
1772702910192489500,0.223489501953125,-0.0002250666730105877,0.007787667214870453,0.0013138861395418644
1772702910202540300,0.233540283203125,-0.002189680701121688,0.005205999128520489,0.0038510796148329973
1772702910212590300,0.24359033203125,-0.0012372424826025963,0.0016455543227493763,0.0042914217337965965
1772702910222640400,0.253640380859375,-0.0024010438937693834,-0.0013446426019072533,-0.0003802955034188926
1772702910232690400,0.2636904296875,-0.0011675155255943537,-0.000026649795472621918,-0.0032245973125100136
1772702910242740500,0.273740478515625,-0.0019803124014288187,-0.0023886077105998993,-0.0026895683258771896
1772702910252790500,0.28379052734375,-0.0009187967516481876,-0.005064449273049831,-0.001391880796290934
1772702910262841300,0.29384130859375,-0.0005827057175338268,-0.0009048581123352051,-0.0010925414972007275
1772702910272891400,0.303891357421875,0.0030319225043058395,0.004089449532330036,0.00012293891631998122
1772702910282941400,0.31394140625,0.004519297741353512,0.005529953166842461,-0.0030763165559619665
1772702910292991500,0.323991455078125,0.004872451536357403,0.001263994723558426,0.0008540470735169947
1772702910303041500,0.33404150390625,0.0065007079392671585,0.0012011444196105003,-0.003761477302759886
1772702910313092400,0.34409228515625,0.005136903375387192,0.001559872180223465,-0.0032102030236274004
1772702910323142400,0.354142333984375,0.008836033754050732,-0.006208568811416626,-0.0025585275143384933
1772702910333192400,0.3641923828125,0.0031070420518517494,-0.01158895343542099,-0.0023979388643056154
1772702910343242500,0.374242431640625,0.004502538591623306,-0.009744980372488499,-0.004014211241155863
1772702910353292500,0.38429248046875,0.005908755585551262,-0.007613217458128929,-0.007325202692300081
1772702910363342300,0.39434228515625,0.00688853207975626,-0.010317657142877579,-0.0034492379054427147
1772702910373393400,0.404393310546875,0.005046813748776913,-0.014932064339518547,-0.005105359945446253
1772702910383443500,0.414443359375,0.006494508590549231,-0.015050575137138367,-0.004791373386979103
1772702910393493500,0.424493408203125,0.004329606890678406,-0.013602240011096,-0.004636447411030531
1772702910403543600,0.43454345703125,0.008908912539482117,-0.01038301084190607,-0.00455708522349596
1772702910413593300,0.44459326171875,0.005649685859680176,-0.0062689702026546,-0.0008955518715083599
1772702910423643400,0.454643310546875,0.007735473569482565,-0.001219084020704031,-0.0016598791116848588
1772702910433694500,0.464694580078125,0.010250965133309364,-0.0022539175115525723,-0.0019669742323458195
1772702910443744500,0.47474462890625,0.005400017835199833,-0.0038827068638056517,-0.0038825860247015953
1772702910453794600,0.484794677734375,0.00451325299218297,-0.0015112599357962608,-0.005048933904618025
1772702910463844400,0.49484423828125,0.002677802462130785,-0.004133407957851887,-0.004709913395345211
1772702910473894400,0.504894287109375,0.0011366074904799461,-0.006139866076409817,-0.006288107018917799
1772702910483945500,0.514945556640625,-0.00011401285883039236,-0.007733768317848444,-0.005244147963821888
1772702910493995500,0.52499560546875,-0.0006799050606787205,-0.007514148019254208,-0.008376086130738258
1772702910504045600,0.535045654296875,-0.00025300029665231705,-0.008195917122066021,-0.006089229602366686
1772702910514095400,0.545095458984375,0.0011909656459465623,-0.003910092171281576,-0.0051248990930616856
1772702910524145400,0.5551455078125,0.002484729280695319,-0.0035265968181192875,-0.003358157817274332
1772702910534195500,0.565195556640625,0.0006425665342248976,-0.00428707804530859,-0.002031352138146758
1772702910544246500,0.57524658203125,0.0013983716489747167,0.0003409627825021744,-0.0016784830950200558
1772702910554296600,0.585296630859375,0.0013948411215096712,0.001977040432393551,-0.00019282236462458968
1772702910564346400,0.595346435546875,-0.00021503970492631197,-0.0002719988115131855,-0.0004956237971782684
1772702910574396400,0.605396484375,0.0012776483781635761,-0.0011527258902788162,-0.0019461172632873058
1772702910584446500,0.615446533203125,-0.0042119259014725685,-0.0010323510505259037,-0.001301099662669003
1772702910594497500,0.62549755859375,-0.00477171503007412,-0.0035720649175345898,-0.00012458028504624963
1772702910604547600,0.635547607421875,-0.007523026317358017,-0.0002010357566177845,0.0020264547783881426
1772702910614597400,0.645597412109375,-0.00334273767657578,-0.007397475186735392,-0.0009885614272207022
1772702910624647400,0.6556474609375,-0.007455457933247089,-0.005591053050011396,0.0022799361031502485
1772702910634697500,0.665697509765625,-0.007430805824697018,-0.002256950829178095,0.0024339701049029827
1772702910644747500,0.67574755859375,-0.006287777796387672,-0.0006494666449725628,0.0012826856691390276
1772702910654798600,0.685798583984375,-0.006856196094304323,0.0021742009557783604,0.0029372507706284523
1772702910664848400,0.695848388671875,-0.0062814862467348576,-0.001416805200278759,0.0036933221854269505
1772702910674898400,0.7058984375,-0.00455127377063036,-0.0034193689934909344,0.00663174269720912
1772702910684948500,0.715948486328125,-0.006820553448051214,0.002932536881417036,0.006253307219594717
1772702910694998500,0.72599853515625,-0.008355934172868729,0.00423678383231163,0.01023861113935709
1772702910705048300,0.73604833984375,-0.00674072653055191,0.0014929287135601044,0.008638317696750164
1772702910715099400,0.746099365234375,-0.008863606490194798,-0.001001965720206499,0.00914985965937376
1772702910725149400,0.7561494140625,-0.0091243302449584,0.005479103419929743,0.011789318174123764
1772702910735199500,0.766199462890625,-0.009961492381989956,0.0018231873400509357,0.012337097898125648
1772702910745249500,0.77624951171875,-0.008562799543142319,-0.004356411285698414,0.007866449654102325
1772702910755299300,0.78629931640625,-0.010173480026423931,-0.0063559128902852535,0.003567041829228401
1772702910765350400,0.796350341796875,-0.007553195580840111,-0.0005547492764890194,0.003867180086672306
1772702910775400400,0.806400390625,-0.008048221468925476,0.0015636798925697803,0.008550861850380898
1772702910785450500,0.816450439453125,-0.006153382360935211,0.0018382514826953411,0.007651247084140778
1772702910795500300,0.826500244140625,-0.006486878264695406,0.0023821666836738586,0.003384745679795742
1772702910805550300,0.83655029296875,-0.006717241834849119,0.0044924551621079445,0.006154699716717005
1772702910815600400,0.846600341796875,-0.003417429281398654,-0.0014759884215891361,0.006245817989110947
1772702910825651500,0.8566513671875,-0.005638505332171917,-0.0016783885657787323,0.008641064167022705
1772702910835701500,0.866701416015625,-0.005147104151546955,-0.002379325684159994,0.004193099681288004
1772702910845751300,0.876751220703125,-0.006223820149898529,-0.002741515636444092,0.0027150451205670834
1772702910855801300,0.88680126953125,-0.0031567125115543604,-0.006001108326017857,0.000457768706837669
1772702910865851400,0.896851318359375,-0.0028741515707224607,-0.002476148307323456,-0.000347038556355983
1772702910875901400,0.9069013671875,-0.00138405105099082,-0.005125435534864664,0.0033671879209578037
1772702910885952500,0.916952392578125,-0.0017134840600192547,-0.003297441639006138,0.00035941388341598213
1772702910896002300,0.927002197265625,-0.0025529672857373953,-0.0027812039479613304,-0.000016605481505393982
1772702910906052400,0.93705224609375,-0.0013268478214740753,0.0024449839256703854,-0.001972431084141135
1772702910916102400,0.947102294921875,-0.000019979896023869514,-0.0015083304606378078,0.004408217500895262
1772702910926152400,0.95715234375,-0.0033699702471494675,-0.002252683974802494,0.004409815650433302
1772702910936203500,0.96720361328125,-0.007152860518544912,-0.005943363066762686,0.007163822650909424
1772702910946253300,0.97725341796875,-0.003989557735621929,-0.007702913600951433,0.004417837597429752
1772702910956303400,0.987303466796875,-0.003871053224429488,-0.007960050366818905,0.002496166154742241
1772702910966353400,0.997353515625,-0.0018289412837475538,-0.00338766910135746,0.0035832682624459267
1772702910976403500,1.007403564453125,-0.004217975772917271,-0.004963397979736328,0.0004893951117992401
1772702910986453200,1.017453369140625,-0.0016914347652345896,-0.0022067599929869175,0.0006084383931010962
1772702910996504300,1.02750439453125,0.0016339730937033892,-0.0019922973588109016,-0.0005034176865592599
1772702911006554400,1.037554443359375,0.001729047973640263,-0.002424261998385191,-0.0006544188945554197
1772702911016604400,1.0476044921875,0.002840378787368536,-0.002584992442280054,0.0003126401570625603
1772702911026654500,1.057654541015625,0.0030568940564990044,-0.005591967608779669,0.001975251594558358
1772702911036704300,1.067704345703125,0.0025574336759746075,-0.008619892410933971,-0.0028958329930901527
1772702911046755300,1.07775537109375,0.000034621101804077625,-0.013201327994465828,-0.0038503101095557213
1772702911056805400,1.087805419921875,0.002379249781370163,-0.014203369617462158,-0.00224209763109684
1772702911066855400,1.09785546875,0.0020506156142801046,-0.01596398651599884,0.0006389101035892963
1772702911076905500,1.107905517578125,0.001185318804346025,-0.020443145185709,-0.004314213525503874
1772702911086955300,1.117955322265625,0.0028908071108162403,-0.01599912717938423,-0.0037871741224080324
1772702911097005300,1.12800537109375,0.003183394204825163,-0.016960203647613525,0.0005336825270205736
1772702911107056400,1.138056396484375,0.0043179006315767765,-0.016284825280308723,0.0006987985107116401
1772702911117106700,1.148106689453125,0.004255589097738266,-0.008282683789730072,-0.002930356189608574
1772702911127156700,1.15815673828125,0.0056159314699471,-0.006115936208516359,-0.00413889903575182
1772702911137206800,1.168206787109375,0.004223692696541548,-0.005074346903711557,-0.00035676173865795135
1772702911147256800,1.1782568359375,0.003171744290739298,-0.006074896547943354,0.0023820330388844013
1772702911157306600,1.188306640625,0.002934524789452553,-0.013591766357421875,0.0028673778288066387
1772702911167357700,1.198357666015625,0.002211210085079074,-0.013483641669154167,-0.001118042622692883
1772702911177407700,1.20840771484375,-0.0017763213254511356,-0.011595564894378185,-0.004137197509407997
1772702911187457800,1.218457763671875,0.000674053153488785,-0.016750112175941467,-0.002667398890480399
1772702911197507800,1.2285078125,-0.0006242690142244101,-0.01751834712922573,-0.0004316152189858258
1772702911207557600,1.2385576171875,-0.0021782235708087683,-0.011728369630873203,0.000179047608980909
1772702911217608700,1.248608642578125,0.0015209871344268322,-0.01549282856285572,-0.0027768088039010763
1772702911227658800,1.25865869140625,-0.00019062648061662912,-0.016522938385605812,-0.0052732559852302074
1772702911237708800,1.268708740234375,0.00024353060871362686,-0.009532114490866661,-0.002666638232767582
1772702911247758800,1.2787587890625,-0.0005556840915232897,-0.006455364637076855,-0.0016019063768908381
1772702911257808600,1.28880859375,-0.0016598862130194902,-0.007846483960747719,0.0024674227461218834
1772702911267858700,1.298858642578125,-0.0019043644424527884,-0.003937229979783297,0.0016706048045307398
1772702911277909800,1.30890966796875,-0.0037348850164562464,-0.004142488352954388,0.00011635143891908228
1772702911287959800,1.318959716796875,-0.001442968612536788,-0.004642896354198456,-0.0022053923457860947
1772702911298009900,1.329009765625,-0.005369137041270733,-0.009388986974954605,-0.0010045404778793454
1772702911308059600,1.3390595703125,-0.0034932063426822424,-0.01742454245686531,-0.00174995930865407
1772702911318109700,1.349109619140625,-0.004252219572663307,-0.016341453418135643,-0.002412156667560339
1772702911328159700,1.35915966796875,-0.0039632669650018215,-0.01511906273663044,-0.0014571473002433777
1772702911338210800,1.3692109375,-0.004756956826895475,-0.014460898004472256,-0.00131398590747267
1772702911348260900,1.3792607421875,-0.007294949609786272,-0.009053615853190422,0.00008284207433462143
1772702911358310700,1.389310546875,-0.006306780502200127,-0.004824711009860039,0.004204850178211927
1772702911368360700,1.399360595703125,-0.007962999865412712,-0.0030861995182931423,0.0022679329849779606
1772702911378410800,1.40941064453125,-0.006075271405279636,0.0009257737547159195,0.0004556381609290838
1772702911388461800,1.4194619140625,-0.004851814359426498,0.0018781200051307678,0.0026093365158885717
1772702911398511900,1.429511962890625,-0.00504164258018136,0.0006902334280312061,0.003213056130334735
1772702911408561700,1.439561767578125,-0.006136734504252672,-0.0004293592646718025,0.002131546614691615
1772702911418611700,1.44961181640625,-0.004578506574034691,-0.005250195041298866,0.0022453994024544954
1772702911428661800,1.459661865234375,-0.006608367897570133,-0.006075774785131216,0.002910657087340951
1772702911438711800,1.4697119140625,-0.008034911006689072,-0.004827249329537153,0.008323227986693382
1772702911448762600,1.4797626953125,-0.005243119318038225,-0.005779862403869629,0.008573032915592194
1772702911458812700,1.489812744140625,-0.005454215221107006,-0.005025449674576521,0.0023693204857409
1772702911468862700,1.49986279296875,-0.004478433169424534,-0.005442500580102205,0.004225277341902256
1772702911478912800,1.509912841796875,-0.0016728178597986698,0.00017912965267896652,0.008507369086146355
1772702911488962600,1.519962646484375,-0.0033079986460506916,0.0010044435039162636,0.003316601738333702
1772702911499013600,1.530013671875,-0.0027041244320571423,0.0018487358465790749,0.0019237357191741467
1772702911509063700,1.540063720703125,-0.003019442316144705,0.0024024061858654022,0.006306233815848827
1772702911519113700,1.55011376953125,-0.0046905819326639175,0.0019615120254456997,0.004852212965488434
1772702911529163800,1.560163818359375,-0.006190207786858082,0.002180157694965601,0.005569668486714363
1772702911539213600,1.570213623046875,-0.0031195031479001045,0.004156408365815878,0.005085225682705641
1772702911549263600,1.580263671875,-0.005283321253955364,0.0017763418145477772,0.006878065876662731
1772702911559314700,1.590314697265625,-0.005332781933248043,0.00119741540402174,0.004798188805580139
1772702911569364700,1.60036474609375,-0.0032374064903706312,0.003708777017891407,0.002491891151294112
1772702911579414800,1.610414794921875,-0.00040352996438741684,-0.002243245020508766,0.0021778391674160957
1772702911589464600,1.620464599609375,-0.0017399042844772339,-0.0012088734656572342,0.004527546465396881
1772702911599514600,1.6305146484375,-0.003921831957995892,0.005656489636749029,0.003979201428592205
1772702911609564700,1.640564697265625,-0.002973827999085188,0.0078523438423872,0.001340555027127266
1772702911619615700,1.65061572265625,0.0008181105367839336,0.008452549576759338,0.0034138585906475782
1772702911629665800,1.660665771484375,-0.0016628901939839125,0.002346453722566366,0.006318036001175642
1772702911639715600,1.670715576171875,-0.0041848840191960335,0.006136293523013592,-0.000014890654711052775
1772702911649765600,1.680765625,-0.003038393333554268,0.0012411372736096382,0.00009776107617653906
1772702911659815700,1.690815673828125,-0.0023602587170898914,0.002239965833723545,0.0013650516048073769
1772702911669865700,1.70086572265625,-0.0002739381743595004,0.004327883943915367,0.0011994028463959694
1772702911679916800,1.710916748046875,0.000320161459967494,0.0033968305215239525,0.0013199971290305257
1772702911689966600,1.720966552734375,0.0018890296341851354,0.004755043424665928,-0.0020385151728987694
1772702911700016600,1.7310166015625,0.000529702752828598,0.004590451717376709,0.0021801518741995096
1772702911710066700,1.741066650390625,0.0014793860027566552,0.00477580726146698,0.001327940379269421
1772702911720116700,1.75111669921875,0.0025009620003402233,0.0030511259101331234,0.0029126517474651337
1772702911730167800,1.761167724609375,0.0008801621734164655,0.0028713629581034184,0.005586465820670128
1772702911740217600,1.771217529296875,-0.00004842004273086786,0.0010175630450248718,0.002457699738442898
1772702911750267600,1.781267578125,0.0018125969218090177,-0.0008855322375893593,0.002909904345870018
1772702911760317700,1.791317626953125,0.0003465949557721615,-0.001844367478042841,-0.0030935429967939854
1772702911770367700,1.80136767578125,0.0006137099699117243,-0.0026726103387773037,-0.004250686150044203
1772702911780417800,1.811417724609375,0.0009034001268446445,-0.007340625859797001,-0.006164882332086563
1772702911790468600,1.821468505859375,0.00012628966942429543,-0.007582174614071846,-0.00596487894654274
1772702911800518700,1.8315185546875,0.0017929021269083023,-0.006776425987482071,-0.002279129344969988
1772702911810568700,1.841568603515625,0.005854222923517227,-0.0023800795897841454,-0.00641635013744235
1772702911820618800,1.85161865234375,0.0051748501136898994,0.0013289046473801136,-0.007140996400266886
1772702911830668800,1.861668701171875,0.004345808178186417,0.0036759483627974987,-0.006714890245348215
1772702911840718800,1.87171875,0.003195978933945298,0.0046142335049808025,-0.005261239595711231
1772702911850769700,1.881769775390625,0.004690011963248253,0.003563882317394018,-0.0036263244692236185
1772702911860819700,1.89181982421875,0.003019598312675953,0.002925603650510311,-0.0036995476111769676
1772702911870869800,1.901869873046875,0.005681161768734455,0.0034257452934980392,-0.006501459050923586
1772702911880919800,1.911919921875,0.003418161068111658,0.0009851870127022266,-0.001686959178186953
1772702911890969900,1.921969970703125,0.002216809196397662,-0.001737894956022501,-0.0023165305610746145
1772702911901020700,1.932020751953125,0.00010445795487612486,-0.006752990186214447,-0.006232858169823885
1772702911911070700,1.94207080078125,0.0023497689981013536,-0.008010534569621086,-0.0035057812929153442
1772702911921120800,1.952120849609375,0.0025297438260167837,-0.0040694717317819595,-0.005030155647546053
1772702911931170800,1.9621708984375,0.001564081641845405,-0.001040925271809101,-0.006812342908233404
1772702911941220900,1.972220947265625,0.0014218221185728908,0.002423311583697796,-0.0010679505066946149
1772702911951271000,1.98227099609375,0.004682330414652824,0.0056819552555680275,0.0015041305450722575
1772702911961321700,1.99232177734375,0.0027298021595925093,0.010608689859509468,0.0016189395682886243
1772702911971371800,2.002371826171875,0.004749277140945196,0.012696607038378716,0.00005140292341820896
1772702911981421800,2.012421875,0.002110227709636092,0.008223243057727814,-0.0005644176853820682
1772702911991471900,2.022471923828125,0.003308650106191635,0.00707435654476285,0.003952569793909788
1772702912001522000,2.03252197265625,-0.002290064701810479,0.004250347148627043,-0.0007084484677761793
1772702912011572000,2.042572021484375,-0.0022107025142759085,-0.0031263423152267933,-0.00013959725038148463
1772702912021622800,2.052622802734375,-0.0021977147553116083,-0.0006134104914963245,-0.00041648183832876384
1772702912031672800,2.0626728515625,-0.005134382285177708,0.0022691949270665646,-0.002234089421108365
1772702912041723000,2.072722900390625,-0.0019316032994538546,0.0036426144652068615,0.003999221604317427
1772702912051773000,2.08277294921875,-0.001943853683769703,0.001502497587352991,0.001740860752761364
1772702912061822700,2.09282275390625,-0.00007526122499257326,0.005271849222481251,0.0011452751932665706
1772702912071873800,2.102873779296875,-0.004568280652165413,0.009610404260456562,0.0008291579433716834
1772702912081923800,2.112923828125,-0.0031091845594346523,0.010239966213703156,0.0020088916644454002
1772702912091974000,2.122973876953125,-0.0012098182924091816,0.011037316173315048,0.000058658712077885866
1772702912102024000,2.13302392578125,-0.0009622809011489153,0.0067924321629107,0.003199623432010412
1772702912112073200,2.1430732421875,-0.003492816584184766,0.006101608742028475,0.007354953326284885
1772702912122123300,2.153123291015625,-0.00272134761326015,0.000573944766074419,0.004538614768534899
1772702912132174300,2.16317431640625,-0.004255594685673714,0.0002061617560684681,0.001516725867986679
1772702912142224400,2.173224365234375,-0.004358070902526379,0.001635096501559019,-0.00035123436828143895
1772702912152274400,2.1832744140625,-0.004025442525744438,0.004095857497304678,0.005606256891041994
1772702912162324200,2.19332421875,-0.004347282461822033,0.00233105244114995,-0.0009656582260504365
1772702912172374300,2.203374267578125,-0.003099324880167842,0.003980613779276609,0.0005819046054966748
1772702912182424300,2.21342431640625,-0.0033601033501327038,0.006750951521098614,0.0014296078588813543
1772702912192475400,2.223475341796875,-0.0023760651238262653,0.002581239677965641,0.001319086761213839
1772702912202525400,2.233525390625,-0.004368067253381014,0.003353421576321125,0.0018648798577487469
1772702912212575200,2.2435751953125,-0.0022021185141056776,0.004944393411278725,0.003215368837118149
1772702912222625300,2.253625244140625,-0.00080874003469944,0.010629462078213692,0.0025944553781300783
1772702912232675300,2.26367529296875,-0.0043675219640135765,0.01152108795940876,0.006294651422649622
1772702912242726400,2.273726318359375,-0.0029921976383775473,0.00935637392103672,0.004733889829367399
1772702912252776400,2.2837763671875,-0.0003732452169060707,0.005214359611272812,0.0030555655248463154
1772702912262826200,2.293826171875,0.0005936623783782125,-0.0017706416547298431,0.000539223721716553
1772702912272876300,2.303876220703125,0.00185360386967659,0.000777204055339098,0.00006677894270978868
1772702912282926300,2.31392626953125,0.003357372712343931,0.005139017943292856,0.005965783726423979
1772702912292976400,2.323976318359375,0.003591997316107154,0.007195244077593088,0.005127154290676117
1772702912303027200,2.334027099609375,-0.000021632644347846508,0.010159095749258995,0.003555758623406291
1772702912313077200,2.3440771484375,-0.0007500073406845331,0.011818777769804,0.005969648249447346
1772702912323127300,2.354127197265625,-0.0015627490356564522,0.009988801553845406,0.005942198447883129
1772702912333177300,2.36417724609375,-0.0004841687623411417,0.004841977264732122,0.0021192305721342564
1772702912343227400,2.374227294921875,-0.002415753435343504,0.001833280548453331,0.0031609940342605114
1772702912353277200,2.384277099609375,-0.0026346652302891016,-0.00029511749744415283,0.00021820110850967467
1772702912363328300,2.394328369140625,0.0022565522231161594,-0.001481139101088047,-0.00041565028368495405
1772702912373378300,2.40437841796875,-0.00043244147673249245,0.0008565834723412991,0.0012083454057574272
1772702912383428400,2.414428466796875,0.0022657366935163736,0.00048473523929715157,0.001729824929498136
1772702912393478100,2.42447802734375,0.006934258155524731,0.00840391218662262,0.003538643941283226
1772702912403528200,2.434528076171875,0.0023640880826860666,0.009522093459963799,0.00220518559217453
1772702912413578200,2.444578125,0.004857339430600405,0.0018002577126026154,0.0019713600631803274
1772702912423629300,2.45462939453125,0.0072664786130189896,-0.001014836598187685,-0.0026616295799613
1772702912433679400,2.464679443359375,0.005535690113902092,-0.005481756292283535,-0.0014706639340147376
1772702912443729200,2.474729248046875,0.008314376696944237,-0.009615134447813034,-0.004487739875912666
1772702912453779200,2.484779296875,0.00800012331455946,-0.009869731962680817,-0.008242798037827015
1772702912463829200,2.494829345703125,0.007391324732452631,-0.01184446644037962,-0.008653457276523113
1772702912473880300,2.50488037109375,0.005683705676347017,-0.010334720835089684,-0.01169798243790865
1772702912483930400,2.514930419921875,0.009581316262483597,-0.008257675915956497,-0.010181261226534843
1772702912493980200,2.524980224609375,0.008924581110477448,-0.010064364410936832,-0.0074453954584896564
1772702912504030200,2.5350302734375,0.009137218818068504,-0.008085457608103752,-0.00854804739356041
1772702912514080300,2.545080322265625,0.009450141340494156,-0.00506197102367878,-0.009249524213373661
1772702912524130300,2.55513037109375,0.00824646558612585,-0.007545325439423323,-0.007147439289838076
1772702912534181400,2.565181396484375,0.008286945521831512,-0.0060198670253157616,-0.0038813387509435415
1772702912544231200,2.575231201171875,0.008119501173496246,-0.004538448061794043,-0.004066844470798969
1772702912554281200,2.58528125,0.006151158828288317,-0.0026601203717291355,-0.003936083056032658
1772702912564331300,2.595331298828125,0.007661635521799326,-0.0031061023473739624,-0.0004152343899477273
1772702912574381300,2.60538134765625,0.007170815020799637,-0.0033862669952213764,-0.0038869313430041075
1772702912584431000,2.61543115234375,0.004774434491991997,-0.003580579999834299,-0.004807170480489731
1772702912594482200,2.625482177734375,0.004781625233590603,-0.006567315198481083,-0.0056426040828228
1772702912604532200,2.6355322265625,0.0037071697879582644,-0.010284893214702606,-0.0070665632374584675
1772702912614582300,2.645582275390625,0.003179331310093403,-0.005120490677654743,-0.00348727498203516
1772702912624632300,2.65563232421875,0.002838069573044777,-0.003166030626744032,-0.0026542001869529486
1772702912634682000,2.66568212890625,0.002088389825075865,-0.0014211274683475494,-0.0015854736557230353
1772702912644733200,2.675733154296875,0.005694222636520863,0.0005586030893027782,0.0012157181045040488
1772702912654783200,2.685783203125,0.004159708973020315,0.0013037552125751972,-0.0004354417906142771
1772702912664833300,2.695833251953125,0.004583628848195076,0.001691626850515604,-0.0008378265192732215
1772702912674883300,2.70588330078125,0.00414287531748414,0.0014301049523055553,0.0014386435505002737
1772702912684933000,2.71593310546875,0.0018620893824845552,0.0023258430883288383,-0.00046922595356591046
1772702912694983200,2.725983154296875,-0.00044980074744671583,0.0015372810885310173,0.002470371313393116
1772702912705034200,2.7360341796875,0.00010038865730166435,-0.0013265782035887241,-0.0004117723146919161
1772702912715084300,2.746084228515625,-0.0017403883393853903,0.00041433004662394524,0.0019270157208666205
1772702912725134300,2.75613427734375,0.00016561709344387054,0.000379213597625494,0.0029996968805789948
1772702912735184100,2.76618408203125,-0.0017433366738259792,-0.0020671659149229527,-0.001081597525626421
1772702912745234200,2.776234130859375,-0.0008896933868527412,0.0026579643599689007,0.00048516664537601173
1772702912755284200,2.7862841796875,-0.002151499269530177,0.0018648752011358738,0.001335247652605176
1772702912765335300,2.796335205078125,-0.0028563267551362514,0.008084457367658615,0.00148301525041461
1772702912775385300,2.80638525390625,-0.0026230337098240852,0.012160692363977432,0.005044194404035807
1772702912785435100,2.81643505859375,-0.0049036163836717606,0.013562668114900589,0.005135111045092344
1772702912795485200,2.826485107421875,-0.005708689801394939,0.011291258037090302,0.003855994902551174
1772702912805535200,2.83653515625,-0.0040045809000730515,0.011781007051467896,0.006384620442986488
1772702912815585300,2.846585205078125,-0.0028405135963112116,0.009595351293683052,0.005458373110741377
1772702912825636400,2.85663623046875,-0.00647808937355876,0.007793443277478218,0.0070713600143790245
1772702912835686100,2.86668603515625,-0.00651031406596303,0.0021986747160553932,0.006299575790762901
1772702912845736200,2.876736083984375,-0.004030631855130196,0.0004175710491836071,0.009408153593540192
1772702912855786200,2.8867861328125,-0.006609637290239334,0.0013331654481589794,0.006609437055885792
1772702912865836300,2.896836181640625,-0.004129838198423386,0.007380067836493254,0.006973523646593094
1772702912875887000,2.90688720703125,-0.0041588665917515755,0.006330249365419149,0.002289289841428399
1772702912885937200,2.916937255859375,-0.0034361465368419886,0.005904916673898697,0.004204187076538801
1772702912895987200,2.9269873046875,-0.004847622476518154,0.005721425637602806,0.00836324505507946
1772702912906037200,2.937037353515625,-0.0030321383383125067,0.0036392430774867535,0.004293337464332581
1772702912916087000,2.947087158203125,-0.0013048120308667421,0.0026221810840070248,0.006650501396507025
1772702912926137000,2.95713720703125,-0.0009472989477217197,0.005243973340839148,0.0042985607869923115
1772702912936188200,2.967188232421875,-0.0023097721859812737,0.009470675140619278,0.002195728709921241
1772702912946238200,2.97723828125,-0.001466937130317092,0.01196484174579382,0.004894595127552748
1772702912956288300,2.987288330078125,-0.0016826530918478966,0.010426067747175694,0.0025616660714149475
1772702912966338000,2.997338134765625,-0.0031746241729706526,0.0046929121017456055,0.004827899392694235
1772702912976388000,3.00738818359375,-0.00282867974601686,0.0015461212024092674,0.006937655620276928
1772702912986438400,3.0174384765625,-0.0019624338019639254,0.0045470502227544785,0.008080963976681232
1772702912996489200,3.0274892578125,0.0004368078662082553,0.011433451436460018,0.0070529840886592865
1772702913006539300,3.037539306640625,0.00233811279758811,0.010307244956493378,0.006084709893912077
1772702913016589000,3.047589111328125,0.0041322847828269005,0.00809975154697895,0.007938270457088947
1772702913026639000,3.05763916015625,-0.00307488557882607,0.008522342890501022,0.007162926252931356
1772702913036689400,3.067689453125,-0.002495115390047431,0.0027470113709568977,0.006785023491829634
1772702913046740200,3.077740234375,-0.004895026795566082,0.0007136175408959389,0.0064409757032990456
1772702913056790300,3.087790283203125,-0.0029706263449043036,0.003053470514714718,0.0037368021439760923
1772702913066840000,3.097840087890625,-0.0027690990827977657,0.0023538130335509777,0.001817143987864256
1772702913076890000,3.10789013671875,-0.001498504774644971,0.00018333690240979195,-0.002427401952445507
1772702913086940400,3.1179404296875,-0.0012886417098343372,-0.003561990801244974,0.00020986101299058646
1772702913096990500,3.127990478515625,0.0028754770755767822,-0.0012176097370684147,-0.0007749759824946523
1772702913107041300,3.138041259765625,0.0023888428695499897,-0.0020078145898878574,0.0017792102880775928
1772702913117091300,3.14809130859375,0.0033105630427598953,0.0005424288101494312,0.000179183145519346
1772702913127141400,3.158141357421875,0.005750755779445171,0.0006973971612751484,-0.0005025019636377692
1772702913137191400,3.16819140625,0.006691650487482548,0.00014425860717892647,-0.0011725532822310925
1772702913147241500,3.178241455078125,0.00697688851505518,0.00009607570245862007,-0.0008320653578266501
1772702913157291500,3.18829150390625,0.0070064496248960495,-0.005248622503131628,-0.0005449765594676137
1772702913167342300,3.19834228515625,0.0036772803869098425,-0.005874458234757185,0.0017810745630413294
1772702913177392400,3.208392333984375,0.0034714178182184696,-0.008271569386124611,-0.002055209130048752
1772702913187442400,3.2184423828125,0.0035223655868321657,-0.012670392170548439,-0.005165528506040573
1772702913197492500,3.228492431640625,0.0027977193240076303,-0.01592184416949749,-0.005126912612468004
1772702913207542500,3.23854248046875,0.005362658761441708,-0.01681692525744438,-0.005940994713455439
1772702913217593300,3.24859326171875,0.007705974392592907,-0.012640822678804398,-0.003892224747687578
1772702913227643400,3.258643310546875,0.004907284397631884,-0.004415611270815134,-0.002747859340161085
1772702913237693400,3.268693359375,0.008682048879563808,0.0002646278589963913,-0.003475168254226446
1772702913247743500,3.278743408203125,0.008097670041024685,-0.002718833740800619,-0.0010759131982922554
1772702913257793500,3.28879345703125,0.008154395036399364,-0.003294076770544052,0.0007054752786643803
1772702913267843600,3.298843505859375,0.007106701377779245,-0.004081449471414089,0.0014674708945676684
1772702913277894400,3.308894287109375,0.0020405699033290148,-0.006333418656140566,-0.002656700322404504
1772702913287944400,3.3189443359375,0.0041039930656552315,-0.0074384878389537334,-0.004663989879190922
1772702913297994500,3.328994384765625,0.0027393894270062447,-0.00823903363198042,-0.0030306733679026365
1772702913308044500,3.33904443359375,-0.001307939412072301,-0.007334676571190357,-0.005189263261854649
1772702913318094600,3.349094482421875,0.0011227276409044862,-0.008375972509384155,-0.0013838723534718156
1772702913328144600,3.35914453125,0.0027761287055909634,-0.004960967227816582,-0.0012400996638461947
1772702913338195500,3.369195556640625,0.0033889219630509615,0.00005642790347337723,0.0016459680628031492
1772702913348245500,3.37924560546875,0.0031043104827404022,0.00031201262027025223,-0.0004968249704688787
1772702913358295600,3.389295654296875,0.003961581736803055,0.00030082743614912033,0.0037277473602443933
1772702913368345600,3.399345703125,0.004970326088368893,0.0030648955143988132,0.0051193335093557835
1772702913378395600,3.409395751953125,0.0025961180217564106,0.001897898968309164,0.00048649823293089867
1772702913388445700,3.41944580078125,0.0005773053853772581,-0.007022430654615164,-0.0006173494621179998
1772702913398496500,3.42949658203125,0.0002135175745934248,-0.010451783426105976,-0.0028349636122584343
1772702913408546600,3.439546630859375,-0.0005817769560962915,-0.014378659427165985,-0.0016696157399564981
1772702913418596600,3.4495966796875,-0.0019501091446727514,-0.014447901397943497,-0.0029926742427051067
1772702913428646700,3.459646728515625,0.00009342271368950605,-0.01358204334974289,-0.0009165527881123126
1772702913438696700,3.46969677734375,-0.0009436120744794607,-0.007391258608549833,0.0026680619921535254
1772702913448747500,3.47974755859375,-0.0028071014676243067,-0.006172375287860632,0.00335830170661211
1772702913458797600,3.489797607421875,-0.0012765824794769287,0.002172640059143305,0.0022879773750901222
1772702913468847600,3.49984765625,-0.0028897577431052923,-0.002611276227980852,0.00530927674844861
1772702913478897700,3.509897705078125,-0.0053955260664224625,0.0003283214755356312,0.0063148862682282925
1772702913488947700,3.51994775390625,-0.004156401846557856,-0.0033658850006759167,0.001663830247707665
1772702913498997500,3.52999755859375,-0.008290693163871765,-0.007807505317032337,0.005162158515304327
1772702913509048600,3.540048583984375,-0.006830680184066296,-0.009215082973241806,0.0033979311119765043
1772702913519098600,3.5500986328125,-0.007105518132448196,-0.008909352123737335,0.005290106870234013
1772702913529148700,3.560148681640625,-0.007699198089540005,-0.001551330555230379,0.008421270176768303
1772702913539198700,3.57019873046875,-0.005638711154460907,0.0014351382851600647,0.006746141705662012
1772702913549248500,3.58024853515625,-0.0051981001161038876,-0.0001509878784418106,0.004772037733346224
1772702913559298600,3.590298583984375,-0.006380277220159769,0.0009696702472865582,0.005483102053403854
1772702913569349600,3.600349609375,-0.007606991566717625,0.003256766591221094,0.0027340049855411053
1772702913579399700,3.610399658203125,-0.0062455832958221436,0.0015747142024338245,0.00037071594852022827
1772702913589449500,3.620449462890625,-0.005531657952815294,0.0018624323420226574,0.002692342968657613
1772702913599499500,3.63049951171875,-0.007166040129959583,0.0038017467595636845,0.007847423665225506
1772702913609549600,3.640549560546875,-0.01117157656699419,0.008745159953832626,0.0020708590745925903
1772702913619600600,3.6506005859375,-0.009224006906151772,0.008185096085071564,0.0031212097965180874
1772702913629650700,3.660650634765625,-0.0075537897646427155,0.005441864021122456,0.0039801825769245625
1772702913639700500,3.670700439453125,-0.009384713135659695,0.0033736536279320717,0.005657441448420286
1772702913649750500,3.68075048828125,-0.008444822393357754,0.0013595311902463436,0.003028018167242408
1772702913659800600,3.690800537109375,-0.008947893045842648,0.007553777191787958,0.0016069553093984723
1772702913669850600,3.7008505859375,-0.011708730831742287,0.01405111700296402,0.003715828526765108
1772702913679901700,3.710901611328125,-0.010458908975124359,0.015653274953365326,0.00350011233240366
1772702913689951500,3.720951416015625,-0.010574613697826862,0.006309522315859795,0.009633274748921394
1772702913700001500,3.73100146484375,-0.008263521827757359,0.006112447939813137,0.010487084276974201
1772702913710051600,3.741051513671875,-0.009134388528764248,0.007476500701159239,0.0017176913097500801
1772702913720101600,3.7511015625,-0.009621746838092804,0.014232674613595009,-0.000030940253054723144
1772702913730151400,3.7611513671875,-0.009168346412479877,0.01719856634736061,0.0010543304961174726
1772702913740202500,3.771202392578125,-0.011087420396506786,0.009046895429491997,-0.002689807675778866
1772702913750252500,3.78125244140625,-0.011690955609083176,0.003847047220915556,-0.00405619153752923
1772702913760302600,3.791302490234375,-0.01249469630420208,0.0034523666836321354,-0.008743355050683022
1772702913770352600,3.8013525390625,-0.008870257996022701,0.0062084197998046875,-0.0065338280983269215
1772702913780402400,3.81140234375,-0.01214674487709999,0.006912292912602425,-0.00913333985954523
1772702913790452500,3.821452392578125,-0.014753399416804314,0.0073232268914580345,-0.011257695965468884
1772702913800503600,3.831503662109375,-0.013118749484419823,0.005155414342880249,-0.01046061236411333
1772702913810553600,3.8415537109375,-0.008839774876832962,0.007243643049150705,-0.011308245360851288
1772702913820603600,3.851603759765625,-0.006371024530380964,0.015302103012800217,-0.009231512434780598
1772702913830653400,3.8616533203125,-0.007322825025767088,0.017333313822746277,-0.00978291779756546
1772702913840703500,3.871703369140625,-0.0048085348680615425,0.016080031171441078,-0.008508328348398209
1772702913850753500,3.88175341796875,-0.003959723748266697,0.015767401084303856,-0.005134986247867346
1772702913860804600,3.8918046875,-0.0037996682804077864,0.01422622986137867,-0.006160569842904806
1772702913870854700,3.901854736328125,-0.006524881348013878,0.007374183274805546,-0.00672569265589118
1772702913880904400,3.911904541015625,-0.005986389704048634,0.0004595518112182617,-0.0016904538497328758
1772702913890954500,3.92195458984375,-0.005846988409757614,0.0003492068499326706,-0.005871719680726528
1772702913901004500,3.932004638671875,-0.007858740165829659,-0.003001582343131304,-0.007782271597534418
1772702913911055600,3.9420556640625,-0.006052783224731684,-0.0024014031514525414,-0.007899866439402103
1772702913921105700,3.952105712890625,-0.006365438457578421,-0.004343646578490734,-0.008894823491573334
1772702913931155500,3.962155517578125,-0.004559202119708061,-0.0011508618481457233,-0.007939561270177364
1772702913941205500,3.97220556640625,-0.0032766235526651144,0.0006134826689958572,-0.01062216330319643
1772702913951255600,3.982255615234375,0.0002489191247150302,0.0034287190064787865,-0.010526243597269058
1772702913961305600,3.9923056640625,0.0033355229534208775,0.0050721559673547745,-0.007304617203772068
1772702913971356700,4.002356689453125,0.0028228964656591415,0.004996168427169323,-0.004722209647297859
1772702913981406500,4.012406494140625,0.0012907800264656544,0.002698926255106926,-0.004582660272717476
1772702913991456500,4.02245654296875,0.001232449896633625,0.003483882639557123,-0.0033594053238630295
1772702914001506600,4.032506591796875,0.0015906450571492314,-0.00340944342315197,-0.004023863933980465
1772702914011556600,4.042556640625,-0.0009655936155468225,-0.006205834448337555,-0.006116809323430061
1772702914021606400,4.0526064453125,-0.002273205667734146,-0.0049597411416471004,-0.00869608111679554
1772702914031657500,4.062657470703125,-0.0015879934653639793,0.0007091686129570007,-0.005692638456821442
1772702914041707500,4.07270751953125,-0.0006087492220103741,-0.0018314868211746216,-0.0017000274965539575
1772702914051757600,4.082757568359375,0.004609467927366495,0.0015034847892820835,-0.0006602589273825288
1772702914061807600,4.0928076171875,0.004315454512834549,0.002847847994416952,-0.002535657025873661
1772702914071857400,4.102857421875,-0.0008244588971138,0.006244957912713289,0.0005084666190668941
1772702914081908500,4.112908447265625,-0.0009352462366223335,0.006539769005030394,0.0033399395179003477
1772702914091958500,4.12295849609375,0.002279871143400669,0.007756924722343683,0.0046468558721244335
1772702914102008600,4.133008544921875,0.0017847894923761487,0.01025124080479145,0.003731261007487774
1772702914112059000,4.143058837890625,0.0024517131969332695,0.0026880325749516487,0.006304524373263121
1772702914122109000,4.15310888671875,0.0005709888646379113,0.0022787051275372505,-0.0010149076115339994
1772702914132159000,4.163158935546875,-0.0011553945951163769,0.0022818506695330143,0.0019525550305843353
1772702914142210000,4.1732099609375,0.00036473781801760197,-0.001432726625353098,0.0009418855188414454
1772702914152259800,4.183259765625,-0.00048237270675599575,-0.0019756173714995384,-0.00174779596272856
1772702914162310000,4.193309814453125,0.002867617644369602,-0.002090133260935545,-0.0022226376459002495
1772702914172360000,4.20335986328125,0.0010579995578154922,0.0009671752341091633,0.0010562462266534567
1772702914182410000,4.213409912109375,0.0017778584733605385,0.004321304149925709,0.0005533761577680707
1772702914192459800,4.223459716796875,0.00334625574760139,0.011381369084119797,0.0016747491899877787
1772702914202510800,4.2335107421875,0.0015835093799978495,0.005423611495643854,-0.001260853256098926
1772702914212561000,4.243560791015625,0.0038994625210762024,0.0005781599320471287,-0.0033859391696751118
1772702914222611000,4.25361083984375,0.0005015352508053184,-0.0013845902867615223,-0.0010101330699399114
1772702914232661000,4.263660888671875,0.0009922812459990382,-0.0004996666684746742,-0.0016498758923262358
1772702914242710800,4.273710693359375,0.00031557201873511076,0.0030284891836345196,-0.0025324474554508924
1772702914252760800,4.2837607421875,-0.0013807052746415138,0.002814338542521,-0.0019891243427991867
1772702914262812000,4.29381201171875,-0.0008544647134840488,0.00021615810692310333,-0.000027972710086032748
1772702914272862000,4.303862060546875,-0.0015361239202320576,-0.0030480450950562954,-0.00033454064396210015
1772702914282912000,4.313912109375,-0.004630716983228922,0.004420257639139891,-0.00093082245439291
1772702914292961800,4.3239619140625,-0.004554816987365484,0.0002926238812506199,0.0020436623599380255
1772702914303011800,4.33401171875,-0.004857884719967842,-0.0027247373946011066,0.0034825680777430534
1772702914313062000,4.344061767578125,-0.009536758065223694,-0.0009002885781228542,0.0019826162606477737
1772702914323113000,4.354113037109375,-0.006010732613503933,0.0035727564245462418,0.000849707517772913
1772702914333163000,4.3641630859375,-0.006174319423735142,0.008236314170062542,0.0023361670318990946
1772702914343212800,4.374212890625,-0.005308259278535843,0.009142321534454823,0.001576367300003767
1772702914353262800,4.384262939453125,-0.005568403750658035,0.012677140533924103,0.0071299029514193535
1772702914363313000,4.39431298828125,-0.008409730158746243,0.011430248618125916,0.004638515878468752
1772702914373364000,4.404364013671875,-0.00906960479915142,0.012210438027977943,0.008894494734704494
1772702914383414000,4.4144140625,-0.011689357459545135,0.012926297262310982,0.008304071612656116
1772702914393463800,4.4244638671875,-0.011332808062434196,0.015091173350811005,0.006800138391554356
1772702914403513900,4.434513916015625,-0.012752007693052292,0.012186996638774872,0.008319738321006298
1772702914413564000,4.44456396484375,-0.010099591687321663,0.00459358561784029,0.005478023085743189
1772702914423614000,4.454614013671875,-0.010643942281603813,0.0053488584235310555,0.0061472756788134575
1772702914433665000,4.4646650390625,-0.006006431765854359,0.00753566762432456,0.008477378636598587
1772702914443714800,4.47471484375,-0.008514863438904285,0.011232135817408562,0.010546920821070671
1772702914453764900,4.484764892578125,-0.006670753471553326,0.008909930475056171,0.010894962586462498
1772702914463815000,4.49481494140625,-0.0077104512602090836,0.01777026802301407,0.009900538250803947
1772702914473865000,4.504864990234375,-0.012591267004609108,0.01559620164334774,0.013050947338342667
1772702914483914800,4.514914794921875,-0.011005355045199394,0.011616373434662819,0.013409675098955631
1772702914493965800,4.5249658203125,-0.013818999752402306,0.01081660483032465,0.009840903803706169
1772702914504016000,4.535015869140625,-0.011790202930569649,0.007664221338927746,0.011350383050739765
1772702914514066000,4.54506591796875,-0.008233818225562572,0.006444226950407028,0.011089925654232502
1772702914524116000,4.555115966796875,-0.007590664550662041,0.004764305427670479,0.011124280281364918
1772702914534165800,4.565165771484375,-0.0057943761348724365,0.01061578281223774,0.013666664250195026
1772702914544215800,4.5752158203125,-0.0015748634468764067,0.010951606556773186,0.010816283524036407
1772702914554267000,4.585266845703125,-0.005364254117012024,0.009860407561063766,0.012369776144623756
1772702914564317000,4.59531689453125,-0.003900048555806279,0.005626514088362455,0.013517864979803562
1772702914574367000,4.605366943359375,-0.003595552407205105,0.004908006638288498,0.005561497062444687
1772702914584416800,4.615416748046875,-0.0025705015286803246,0.0015945015475153923,0.012462813407182693
1772702914594466800,4.625466796875,-0.0032731734681874514,0.0018094894476234913,0.008674166165292263
1772702914604516900,4.635516845703125,-0.004214068874716759,-0.004062247928231955,0.006595836021006107
1772702914614568000,4.64556787109375,-0.00010334316175431013,-0.004703199956566095,0.00479896878823638
1772702914624618000,4.655617919921875,0.0010226413141936064,-0.011231140233576298,0.00022392426035366952
1772702914634667800,4.665667724609375,0.002095047850161791,-0.012062320485711098,0.0007365364581346512
1772702914644717800,4.6757177734375,0.007291673682630062,-0.014111623167991638,0.0021962150931358337
1772702914654767900,4.685767822265625,0.009276200085878372,-0.014492213726043701,0.00010198954259976745
1772702914664818200,4.695818115234375,0.008524656295776367,-0.011694297194480896,0.001504942774772644
1772702914674868700,4.70586865234375,0.009424927644431591,-0.008511235937476158,0.0002850464661605656
1772702914684918800,4.715918701171875,0.011323228478431702,-0.004018749110400677,0.001910373684950173
1772702914694968800,4.72596875,0.010595442727208138,-0.004806095734238625,0.0010003524366766214
1772702914705019000,4.736018798828125,0.008554395288228989,-0.01275563146919012,-0.0009149929974228144
1772702914715069000,4.74606884765625,0.007468705996870995,-0.01586708053946495,-0.0012990343384444714
1772702914725119000,4.756118896484375,0.008706542663276196,-0.01663992926478386,-0.0017717452719807625
1772702914735169800,4.766169677734375,0.0065185511484742165,-0.01916591264307499,-0.003657613880932331
1772702914745219800,4.7762197265625,0.005731853656470776,-0.01729610748589039,0.0007959901122376323
1772702914755270000,4.786269775390625,0.007489793933928013,-0.016953110694885254,0.0014153055381029844
1772702914765320000,4.79631982421875,0.008805927820503712,-0.015513138845562935,0.0013881414197385311
1772702914775370000,4.806369873046875,0.006931737996637821,-0.016426390036940575,0.007223029155284166
1772702914785420800,4.8164208984375,0.008261454291641712,-0.011724046431481838,0.0038155147340148687
1772702914795470800,4.826470947265625,0.007249664049595594,-0.00816754437983036,0.004681860096752644
1772702914805521000,4.83652099609375,0.010154107585549355,-0.00807593110948801,0.003890368854627013
1772702914815571000,4.846571044921875,0.00954104121774435,-0.00915119331330061,0.0071208481676876545
1772702914825621000,4.85662109375,0.007388141006231308,-0.007876338437199593,0.008623137138783932
1772702914835671000,4.866671142578125,0.006635463796555996,-0.004644228145480156,0.0032210645731538534
1772702914845721900,4.876721923828125,0.008203267119824886,-0.00867545511573553,0.0073329852893948555
1772702914855772000,4.88677197265625,0.0060456860810518265,-0.01029329001903534,0.005886850878596306
1772702914865822000,4.896822021484375,0.00612558051943779,-0.009761190041899681,0.006398177705705166
1772702914875872000,4.9068720703125,0.006989726331084967,-0.00884320866316557,0.003514194395393133
1772702914885922000,4.916922119140625,0.011368495412170887,-0.011265086941421032,0.008820276707410812
1772702914895972000,4.92697216796875,0.006824113428592682,-0.008458195254206657,0.006713656708598137
1772702914906023000,4.93702294921875,0.007531981915235519,-0.005414201878011227,0.0062990025617182255
1772702914916073000,4.947072998046875,0.00716716144233942,-0.0021515805274248123,0.0055636134929955006
1772702914926123000,4.957123046875,0.007459576241672039,-0.003542016725987196,0.0050458949990570545
1772702914936173000,4.967173095703125,0.006473626010119915,-0.0025518592447042465,0.006384886801242828
1772702914946223000,4.97722314453125,0.005834734067320824,-0.005054964683949947,0.002744611818343401
1772702914956273000,4.98727294921875,0.0025805351324379444,-0.00848557148128748,0.002006663242354989
1772702914966324000,4.997323974609375,0.0028537753969430923,-0.007963325828313828,0.004026138223707676
1772702914976374000,5.0073740234375,0.0021310686133801937,-0.004169074352830648,0.0009004378225654364
1772702914986424000,5.017424072265625,0.0029758233577013016,-0.004964027553796768,0.0005238668527454138
1772702914996474000,5.02747412109375,0.000960719829890877,-0.006915558595210314,0.0011581938015297055
1772702915006524000,5.03752392578125,-0.0004504892276600003,-0.008363253436982632,-0.0030008647590875626
1772702915016574000,5.047573974609375,-0.005652435589581728,-0.001687631942331791,-0.005512291099876165
1772702915026625000,5.057625,0.003867832710966468,-0.022153757512569427,-0.005970887374132872
1772702915036675000,5.067675048828125,-0.0017999685369431973,0.005358000751584768,-0.006854706443846226
1772702915046725000,5.07772509765625,0.00008448422886431217,0.004933493677526712,-0.007246457505971193
1772702915056775000,5.08777490234375,-0.0034126972313970327,-0.010764054954051971,-0.009218009188771248
1772702915066825000,5.097824951171875,0.00007444585207849741,0.00548974983394146,-0.006727687083184719
1772702915076876000,5.1078759765625,-0.0026665611658245325,0.013912340626120567,-0.00624670647084713
1772702915086926000,5.117926025390625,-0.0023176870308816433,0.00965394638478756,-0.00692634517326951
1772702915096976100,5.12797607421875,-0.005886453203856945,0.008974644355475903,-0.005067225079983473
1772702915107026000,5.13802587890625,-0.007590076886117458,0.010234319604933262,-0.0023220388684421778
1772702915117075200,5.1480751953125,-0.00393447931855917,0.008276047185063362,-0.00570088904350996
1772702915127125200,5.158125244140625,-0.0042695049196481705,0.008096816018223763,-0.004377563949674368
1772702915137176300,5.16817626953125,-0.004406595602631569,0.010844159871339798,-0.002091324655339122
1772702915147226400,5.178226318359375,-0.004281959496438503,0.02138388529419899,-0.00029475631890818477
1772702915157276200,5.188276123046875,-0.0056992871686816216,0.026276253163814545,-0.0019265402806922793
1772702915167326200,5.198326171875,-0.009198681451380253,0.020852725952863693,0.0028303982689976692
1772702915177376300,5.208376220703125,-0.008320247754454613,0.0207302737981081,0.00343050598166883
1772702915187426300,5.21842626953125,-0.010294714942574501,0.02053692750632763,0.0012744107516482472
1772702915197477400,5.228477294921875,-0.01363112311810255,0.023102616891264915,-0.0020827699918299913
1772702915207527200,5.238527099609375,-0.014864698983728886,0.018710797652602196,-0.0013786302879452705
1772702915217577200,5.2485771484375,-0.012519463896751404,0.014187568798661232,-0.002087582601234317
1772702915227627300,5.258627197265625,-0.01274077221751213,0.018133575096726418,-0.002240181900560856
1772702915237677300,5.26867724609375,-0.010441393591463566,0.017383238300681114,-0.004262119065970182
1772702915247727000,5.27872705078125,-0.00914683099836111,0.01945517770946026,-0.001050346763804555
1772702915257778200,5.288778076171875,-0.007619501557201147,0.02029794454574585,-0.00003175291931256652
1772702915267828200,5.298828125,-0.006879142951220274,0.019613511860370636,-0.000726305297575891
1772702915277878300,5.308878173828125,-0.007051059044897556,0.018420202657580376,-0.0015176989836618304
1772702915287928300,5.31892822265625,-0.007983698509633541,0.021016517654061317,0.00033745908876881003
1772702915297978000,5.32897802734375,-0.005570800043642521,0.019419465214014053,-0.00488201854750514
1772702915308028200,5.339028076171875,-0.008359129540622234,0.013642536476254463,-0.006101746577769518
1772702915318078200,5.349078125,-0.009639590047299862,0.008091690018773079,-0.005808135494589806
1772702915328129300,5.35912939453125,-0.0054914504289627075,0.007338016759604216,-0.009016179479658604
1772702915338179300,5.369179443359375,-0.0063402485102415085,0.0037374156527221203,-0.011998167261481285
1772702915348229000,5.37922900390625,-0.004637689329683781,0.002738464158028364,-0.006814323831349611
1772702915358279200,5.389279052734375,-0.0042069884948432446,0.004288326017558575,-0.00288977287709713
1772702915368329200,5.3993291015625,-0.004539883695542812,0.008095847442746162,-0.002450617728754878
1772702915378379300,5.409379150390625,-0.00214478000998497,0.014121035113930702,0.0015836363891139627
1772702915388430300,5.419430419921875,0.0007854962022975087,0.018399937078356743,0.002466208068653941
1772702915398480100,5.429480224609375,-0.00031093950383365154,0.019021233543753624,0.010590577498078346
1772702915408530200,5.4395302734375,0.0005545878084376454,0.012852020561695099,0.007666959427297115
1772702915418580200,5.449580322265625,-0.0013886720407754183,0.010805319994688034,0.004660593345761299
1772702915428630300,5.45963037109375,-0.001620100811123848,0.00964338332414627,0.005909882485866547
1772702915438680000,5.46968017578125,-0.0021139346063137054,0.007553142495453358,0.003996680490672588
1772702915448731100,5.479731201171875,-0.0042085107415914536,0.005026068538427353,0.003331955522298813
1772702915458781200,5.48978125,-0.0010061964858323336,0.002368427813053131,0.007456958293914795
1772702915468831200,5.499831298828125,-0.005067250691354275,0.0017998423427343369,0.006397819146513939
1772702915478881300,5.50988134765625,-0.0009336355142295361,0.0049445549957454205,0.005853833165019751
1772702915488931000,5.51993115234375,0.001380385016091168,0.010084722191095352,0.00654092850163579
1772702915498982100,5.529982177734375,0.0007580043165944517,0.014210226014256477,0.006222681142389774
1772702915509032200,5.5400322265625,0.0013465628726407886,0.01078912802040577,0.0039512705989181995
1772702915519082200,5.550082275390625,0.001425658818334341,0.01296173594892025,0.003049258142709732
1772702915529132300,5.56013232421875,0.0011742564383894205,0.013713546097278595,-0.00012522988254204392
1772702915539182000,5.57018212890625,0.00235356530174613,0.008800571784377098,0.0014677888248115778
1772702915549232000,5.580232177734375,-0.001067531295120716,0.0025570569559931755,-0.0026563822757452726
1772702915559283200,5.590283203125,0.000489402562379837,0.005797866731882095,-0.0056207007728517056
1772702915569333200,5.600333251953125,0.00007501477375626564,0.0001719389110803604,-0.004137586336582899
1772702915579383300,5.61038330078125,-0.0014828408602625132,0.0015122471377253532,-0.009199867025017738
1772702915589433000,5.62043310546875,-0.002718814183026552,0.003913353197276592,-0.007578800432384014
1772702915599483100,5.630483154296875,-0.000047335634008049965,0.0043706432916224,-0.002805701456964016
1772702915609533200,5.640533203125,-0.0010103345848619938,0.0033796816132962704,-0.003835545852780342
1772702915619584300,5.650584228515625,-0.000999899348244071,0.00036605680361390114,-0.004793970845639706
1772702915629634300,5.66063427734375,-0.0029373487923294306,-0.0018190671689808369,-0.0016764748143032193
1772702915639684000,5.67068408203125,0.0010416992008686066,0.00003731716424226761,-0.0027094443794339895
1772702915649734100,5.680734130859375,0.0002467455342411995,-0.007972406223416328,-0.0004295122344046831
1772702915659785200,5.69078515625,-0.001007486367598176,-0.009493427351117134,0.0000694609188940376
1772702915669835300,5.700835205078125,-0.0010916423052549362,-0.011792268604040146,0.00034030439564958215
1772702915679885000,5.710885009765625,-0.0012890852522104979,-0.011668587103486061,0.0035424623638391495
1772702915689936100,5.72093603515625,-0.00036869675386697054,-0.003019704483449459,0.003615699242800474
1772702915699986200,5.730986083984375,0.0007010677945800126,-0.0010037319734692574,0.004802397917956114
1772702915710036200,5.7410361328125,-0.0021067028865218163,-0.00018800562247633934,0.005159794352948666
1772702915720086300,5.751086181640625,0.002601289190351963,-0.002535696607083082,0.004048970993608236
1772702915730136000,5.761135986328125,0.0009125788928940892,-0.0003790687769651413,0.00743864243850112
1772702915740186000,5.77118603515625,0.003937743604183197,0.001199305523186922,0.009269551374018192
1772702915750237200,5.7812373046875,0.004046667367219925,-0.004539806395769119,0.01126772165298462
1772702915760287200,5.791287353515625,0.0005104600568301976,-0.0010830489918589592,0.010370852425694466
1772702915770337300,5.801337158203125,0.0002539976267144084,0.00034680217504501343,0.0070866430178284645
1772702915780387000,5.811386962890625,0.000925941567402333,-0.003496363293379545,0.008220355957746506
1772702915790437000,5.82143701171875,-0.0007944605313241482,-0.007573662791401148,0.0024109366349875927
1772702915800488200,5.83148828125,0.004068505018949509,-0.005222108215093613,0.0015375963412225246
1772702915810538200,5.841538330078125,0.003439466468989849,-0.0029347194358706474,0.004709421191364527
1772702915820588300,5.85158837890625,0.0038572545163333416,0.003153241239488125,0.005755861289799213
1772702915830638000,5.86163818359375,0.0023784013465046883,0.011838874779641628,0.0015861501451581717
1772702915840688000,5.871688232421875,0.0041316901333630085,0.013459336012601852,0.005739648826420307
1772702915850738200,5.88173828125,0.0010693211806938052,0.01585884392261505,0.003913518972694874
1772702915860789200,5.891789306640625,-0.0022173540201038122,0.0159100741147995,0.01591626927256584
1772702915870839300,5.90183935546875,-0.0024141615722328424,0.007990632206201553,0.00871881004422903
1772702915880889000,5.91188916015625,-0.007280159275978804,-0.0006988001987338066,0.003290255321189761
1772702915890939100,5.921939208984375,-0.008272720500826836,-0.0006806906312704086,0.001979979919269681
1772702915900989200,5.9319892578125,-0.009457547217607498,-0.002096673473715782,0.002174526685848832
1772702915911039200,5.942039306640625,-0.007699061185121536,-0.00016401754692196846,-0.001988260308280587
1772702915921090300,5.95209033203125,-0.007968852296471596,-0.000030613038688898087,-0.004252349492162466
1772702915931140000,5.96214013671875,-0.005416213069111109,-0.0019483552314341068,-0.005009752698242664
1772702915941190100,5.972190185546875,-0.0050279730930924416,0.002569424919784069,-0.004054522607475519
1772702915951240200,5.982240234375,-0.005332638509571552,0.0072595179080963135,-0.0003535279247444123
1772702915961290200,5.992290283203125,-0.0029098850209265947,0.006610818672925234,-0.0017052966868504882
1772702915971341300,6.00234130859375,-0.004606851376593113,0.009002070873975754,-0.0010435011936351657
1772702915981391000,6.01239111328125,-0.004132495261728764,0.0061471667140722275,0.00025723266298882663
1772702915991441200,6.022441162109375,-0.0016416404396295547,0.001981716603040695,0.0017949419561773539
1772702916001491200,6.0324912109375,-0.004746093414723873,-0.0035636601969599724,0.0018005997408181429
1772702916011541200,6.042541259765625,-0.005914422683417797,-0.006870773620903492,0.000708970008417964
1772702916021591300,6.05259130859375,-0.0036472531501203775,-0.01111728698015213,0.0013564552646130323
1772702916031642000,6.06264208984375,-0.004470436833798885,-0.015283269807696342,0.005405525676906109
1772702916041692200,6.072692138671875,-0.004111769609153271,-0.008100749924778938,0.007821363396942616
1772702916051742200,6.0827421875,-0.0027447689790278673,0.0012117917649447918,0.011263765394687653
1772702916061792300,6.092792236328125,-0.00041725533083081245,0.004536149557679892,0.012796493247151375
1772702916071842300,6.10284228515625,-0.00020100665278732777,0.005782242398709059,0.010969830676913261
1772702916081892400,6.112892333984375,-0.003088118741288781,0.0065041230991482735,0.010317693464457989
1772702916091943200,6.122943115234375,-0.0018353681080043316,0.001832406036555767,0.010625554248690605
1772702916101993200,6.1329931640625,-0.00515992846339941,-0.00457416707649827,0.008643129840493202
1772702916112043800,6.143043701171875,-0.00035691773518919945,-0.005179237574338913,0.0037517021410167217
1772702916122093600,6.153093505859375,-0.007836516946554184,-0.007316787727177143,0.0014018032234162092
1772702916132143600,6.1631435546875,-0.009106578305363655,-0.006141268648207188,0.002664940431714058
1772702916142194000,6.17319384765625,-0.009210399352014065,-0.008282787166535854,0.00728959497064352
1772702916152244700,6.18324462890625,-0.0117052486166358,-0.0015918617136776447,0.0030093626119196415
1772702916162294800,6.193294677734375,-0.00905393436551094,0.0008671069517731667,0.0034415610134601593
1772702916172344600,6.203344482421875,-0.00817961897701025,-0.0028051258996129036,0.0020167697221040726
1772702916182394600,6.21339453125,-0.004102190025150776,-0.0006951750256121159,0.00546852545812726
1772702916192445000,6.22344482421875,-0.004819911904633045,-0.0013859993778169155,0.004902603570371866
1772702916202495000,6.233494873046875,-0.002953803865239024,-0.00007907208055257797,0.004972088150680065
1772702916212545800,6.2435458984375,-0.001939405919983983,-0.002464998047798872,0.003344097873196006
1772702916222595600,6.253595703125,-0.0026898605283349752,-0.00009048869833350182,0.004504708107560873
1772702916232645600,6.263645751953125,-0.0026850670110434294,-0.002435135655105114,0.0052208323031663895
1772702916242696000,6.273696044921875,-0.004339621402323246,-0.006308801472187042,0.0017660303274169564
1772702916252746000,6.28374609375,-0.006503173150122166,-0.011280656792223454,-0.003871881403028965
1772702916262796800,6.293796875,-0.0044054072350263596,-0.013702145777642727,-0.0011532616335898638
1772702916272846600,6.3038466796875,-0.00010440207552164793,-0.011928480118513107,-0.003007887164130807
1772702916282896600,6.313896728515625,-0.0019398394506424665,-0.015078181400895119,-0.004376083146780729
1772702916292946700,6.32394677734375,0.0021624937653541565,-0.013494931161403656,0.0003739308740478009
1772702916302997000,6.3339970703125,0.0026888642460107803,-0.009917312301695347,-0.0002345688408240676
1772702916313046800,6.344046875,0.001030780142173171,-0.0054437341168522835,0.0019548158161342144
1772702916323097600,6.35409765625,0.002729229163378477,-0.01027621328830719,0.005644995253533125
1772702916333147600,6.364147705078125,0.0016655625076964498,-0.014923695474863052,0.0049416543915867805
1772702916343197700,6.37419775390625,0.0012860476272180676,-0.014982573688030243,0.005183599889278412
1772702916353248000,6.384248046875,0.0014168088091537356,-0.011760415509343147,0.00622489582747221
1772702916363297800,6.3942978515625,0.0032798065803945065,-0.013935243710875511,0.0027919779531657696
1772702916373347800,6.404347900390625,0.00364758912473917,-0.0167549978941679,0.0033062342554330826
1772702916383398700,6.414398681640625,0.005641300231218338,-0.012854363769292831,0.002321780426427722
1772702916393448700,6.42444873046875,0.007314297370612621,-0.012543839402496815,0.002661333419382572
1772702916403498800,6.434498779296875,0.008271889761090279,-0.013753632083535194,0.0017532093916088343
1772702916413548800,6.444548828125,0.008105709217488766,-0.010944264009594917,0.001520449062809348
1772702916423598800,6.454598876953125,0.007307372987270355,-0.013950254768133163,0.0017734355060383677
1772702916433649700,6.464649658203125,0.010785462334752083,-0.02031813934445381,0.0012932675890624523
1772702916443699700,6.47469970703125,0.009543828666210175,-0.020632028579711914,0.0004444013466127217
1772702916453749800,6.484749755859375,0.00951986014842987,-0.021158268675208092,-0.0022451248951256275
1772702916463799800,6.4947998046875,0.010502448305487633,-0.019097689539194107,-0.007151629775762558
1772702916473849900,6.504849853515625,0.011280091479420662,-0.0192958302795887,-0.008063762448728085
1772702916483900000,6.51489990234375,0.012379772961139679,-0.0219363272190094,-0.013006407767534256
1772702916493950700,6.52495068359375,0.014534536749124527,-0.02302662655711174,-0.013535577803850174
1772702916504000800,6.535000732421875,0.012139277532696724,-0.026295408606529236,-0.015360245481133461
1772702916514050800,6.54505078125,0.016467712819576263,-0.029006771743297577,-0.01447847206145525
1772702916524100900,6.555100830078125,0.01612342707812786,-0.02504849061369896,-0.016612280160188675
1772702916534151000,6.56515087890625,0.01701958104968071,-0.021032975986599922,-0.014070826582610607
1772702916544200700,6.57520068359375,0.01827467978000641,-0.014601715840399265,-0.012403734028339386
1772702916554251800,6.585251708984375,0.01869679056107998,-0.01863773725926876,-0.012227432802319527
1772702916564301800,6.5953017578125,0.013746241107583046,-0.023659925907850266,-0.014855707064270973
1772702916574352000,6.605351806640625,0.013187242671847343,-0.030110899358987808,-0.020236089825630188
1772702916584402000,6.61540185546875,0.010322153568267822,-0.03547080606222153,-0.023377204313874245
1772702916594451700,6.62545166015625,0.00885741412639618,-0.029688548296689987,-0.021975582465529442
1772702916604502800,6.635502685546875,0.00582272931933403,-0.022398432716727257,-0.016025951132178307
1772702916614552800,6.645552734375,0.0015206588432192802,-0.026593443006277084,-0.012454385869204998
1772702916624603000,6.655602783203125,0.003620418719947338,-0.03373199328780174,-0.012814081273972988
1772702916634653000,6.66565283203125,0.009148076176643372,-0.02463863044977188,-0.009512027725577354
1772702916644702700,6.67570263671875,0.009474728256464005,-0.014763272367417812,-0.00874972715973854
1772702916654752800,6.685752685546875,0.014197045937180519,-0.0013348152860999107,-0.004358973819762468
1772702916664803800,6.695803955078125,0.011125404387712479,-0.0013505201786756516,-0.004850813187658787
1772702916674854000,6.70585400390625,0.009314721450209618,-0.011478787288069725,-0.007438340224325657
1772702916684904000,6.715904052734375,0.005171115510165691,-0.012225129641592503,-0.006962765473872423
1772702916694953700,6.72595361328125,0.0037825435865670443,0.0035146852023899555,-0.0014947631862014532
1772702916705003800,6.736003662109375,-0.00009859807323664427,0.013302424922585487,0.004833810031414032
1772702916715053800,6.7460537109375,-0.002842718968167901,-0.0038051893934607506,0.007261015009135008
1772702916725105000,6.75610498046875,-0.0032079003285616636,-0.01156779658049345,0.00043222150998190045
1772702916735155000,6.766155029296875,-0.002149560023099184,-0.015521525405347347,-0.0020714160054922104
1772702916745204700,6.776204833984375,0.0033248700201511383,0.054057806730270386,0.11373232305049896
1772702916755254800,6.7862548828125,-0.01123090274631977,-0.013318036682903767,0.16154511272907257
1772702916765304800,6.796304931640625,-0.01947524957358837,-0.055462561547756195,0.06441696733236313
1772702916775355000,6.80635498046875,-0.011632774025201797,-0.054268933832645416,-0.022364525124430656
1772702916785406000,6.816406005859375,-0.00991196371614933,-0.011112194508314133,-0.02631409280002117
1772702916795455700,6.826455810546875,-0.020041029900312424,-0.05819075554609299,-0.028363661840558052
1772702916805505800,6.836505859375,-0.025838499888777733,-0.08926025032997131,-0.06838768720626831
1772702916815555800,6.846555908203125,-0.002499355236068368,-0.05213551223278046,-0.0929684042930603
1772702916825606000,6.85660595703125,0.00669245608150959,0.03040377050638199,-0.013109439052641392
1772702916835657000,6.866656982421875,-0.01235287357121706,-0.006105770822614431,0.04991479963064194
