time,seconds_elapsed,z,y,x
1772697800029790700,0.059790771484375,-0.3181915283203125,0.38653564453125,0.863922119140625
1772697800039838700,0.069838623046875,-0.3154144287109375,0.38616943359375,0.870391845703125
1772697800049887700,0.0798876953125,-0.31787109375,0.38592529296875,0.8737945556640625
1772697800059936800,0.089936767578125,-0.3236083984375,0.3878021240234375,0.876861572265625
1772697800069984800,0.09998486328125,-0.3277130126953125,0.3883056640625,0.8763885498046875
1772697800080033800,0.11003369140625,-0.3284149169921875,0.38720703125,0.8720550537109375
1772697800090081800,0.120081787109375,-0.3263397216796875,0.3864288330078125,0.866180419921875
1772697800100130800,0.130130859375,-0.3233184814453125,0.3875732421875,0.8659820556640625
1772697800110179600,0.1401796875,-0.318389892578125,0.392303466796875,0.8662567138671875
1772697800120227600,0.1502275390625,-0.31573486328125,0.395050048828125,0.8692474365234375
1772697800130276600,0.160276611328125,-0.31939697265625,0.3939056396484375,0.87261962890625
1772697800140324600,0.17032470703125,-0.32293701171875,0.391510009765625,0.87481689453125
1772697800150373600,0.18037353515625,-0.32464599609375,0.3903350830078125,0.871124267578125
1772697800160422700,0.190422607421875,-0.3236541748046875,0.3910369873046875,0.8695831298828125
1772697800170470700,0.200470703125,-0.324127197265625,0.3961181640625,0.8657073974609375
1772697800180519700,0.210519775390625,-0.3263702392578125,0.403167724609375,0.862152099609375
1772697800190568700,0.220568603515625,-0.3297271728515625,0.4048614501953125,0.857330322265625
1772697800200616700,0.23061669921875,-0.329071044921875,0.40814208984375,0.854248046875
1772697800210665700,0.240665771484375,-0.3252410888671875,0.412261962890625,0.8563385009765625
1772697800220713700,0.250713623046875,-0.3224029541015625,0.412322998046875,0.8639373779296875
1772697800230762800,0.2607626953125,-0.3221435546875,0.4092864990234375,0.875274658203125
1772697800240811500,0.2708115234375,-0.321502685546875,0.396575927734375,0.88812255859375
1772697800250859800,0.28085986328125,-0.3240203857421875,0.3887939453125,0.8734893798828125
1772697800260908500,0.290908447265625,-0.3331756591796875,0.4148406982421875,0.841461181640625
1772697800270956800,0.300956787109375,-0.3433685302734375,0.4193115234375,0.8820037841796875
1772697800281005600,0.311005615234375,-0.3449249267578125,0.4188079833984375,0.889801025390625
1772697800291054800,0.321054931640625,-0.3390045166015625,0.41192626953125,0.867767333984375
1772697800301102600,0.3311025390625,-0.336700439453125,0.402191162109375,0.850921630859375
1772697800311151600,0.341151611328125,-0.3332977294921875,0.397552490234375,0.8356170654296875
1772697800321199600,0.35119970703125,-0.3335418701171875,0.398040771484375,0.8212890625
1772697800331248600,0.36124853515625,-0.3301544189453125,0.4002685546875,0.807952880859375
1772697800341297700,0.371297607421875,-0.33282470703125,0.4044036865234375,0.806793212890625
1772697800351345700,0.381345703125,-0.3436431884765625,0.4001007080078125,0.8169097900390625
1772697800361394700,0.391394775390625,-0.3623504638671875,0.392333984375,0.8203125
1772697800371442700,0.401442626953125,-0.3864593505859375,0.380401611328125,0.8162689208984375
1772697800381491700,0.41149169921875,-0.4075469970703125,0.3652191162109375,0.822235107421875
1772697800391540700,0.421540771484375,-0.4217071533203125,0.359100341796875,0.8321990966796875
1772697800401588700,0.431588623046875,-0.424560546875,0.3611602783203125,0.84521484375
1772697800411637800,0.4416376953125,-0.422119140625,0.371429443359375,0.8488922119140625
1772697800421685800,0.451685791015625,-0.419189453125,0.3751220703125,0.8452911376953125
1772697800431734500,0.461734619140625,-0.41094970703125,0.372283935546875,0.8436431884765625
1772697800441783600,0.471783447265625,-0.397552490234375,0.3801116943359375,0.8461151123046875
1772697800451831600,0.48183154296875,-0.3825225830078125,0.3880462646484375,0.845672607421875
1772697800461880600,0.491880615234375,-0.3705596923828125,0.398468017578125,0.849822998046875
1772697800471928600,0.501928466796875,-0.3599090576171875,0.408660888671875,0.8568115234375
1772697800481977600,0.5119775390625,-0.35198974609375,0.4217681884765625,0.855682373046875
1772697800492026600,0.522026611328125,-0.34906005859375,0.4268951416015625,0.8540496826171875
1772697800502074600,0.53207470703125,-0.3470916748046875,0.42547607421875,0.847137451171875
1772697800512123600,0.54212353515625,-0.35089111328125,0.4246673583984375,0.8451080322265625
1772697800522171600,0.552171630859375,-0.3516998291015625,0.4243621826171875,0.831695556640625
1772697800532220700,0.562220703125,-0.3537445068359375,0.4277801513671875,0.830657958984375
1772697800542269700,0.572269775390625,-0.3579254150390625,0.4310455322265625,0.8368377685546875
1772697800552317700,0.582317626953125,-0.357391357421875,0.4268341064453125,0.841705322265625
1772697800562366700,0.59236669921875,-0.3574981689453125,0.4163970947265625,0.8408050537109375
1772697800572415500,0.60241552734375,-0.3500518798828125,0.399932861328125,0.8372344970703125
1772697800582463700,0.612463623046875,-0.3420867919921875,0.3842620849609375,0.8432769775390625
1772697800592512500,0.622512451171875,-0.3386383056640625,0.3737335205078125,0.8519134521484375
1772697800602560800,0.632560791015625,-0.3421630859375,0.3683929443359375,0.8603973388671875
1772697800612609500,0.642609619140625,-0.3455963134765625,0.366424560546875,0.8601226806640625
1772697800622658800,0.652658935546875,-0.348388671875,0.369110107421875,0.8560791015625
1772697800632706600,0.66270654296875,-0.352752685546875,0.3673858642578125,0.848846435546875
1772697800642755800,0.672755859375,-0.3509674072265625,0.370391845703125,0.8483123779296875
1772697800652803600,0.682803466796875,-0.3469085693359375,0.373016357421875,0.8493194580078125
1772697800662852900,0.692852783203125,-0.3407440185546875,0.367401123046875,0.857177734375
1772697800672901600,0.702901611328125,-0.3311004638671875,0.3538360595703125,0.8625335693359375
1772697800682950000,0.712949951171875,-0.3186492919921875,0.3394775390625,0.8659820556640625
1772697800692998700,0.72299853515625,-0.31036376953125,0.3251495361328125,0.861419677734375
1772697800703047000,0.733046875,-0.312286376953125,0.3153839111328125,0.857025146484375
1772697800713095700,0.743095703125,-0.319580078125,0.309051513671875,0.851043701171875
1772697800723144700,0.753144775390625,-0.3271026611328125,0.311614990234375,0.8489532470703125
1772697800733192700,0.763192626953125,-0.3356781005859375,0.31500244140625,0.8576812744140625
1772697800743241700,0.77324169921875,-0.3382415771484375,0.32208251953125,0.86907958984375
1772697800753289700,0.783289794921875,-0.3398590087890625,0.3306884765625,0.879913330078125
1772697800763338500,0.79333837890625,-0.3466796875,0.33428955078125,0.885101318359375
1772697800773387800,0.8033876953125,-0.360595703125,0.335113525390625,0.888671875
1772697800783435500,0.813435546875,-0.3753814697265625,0.33563232421875,0.8902130126953125
1772697800793484800,0.82348486328125,-0.390350341796875,0.329010009765625,0.89776611328125
1772697800803532500,0.833532470703125,-0.4051971435546875,0.3205413818359375,0.9124603271484375
1772697800813581800,0.843581787109375,-0.418487548828125,0.3175506591796875,0.9196319580078125
1772697800823630600,0.853630615234375,-0.4246673583984375,0.3181610107421875,0.92071533203125
1772697800833678800,0.863678955078125,-0.426055908203125,0.3238677978515625,0.918212890625
1772697800843727600,0.8737275390625,-0.4244232177734375,0.326141357421875,0.9141082763671875
1772697800853776600,0.883776611328125,-0.4146728515625,0.324310302734375,0.900390625
1772697800863824600,0.89382470703125,-0.402099609375,0.330230712890625,0.9054107666015625
1772697800873873700,0.903873779296875,-0.386444091796875,0.33172607421875,0.8993988037109375
1772697800883921700,0.913921630859375,-0.373870849609375,0.3227691650390625,0.89019775390625
1772697800893970700,0.923970703125,-0.35308837890625,0.3035736083984375,0.8897552490234375
1772697800904019700,0.934019775390625,-0.3388214111328125,0.2924346923828125,0.8826904296875
1772697800914067700,0.944067626953125,-0.33465576171875,0.283538818359375,0.87921142578125
1772697800924116200,0.9541162109375,-0.3267974853515625,0.2780303955078125,0.872039794921875
1772697800934164200,0.964164306640625,-0.316497802734375,0.27447509765625,0.8588714599609375
1772697800944213200,0.974213134765625,-0.3134918212890625,0.281890869140625,0.84906005859375
1772697800954262300,0.98426220703125,-0.312591552734375,0.28759765625,0.8490753173828125
1772697800964310300,0.994310302734375,-0.31683349609375,0.2936859130859375,0.85455322265625
1772697800974359300,1.004359375,-0.32672119140625,0.3033294677734375,0.8585052490234375
1772697800984407300,1.0144072265625,-0.345611572265625,0.3105926513671875,0.85760498046875
1772697800994456300,1.024456298828125,-0.36578369140625,0.31536865234375,0.8497314453125
1772697801004505000,1.034505126953125,-0.383453369140625,0.3154754638671875,0.843536376953125
1772697801014553000,1.044552978515625,-0.396453857421875,0.308807373046875,0.839141845703125
1772697801024602000,1.05460205078125,-0.4051055908203125,0.30810546875,0.8418731689453125
1772697801034651400,1.0646513671875,-0.4156494140625,0.3065338134765625,0.8471527099609375
1772697801044699100,1.07469921875,-0.4203948974609375,0.3070526123046875,0.8568267822265625
1772697801054748400,1.08474853515625,-0.4169769287109375,0.3113861083984375,0.860992431640625
1772697801064796200,1.094796142578125,-0.4105682373046875,0.3170318603515625,0.861419677734375
1772697801074845200,1.10484521484375,-0.4054107666015625,0.327117919921875,0.8501739501953125
1772697801084894200,1.114894287109375,-0.39837646484375,0.3374176025390625,0.838623046875
1772697801094942200,1.124942138671875,-0.3970184326171875,0.3460693359375,0.8334197998046875
1772697801104991200,1.1349912109375,-0.3938751220703125,0.3412933349609375,0.8345947265625
1772697801115039200,1.145039306640625,-0.4016265869140625,0.3345794677734375,0.85467529296875
1772697801125088300,1.155088134765625,-0.4001007080078125,0.3285980224609375,0.856781005859375
1772697801135137000,1.165136962890625,-0.397705078125,0.3224639892578125,0.853729248046875
1772697801145185300,1.175185302734375,-0.403076171875,0.31915283203125,0.8539581298828125
1772697801155234000,1.185234130859375,-0.4112091064453125,0.3245391845703125,0.848541259765625
1772697801165282300,1.1952822265625,-0.412872314453125,0.3316802978515625,0.83843994140625
1772697801175331000,1.2053310546875,-0.4215850830078125,0.3433837890625,0.855987548828125
1772697801185380000,1.215380126953125,-0.420501708984375,0.340728759765625,0.8529052734375
1772697801195428000,1.225427978515625,-0.4178009033203125,0.331573486328125,0.8594970703125
1772697801205477000,1.23547705078125,-0.4172515869140625,0.3227996826171875,0.8585052490234375
1772697801215525000,1.245525146484375,-0.41644287109375,0.325164794921875,0.8612060546875
1772697801225574100,1.25557421875,-0.41094970703125,0.3343353271484375,0.85638427734375
1772697801235623200,1.265623046875,-0.41015625,0.333587646484375,0.852569580078125
1772697801245671200,1.275671142578125,-0.4069671630859375,0.330963134765625,0.8410491943359375
1772697801255720200,1.28572021484375,-0.4081573486328125,0.3223114013671875,0.8421630859375
1772697801265769200,1.295769287109375,-0.4189453125,0.320556640625,0.84381103515625
1772697801275817200,1.305817138671875,-0.424896240234375,0.3238067626953125,0.8403472900390625
1772697801285866200,1.3158662109375,-0.4336395263671875,0.3243560791015625,0.8369293212890625
1772697801295914200,1.325914306640625,-0.445343017578125,0.3203125,0.844482421875
1772697801305963300,1.33596337890625,-0.4561920166015625,0.3112335205078125,0.8527069091796875
1772697801316012000,1.346011962890625,-0.4774932861328125,0.310882568359375,0.8886566162109375
1772697801326060300,1.356060302734375,-0.4861907958984375,0.2984466552734375,0.89111328125
1772697801336109000,1.366109130859375,-0.4878997802734375,0.2944793701171875,0.90667724609375
1772697801346157000,1.376156982421875,-0.476531982421875,0.28094482421875,0.9074859619140625
1772697801356206000,1.3862060546875,-0.4592132568359375,0.277923583984375,0.8967742919921875
1772697801366255400,1.39625537109375,-0.4273529052734375,0.2880859375,0.8945770263671875
1772697801376303000,1.40630322265625,-0.408660888671875,0.276458740234375,0.89923095703125
1772697801386352000,1.41635205078125,-0.394317626953125,0.250762939453125,0.9056243896484375
1772697801396400000,1.426400146484375,-0.367706298828125,0.27587890625,0.895843505859375
1772697801406449200,1.43644921875,-0.3553314208984375,0.2573394775390625,0.90283203125
1772697801416498200,1.446498291015625,-0.354522705078125,0.2595367431640625,0.9177703857421875
1772697801426546200,1.456546142578125,-0.3270111083984375,0.2748870849609375,0.9349822998046875
1772697801436595200,1.46659521484375,-0.2957000732421875,0.2949371337890625,0.9737396240234375
1772697801446643200,1.476643310546875,-0.260955810546875,0.32110595703125,1.04437255859375
1772697801456692200,1.486692138671875,-0.2240447998046875,0.3602142333984375,1.121429443359375
1772697801466741000,1.496740966796875,-0.18841552734375,0.395294189453125,1.170013427734375
1772697801476789200,1.506789306640625,-0.1650848388671875,0.4122467041015625,1.164703369140625
1772697801486838000,1.516838134765625,-0.1354522705078125,0.39703369140625,1.0988311767578125
1772697801496886300,1.52688623046875,-0.11181640625,0.346954345703125,1.0031890869140625
1772697801506935000,1.53693505859375,-0.1065216064453125,0.309967041015625,0.935211181640625
1772697801516984300,1.546984375,-0.1134796142578125,0.298858642578125,0.88018798828125
1772697801527032000,1.557031982421875,-0.1357879638671875,0.304443359375,0.85443115234375
1772697801537081300,1.567081298828125,-0.1603546142578125,0.329742431640625,0.8604583740234375
1772697801547130000,1.577130126953125,-0.154266357421875,0.361663818359375,0.8824920654296875
1772697801557178400,1.587178466796875,-0.1650390625,0.4108734130859375,0.8956146240234375
1772697801567227100,1.59722705078125,-0.1809844970703125,0.464141845703125,0.9634552001953125
1772697801577275400,1.607275390625,-0.196075439453125,0.493560791015625,0.9899749755859375
1772697801587324200,1.61732421875,-0.2128143310546875,0.4825897216796875,1.0083465576171875
1772697801597373200,1.627373291015625,-0.2247314453125,0.44793701171875,0.9909820556640625
1772697801607421200,1.637421142578125,-0.199462890625,0.4093017578125,0.9560699462890625
1772697801617470200,1.64747021484375,-0.13629150390625,0.375457763671875,0.923492431640625
1772697801627518200,1.657518310546875,-0.074798583984375,0.3512115478515625,0.9017181396484375
1772697801637567200,1.667567138671875,-0.0305938720703125,0.340118408203125,0.890106201171875
1772697801647616300,1.6776162109375,-0.0022735595703125,0.3392791748046875,0.8846893310546875
1772697801657664300,1.687664306640625,0.0037689208984375,0.3474273681640625,0.8808441162109375
1772697801667713300,1.69771337890625,-0.012542724609375,0.352264404296875,0.8815155029296875
1772697801677761000,1.707760986328125,-0.0468902587890625,0.3560028076171875,0.877105712890625
1772697801687810300,1.717810302734375,-0.0848541259765625,0.367095947265625,0.8744964599609375
1772697801697859300,1.727859375,-0.119110107421875,0.38787841796875,0.8707427978515625
1772697801707907000,1.737906982421875,-0.147216796875,0.4159698486328125,0.85699462890625
1772697801717956000,1.7479560546875,-0.162261962890625,0.4355010986328125,0.8475799560546875
1772697801728004000,1.758004150390625,-0.1574249267578125,0.4532928466796875,0.8352813720703125
1772697801738053000,1.76805322265625,-0.149688720703125,0.462066650390625,0.8225250244140625
1772697801748102100,1.77810205078125,-0.140228271484375,0.461456298828125,0.81414794921875
1772697801758150100,1.788150146484375,-0.1280059814453125,0.4527740478515625,0.815032958984375
1772697801768199200,1.79819921875,-0.118438720703125,0.4462738037109375,0.8286590576171875
1772697801778247200,1.8082470703125,-0.117828369140625,0.442718505859375,0.837127685546875
1772697801788296200,1.818296142578125,-0.118377685546875,0.4359588623046875,0.840789794921875
1772697801798345200,1.82834521484375,-0.1341552734375,0.4452362060546875,0.8402252197265625
1772697801808393200,1.838393310546875,-0.159820556640625,0.460693359375,0.849945068359375
1772697801818442000,1.84844189453125,-0.195953369140625,0.4781951904296875,0.8550262451171875
1772697801828490200,1.858490234375,-0.233245849609375,0.4982757568359375,0.867767333984375
1772697801838539000,1.8685390625,-0.2717132568359375,0.506103515625,0.8896484375
1772697801848588300,1.87858837890625,-0.3096466064453125,0.504364013671875,0.90606689453125
1772697801858636000,1.888635986328125,-0.347503662109375,0.4909515380859375,0.920562744140625
1772697801868685300,1.898685302734375,-0.372314453125,0.46435546875,0.91912841796875
1772697801878734000,1.908734130859375,-0.3929901123046875,0.4344635009765625,0.9229888916015625
1772697801888782300,1.9187822265625,-0.3962554931640625,0.4119873046875,0.9353790283203125
1772697801898831000,1.9288310546875,-0.3836517333984375,0.398468017578125,0.93731689453125
1772697801908879400,1.93887939453125,-0.355560302734375,0.39617919921875,0.91815185546875
1772697801918929000,1.948928955078125,-0.31951904296875,0.3936614990234375,0.877410888671875
1772697801928978000,1.95897802734375,-0.2965850830078125,0.40155029296875,0.834625244140625
1772697801939026000,1.96902587890625,-0.277587890625,0.4196319580078125,0.798583984375
1772697801949075000,1.979074951171875,-0.2709808349609375,0.4373931884765625,0.778961181640625
1772697801959123000,1.989123046875,-0.262664794921875,0.4533538818359375,0.7658843994140625
1772697801969172000,1.999171875,-0.257080078125,0.4657745361328125,0.7601318359375
1772697801979221000,2.009220947265625,-0.25225830078125,0.4539642333984375,0.7769317626953125
1772697801989268700,2.019268798828125,-0.248138427734375,0.4549102783203125,0.7622528076171875
1772697801999317800,2.02931787109375,-0.2631683349609375,0.4679718017578125,0.744903564453125
1772697802009365800,2.03936572265625,-0.293426513671875,0.480377197265625,0.732421875
1772697802019414800,2.049414794921875,-0.3177032470703125,0.515167236328125,0.729278564453125
1772697802029464000,2.059464111328125,-0.3404083251953125,0.5307769775390625,0.7578277587890625
1772697802039511800,2.06951171875,-0.362548828125,0.524139404296875,0.7638702392578125
1772697802049560800,2.079560791015625,-0.362884521484375,0.5332183837890625,0.7493896484375
1772697802059608800,2.08960888671875,-0.3556060791015625,0.5256195068359375,0.7886810302734375
1772697802069657900,2.099657958984375,-0.3589324951171875,0.51141357421875,0.8215179443359375
1772697802079707000,2.109706787109375,-0.369964599609375,0.501708984375,0.827667236328125
1772697802089755000,2.1197548828125,-0.386138916015625,0.5016021728515625,0.8281402587890625
1772697802099804000,2.129803955078125,-0.4110107421875,0.49542236328125,0.8354034423828125
1772697802109852000,2.139851806640625,-0.424560546875,0.4929656982421875,0.8019256591796875
1772697802119901000,2.14990087890625,-0.4246978759765625,0.5007781982421875,0.78680419921875
1772697802129949700,2.15994970703125,-0.4238433837890625,0.5002593994140625,0.7774810791015625
1772697802139998000,2.169998046875,-0.4234161376953125,0.49505615234375,0.7584991455078125
1772697802150046700,2.180046630859375,-0.417724609375,0.4960479736328125,0.74005126953125
1772697802160096000,2.190095947265625,-0.38629150390625,0.5101776123046875,0.7427520751953125
1772697802170143700,2.200143798828125,-0.3915863037109375,0.51617431640625,0.785430908203125
1772697802180193000,2.210193115234375,-0.3922576904296875,0.517181396484375,0.7742156982421875
1772697802190240800,2.22024072265625,-0.3862762451171875,0.4995269775390625,0.74658203125
1772697802200290000,2.2302900390625,-0.3956451416015625,0.4759368896484375,0.739166259765625
1772697802210338800,2.2403388671875,-0.4114532470703125,0.4566650390625,0.7326202392578125
1772697802220387000,2.250386962890625,-0.4211883544921875,0.445098876953125,0.733795166015625
1772697802230435800,2.260435791015625,-0.4275970458984375,0.43621826171875,0.7409210205078125
1772697802240484000,2.270484130859375,-0.4326934814453125,0.4339752197265625,0.7433624267578125
1772697802250532900,2.280532958984375,-0.4315185546875,0.4491119384765625,0.74755859375
1772697802260582000,2.290581787109375,-0.4256591796875,0.4559478759765625,0.73822021484375
1772697802270630000,2.3006298828125,-0.418243408203125,0.4709625244140625,0.729095458984375
1772697802280679000,2.310678955078125,-0.40960693359375,0.4822540283203125,0.7288360595703125
1772697802290727000,2.320726806640625,-0.4046630859375,0.4873046875,0.7276153564453125
1772697802300776000,2.33077587890625,-0.404205322265625,0.4863739013671875,0.7365875244140625
1772697802310825000,2.340824951171875,-0.407928466796875,0.4701690673828125,0.7508697509765625
1772697802320872700,2.350872802734375,-0.43280029296875,0.456268310546875,0.7581939697265625
1772697802330922000,2.360921875,-0.4571380615234375,0.4528350830078125,0.764007568359375
1772697802340969700,2.3709697265625,-0.4732666015625,0.4569854736328125,0.7622528076171875
1772697802351019000,2.38101904296875,-0.4781646728515625,0.4634857177734375,0.7555389404296875
1772697802361067800,2.39106787109375,-0.470916748046875,0.4730682373046875,0.7566986083984375
1772697802371116000,2.401115966796875,-0.460662841796875,0.4771881103515625,0.7591400146484375
1772697802381164800,2.411164794921875,-0.454925537109375,0.4831085205078125,0.762725830078125
1772697802391213000,2.421213134765625,-0.4510498046875,0.48394775390625,0.7595367431640625
1772697802401261800,2.43126171875,-0.4535064697265625,0.4821929931640625,0.751953125
1772697802411310800,2.441310791015625,-0.45574951171875,0.472320556640625,0.7461090087890625
1772697802421358800,2.45135888671875,-0.454620361328125,0.4585113525390625,0.74609375
1772697802431407900,2.461407958984375,-0.45635986328125,0.44775390625,0.7441864013671875
1772697802441457000,2.471456787109375,-0.454681396484375,0.4380340576171875,0.746795654296875
1772697802451505000,2.4815048828125,-0.4458160400390625,0.4339599609375,0.743560791015625
1772697802461554000,2.491553955078125,-0.4389801025390625,0.4323883056640625,0.73651123046875
1772697802471602000,2.501601806640625,-0.439544677734375,0.4298858642578125,0.7385406494140625
1772697802481651000,2.51165087890625,-0.445587158203125,0.433868408203125,0.73309326171875
1772697802491700000,2.521699951171875,-0.4525146484375,0.4369049072265625,0.73095703125
1772697802501748000,2.531748046875,-0.4637908935546875,0.4430694580078125,0.7372894287109375
1772697802511797000,2.541796875,-0.469818115234375,0.4471282958984375,0.7508697509765625
1772697802521844700,2.5518447265625,-0.466949462890625,0.4703521728515625,0.7733306884765625
1772697802531894000,2.56189404296875,-0.4419097900390625,0.525604248046875,0.8158111572265625
1772697802541942800,2.57194287109375,-0.4115142822265625,0.6161651611328125,0.93817138671875
1772697802551991000,2.581990966796875,-0.38909912109375,0.6890411376953125,1.0876922607421875
1772697802562039800,2.592039794921875,-0.368499755859375,0.7219696044921875,1.165435791015625
1772697802572088000,2.602088134765625,-0.3375701904296875,0.7186126708984375,1.14794921875
1772697802582136800,2.61213671875,-0.300689697265625,0.6629638671875,1.0248260498046875
1772697802592185900,2.622185791015625,-0.279327392578125,0.6063232421875,0.902130126953125
1772697802602233900,2.63223388671875,-0.2723388671875,0.5686187744140625,0.8204193115234375
1772697802612283000,2.642282958984375,-0.29400634765625,0.514892578125,0.7603759765625
1772697802622331000,2.652330810546875,-0.3462677001953125,0.4339752197265625,0.6701812744140625
1772697802632379600,2.662379638671875,-0.399627685546875,0.3744659423828125,0.558197021484375
1772697802642429000,2.672428955078125,-0.4447021484375,0.359222412109375,0.5
1772697802652476700,2.6824765625,-0.4747467041015625,0.4006805419921875,0.578125
1772697802662526000,2.69252587890625,-0.468292236328125,0.48834228515625,0.7099151611328125
1772697802672573700,2.70257373046875,-0.43182373046875,0.5644073486328125,0.8217620849609375
1772697802682623000,2.712623046875,-0.396148681640625,0.597412109375,0.921539306640625
1772697802692671700,2.722671630859375,-0.3791961669921875,0.5927734375,0.97625732421875
1772697802702720000,2.732719970703125,-0.3772125244140625,0.538909912109375,0.965423583984375
1772697802712768800,2.742768798828125,-0.3623046875,0.464752197265625,0.9008026123046875
1772697802722817000,2.752817138671875,-0.32562255859375,0.428253173828125,0.8438568115234375
1772697802732865800,2.76286572265625,-0.2608795166015625,0.4420166015625,0.806396484375
1772697802742914800,2.772914794921875,-0.1838531494140625,0.4881591796875,0.795013427734375
1772697802752962800,2.782962890625,-0.135894775390625,0.52447509765625,0.812225341796875
1772697802763011800,2.79301171875,-0.1384735107421875,0.5296630859375,0.83502197265625
1772697802773060900,2.803060791015625,-0.1785430908203125,0.50518798828125,0.8287506103515625
1772697802783108900,2.81310888671875,-0.2326202392578125,0.4733123779296875,0.81634521484375
1772697802793158000,2.823157958984375,-0.2747955322265625,0.437225341796875,0.800384521484375
1772697802803206000,2.833205810546875,-0.2888946533203125,0.411224365234375,0.7815093994140625
1772697802813255000,2.8432548828125,-0.26654052734375,0.3894805908203125,0.7570953369140625
1772697802823304000,2.853303955078125,-0.2225799560546875,0.37835693359375,0.7480621337890625
1772697802833352000,2.86335205078125,-0.1716766357421875,0.3745574951171875,0.7491302490234375
1772697802843401000,2.87340087890625,-0.1322784423828125,0.3860626220703125,0.760772705078125
1772697802853449000,2.883448974609375,-0.1048126220703125,0.4136199951171875,0.7855682373046875
1772697802863498000,2.893498046875,-0.0965576171875,0.44549560546875,0.8167266845703125
1772697802873546800,2.903546630859375,-0.0983734130859375,0.472747802734375,0.8542022705078125
1772697802883595000,2.913594970703125,-0.1037445068359375,0.4882659912109375,0.898773193359375
1772697802893643800,2.923643798828125,-0.1239776611328125,0.4890594482421875,0.941009521484375
1772697802903692000,2.933692138671875,-0.16033935546875,0.4717559814453125,0.977020263671875
1772697802913740800,2.94374072265625,-0.205474853515625,0.4494476318359375,0.98443603515625
1772697802923789300,2.953789306640625,-0.2612457275390625,0.4350128173828125,0.979766845703125
1772697802933837000,2.963837158203125,-0.317138671875,0.4230804443359375,0.973052978515625
1772697802943886300,2.97388623046875,-0.3681182861328125,0.41571044921875,0.955841064453125
1772697802953934000,2.98393408203125,-0.4042510986328125,0.4127197265625,0.9375
1772697802963983400,2.9939833984375,-0.4133453369140625,0.41058349609375,0.9069061279296875
1772697802974032100,3.0040322265625,-0.3838653564453125,0.41033935546875,0.859405517578125
1772697802984080400,3.014080322265625,-0.3149261474609375,0.4087066650390625,0.850982666015625
1772697802994129200,3.024129150390625,-0.2410888671875,0.4176025390625,0.8403167724609375
1772697803004178200,3.03417822265625,-0.1890869140625,0.4177093505859375,0.8063507080078125
1772697803014226200,3.04422607421875,-0.164398193359375,0.4169464111328125,0.81170654296875
1772697803024275200,3.054275146484375,-0.1612396240234375,0.4374237060546875,0.8372344970703125
1772697803034323200,3.0643232421875,-0.151031494140625,0.4463653564453125,0.8431549072265625
1772697803044372200,3.074372314453125,-0.1468963623046875,0.445159912109375,0.864501953125
1772697803054421200,3.084421142578125,-0.1524505615234375,0.4359588623046875,0.8707733154296875
1772697803064469200,3.09446923828125,-0.166107177734375,0.4139556884765625,0.8525238037109375
1772697803074518300,3.104518310546875,-0.1913909912109375,0.3947296142578125,0.8473358154296875
1772697803084566300,3.114566162109375,-0.2132720947265625,0.3825225830078125,0.8567962646484375
1772697803094615300,3.124615234375,-0.235321044921875,0.37994384765625,0.865692138671875
1772697803104664300,3.134664306640625,-0.249847412109375,0.3797760009765625,0.8768463134765625
1772697803114712300,3.14471240234375,-0.2617340087890625,0.3836669921875,0.874298095703125
1772697803124761300,3.15476123046875,-0.277435302734375,0.396270751953125,0.8689727783203125
1772697803134809300,3.164809326171875,-0.282257080078125,0.4064483642578125,0.859100341796875
1772697803144858400,3.1748583984375,-0.2855682373046875,0.409210205078125,0.8549652099609375
1772697803154907100,3.1849072265625,-0.2850189208984375,0.4008636474609375,0.8501129150390625
1772697803164955400,3.194955322265625,-0.27813720703125,0.3945770263671875,0.8425140380859375
1772697803175004200,3.205004150390625,-0.2792205810546875,0.38531494140625,0.8467254638671875
1772697803185052200,3.21505224609375,-0.269683837890625,0.371826171875,0.8572235107421875
1772697803195101200,3.22510107421875,-0.2537841796875,0.363006591796875,0.86669921875
1772697803205150500,3.235150390625,-0.2409210205078125,0.364227294921875,0.8782196044921875
1772697803215198200,3.2451982421875,-0.233734130859375,0.3661956787109375,0.882354736328125
1772697803225247500,3.25524755859375,-0.2333221435546875,0.371002197265625,0.88177490234375
1772697803235295200,3.265295166015625,-0.2462921142578125,0.3744964599609375,0.879547119140625
1772697803245344300,3.27534423828125,-0.2639007568359375,0.3748016357421875,0.874114990234375
1772697803255393300,3.285393310546875,-0.2833404541015625,0.3737945556640625,0.8648834228515625
1772697803265441300,3.295441162109375,-0.3035125732421875,0.371185302734375,0.8596038818359375
1772697803275490300,3.305490234375,-0.31768798828125,0.3657073974609375,0.858154296875
1772697803285538300,3.315538330078125,-0.329681396484375,0.362701416015625,0.8623809814453125
1772697803295587300,3.32558740234375,-0.3398895263671875,0.360260009765625,0.8753204345703125
1772697803305636000,3.335635986328125,-0.342803955078125,0.3582611083984375,0.885589599609375
1772697803315684400,3.345684326171875,-0.3463592529296875,0.35888671875,0.89422607421875
1772697803325733000,3.355733154296875,-0.3514862060546875,0.3527984619140625,0.904937744140625
1772697803335782400,3.365782470703125,-0.358673095703125,0.3489837646484375,0.905303955078125
1772697803345830100,3.375830078125,-0.363555908203125,0.3521728515625,0.899993896484375
1772697803355879400,3.38587939453125,-0.3607330322265625,0.358673095703125,0.887603759765625
1772697803365927200,3.39592724609375,-0.356689453125,0.3506927490234375,0.883087158203125
1772697803375976400,3.4059765625,-0.3498992919921875,0.3367462158203125,0.8821868896484375
1772697803386025200,3.416025146484375,-0.3378448486328125,0.327117919921875,0.8842926025390625
1772697803396073200,3.4260732421875,-0.310089111328125,0.321624755859375,0.8782501220703125
1772697803406122200,3.436122314453125,-0.295867919921875,0.3290863037109375,0.8792572021484375
1772697803416170200,3.446170166015625,-0.2932281494140625,0.3636016845703125,0.8728179931640625
1772697803426219300,3.45621923828125,-0.29815673828125,0.39093017578125,0.8761749267578125
1772697803436268300,3.466268310546875,-0.29998779296875,0.41851806640625,0.86090087890625
1772697803446316300,3.47631640625,-0.290252685546875,0.4373321533203125,0.8481597900390625
1772697803456365300,3.486365234375,-0.2734832763671875,0.4415130615234375,0.8306427001953125
1772697803466413300,3.496413330078125,-0.255767822265625,0.430206298828125,0.8255157470703125
1772697803476462300,3.50646240234375,-0.2487945556640625,0.40972900390625,0.82623291015625
1772697803486511000,3.516510986328125,-0.2545928955078125,0.3890533447265625,0.827423095703125
1772697803496559400,3.526559326171875,-0.264312744140625,0.3753204345703125,0.83990478515625
1772697803506608000,3.536608154296875,-0.2833404541015625,0.3645477294921875,0.870391845703125
1772697803516656000,3.54665625,-0.3020172119140625,0.35870361328125,0.90301513671875
1772697803526705200,3.556705078125,-0.312896728515625,0.3603668212890625,0.926055908203125
1772697803536754400,3.56675439453125,-0.3111724853515625,0.3621978759765625,0.947174072265625
1772697803546802200,3.57680224609375,-0.295135498046875,0.36175537109375,0.972869873046875
1772697803556851200,3.586851318359375,-0.258026123046875,0.362548828125,1.001312255859375
1772697803566899200,3.596899169921875,-0.2062530517578125,0.383087158203125,1.04571533203125
1772697803576948200,3.6069482421875,-0.16680908203125,0.4249114990234375,1.125640869140625
1772697803586997200,3.616997314453125,-0.149993896484375,0.474853515625,1.234222412109375
1772697803597045200,3.627045166015625,-0.1386566162109375,0.4974212646484375,1.302154541015625
1772697803607094300,3.63709423828125,-0.107177734375,0.4893341064453125,1.320404052734375
1772697803617143000,3.64714306640625,-0.0634765625,0.472869873046875,1.287750244140625
1772697803627191300,3.65719140625,-0.0214080810546875,0.434051513671875,1.22607421875
1772697803637240000,3.667239990234375,0.011962890625,0.3674774169921875,1.1142425537109375
1772697803647288300,3.677288330078125,0.0335235595703125,0.29925537109375,0.9813079833984375
1772697803657337000,3.687337158203125,0.0262451171875,0.2548370361328125,0.8729400634765625
1772697803667386400,3.697386474609375,-0.0225982666015625,0.24462890625,0.7823486328125
1772697803677434000,3.70743408203125,-0.1001129150390625,0.258392333984375,0.7302093505859375
1772697803687483400,3.7174833984375,-0.182159423828125,0.3032379150390625,0.730987548828125
1772697803697531100,3.72753125,-0.2549896240234375,0.3864898681640625,0.7689361572265625
1772697803707580400,3.737580322265625,-0.3036956787109375,0.5119171142578125,0.81451416015625
1772697803717629200,3.747629150390625,-0.3233795166015625,0.601165771484375,0.8619384765625
1772697803727677400,3.757677490234375,-0.33599853515625,0.6343536376953125,0.8903350830078125
1772697803737726200,3.767726318359375,-0.3286590576171875,0.59991455078125,0.885986328125
1772697803747774500,3.7777744140625,-0.27325439453125,0.5150909423828125,0.881866455078125
1772697803757823200,3.7878232421875,-0.1551971435546875,0.44683837890625,0.897674560546875
1772697803767872300,3.797872314453125,-0.0238037109375,0.405426025390625,0.900787353515625
1772697803777920300,3.807920166015625,0.091766357421875,0.3728485107421875,0.90228271484375
1772697803787969300,3.81796923828125,0.17852783203125,0.3426513671875,0.9161834716796875
1772697803798017300,3.828017333984375,0.2227020263671875,0.3131103515625,0.9338836669921875
1772697803808066300,3.83806640625,0.2256927490234375,0.295623779296875,0.9124603271484375
1772697803818115300,3.848115234375,0.1755218505859375,0.2904510498046875,0.8842926025390625
1772697803828163000,3.8581630859375,0.1030731201171875,0.3057098388671875,0.8626556396484375
1772697803838212400,3.86821240234375,0.05084228515625,0.335052490234375,0.844268798828125
1772697803848260000,3.878260009765625,0.011627197265625,0.3664398193359375,0.839752197265625
1772697803858309400,3.888309326171875,-0.0210418701171875,0.4001617431640625,0.8404541015625
1772697803868358400,3.8983583984375,-0.0639495849609375,0.43035888671875,0.831390380859375
1772697803878406400,3.908406494140625,-0.095672607421875,0.4543304443359375,0.83428955078125
1772697803888455200,3.918455078125,-0.0962371826171875,0.46917724609375,0.843658447265625
1772697803898504200,3.928504150390625,-0.10833740234375,0.475372314453125,0.8618927001953125
1772697803908552200,3.93855224609375,-0.1220855712890625,0.47216796875,0.8828887939453125
1772697803918601200,3.948601318359375,-0.13336181640625,0.4667205810546875,0.9101104736328125
1772697803928650000,3.95864990234375,-0.149505615234375,0.4563446044921875,0.9380950927734375
1772697803938699000,3.968698974609375,-0.174652099609375,0.4432525634765625,0.95196533203125
1772697803948747800,3.978747802734375,-0.2008209228515625,0.432159423828125,0.95599365234375
1772697803958795800,3.988795654296875,-0.2237396240234375,0.42559814453125,0.9481048583984375
1772697803968844800,3.9988447265625,-0.243865966796875,0.4214630126953125,0.9380645751953125
1772697803978892800,4.008892822265625,-0.2524871826171875,0.4197845458984375,0.923065185546875
1772697803988941800,4.01894189453125,-0.2577972412109375,0.418365478515625,0.9052734375
1772697803998990800,4.028990966796875,-0.2504730224609375,0.419921875,0.8743133544921875
1772697804009038800,4.039038818359375,-0.2327117919921875,0.4232635498046875,0.853790283203125
1772697804019088000,4.049087890625,-0.206085205078125,0.42913818359375,0.8436126708984375
1772697804029136000,4.059135986328125,-0.182403564453125,0.4413909912109375,0.836761474609375
1772697804039185000,4.069184814453125,-0.1635894775390625,0.4513702392578125,0.8307037353515625
1772697804049234000,4.07923388671875,-0.152435302734375,0.46368408203125,0.828094482421875
1772697804059282000,4.089281982421875,-0.156585693359375,0.4767913818359375,0.8299407958984375
1772697804069331000,4.0993310546875,-0.1670074462890625,0.4870452880859375,0.8358154296875
1772697804079379000,4.10937890625,-0.1825408935546875,0.4891510009765625,0.823028564453125
1772697804089428000,4.119427978515625,-0.20062255859375,0.4878997802734375,0.809417724609375
1772697804099476700,4.129476806640625,-0.2157440185546875,0.4892730712890625,0.7997283935546875
1772697804109525000,4.13952490234375,-0.2310028076171875,0.4858551025390625,0.7994384765625
1772697804119573800,4.14957373046875,-0.2424163818359375,0.4870758056640625,0.7839813232421875
1772697804129622000,4.1596220703125,-0.256103515625,0.4782867431640625,0.795928955078125
1772697804139670800,4.1696708984375,-0.2670440673828125,0.45623779296875,0.81683349609375
1772697804149720000,4.179719970703125,-0.2872772216796875,0.4388885498046875,0.818023681640625
1772697804159767800,4.189767822265625,-0.306671142578125,0.4291229248046875,0.8300018310546875
1772697804169817000,4.199817138671875,-0.310028076171875,0.3905792236328125,0.8551177978515625
1772697804179865900,4.209865966796875,-0.307647705078125,0.3729400634765625,0.8460540771484375
1772697804189914000,4.2199140625,-0.3064422607421875,0.357269287109375,0.85260009765625
1772697804199963000,4.229962890625,-0.31829833984375,0.368560791015625,0.8402862548828125
1772697804210011000,4.240010986328125,-0.3385467529296875,0.3751678466796875,0.8506927490234375
1772697804220060000,4.250059814453125,-0.352294921875,0.3935394287109375,0.8449859619140625
1772697804230109000,4.26010888671875,-0.3643798828125,0.40167236328125,0.856689453125
1772697804240157000,4.270156982421875,-0.3636932373046875,0.410400390625,0.847991943359375
1772697804250206000,4.2802060546875,-0.3603363037109375,0.4190673828125,0.83551025390625
1772697804260254000,4.29025390625,-0.3451690673828125,0.431549072265625,0.821533203125
1772697804270302700,4.300302734375,-0.330047607421875,0.4471588134765625,0.810760498046875
1772697804280352000,4.31035205078125,-0.3143157958984375,0.463897705078125,0.802825927734375
1772697804290399700,4.320399658203125,-0.3025665283203125,0.477020263671875,0.799774169921875
1772697804300448800,4.33044873046875,-0.29302978515625,0.4867095947265625,0.797882080078125
1772697804310496800,4.340496826171875,-0.2922515869140625,0.48944091796875,0.801239013671875
1772697804320545800,4.3505458984375,-0.3065338134765625,0.4865264892578125,0.7984619140625
1772697804330594800,4.3605947265625,-0.33660888671875,0.46728515625,0.78839111328125
1772697804340642800,4.370642822265625,-0.361297607421875,0.448944091796875,0.786163330078125
1772697804350691800,4.38069189453125,-0.3786163330078125,0.4358978271484375,0.785400390625
1772697804360739800,4.39073974609375,-0.3854217529296875,0.428619384765625,0.7921142578125
1772697804370788900,4.400788818359375,-0.391510009765625,0.42852783203125,0.794219970703125
1772697804380838000,4.410837890625,-0.409271240234375,0.4315032958984375,0.7933807373046875
1772697804390886000,4.420885986328125,-0.4281005859375,0.4276123046875,0.769805908203125
1772697804400935000,4.430934814453125,-0.4539642333984375,0.4228668212890625,0.7606201171875
1772697804410983000,4.44098291015625,-0.4731597900390625,0.4326324462890625,0.75439453125
1772697804421032000,4.451031982421875,-0.4754486083984375,0.4510040283203125,0.7437896728515625
1772697804431080700,4.461080810546875,-0.4809417724609375,0.4851531982421875,0.7505645751953125
1772697804441129000,4.47112890625,-0.4630889892578125,0.5115509033203125,0.7547607421875
1772697804451177700,4.481177734375,-0.42108154296875,0.515960693359375,0.7484283447265625
1772697804461226000,4.49122607421875,-0.3940277099609375,0.5152587890625,0.742218017578125
1772697804471274800,4.501274658203125,-0.3829193115234375,0.5140533447265625,0.74530029296875
1772697804481324000,4.511323974609375,-0.40582275390625,0.513824462890625,0.7537078857421875
1772697804491371800,4.521371826171875,-0.46832275390625,0.5102386474609375,0.7461700439453125
1772697804501421000,4.531421142578125,-0.5187530517578125,0.489715576171875,0.757537841796875
1772697804511469800,4.5414697265625,-0.5485687255859375,0.4658660888671875,0.7663421630859375
1772697804521518000,4.55151806640625,-0.559539794921875,0.4427337646484375,0.7779541015625
1772697804531566800,4.56156689453125,-0.52984619140625,0.4272003173828125,0.794189453125
1772697804541614800,4.57161474609375,-0.496795654296875,0.427001953125,0.7838134765625
1772697804551663900,4.581663818359375,-0.4773406982421875,0.4324188232421875,0.7890777587890625
1772697804561713000,4.591712890625,-0.44024658203125,0.46337890625,0.8111572265625
1772697804571761000,4.601760986328125,-0.3937835693359375,0.5321502685546875,0.89752197265625
1772697804581810000,4.611809814453125,-0.3675079345703125,0.5957183837890625,1.044708251953125
1772697804591858000,4.62185791015625,-0.3658447265625,0.647430419921875,1.1524658203125
1772697804601906700,4.63190673828125,-0.3518524169921875,0.7019195556640625,1.181793212890625
1772697804611956000,4.6419560546875,-0.30474853515625,0.7167816162109375,1.0759735107421875
1772697804622003700,4.652003662109375,-0.2362213134765625,0.6720428466796875,0.940948486328125
1772697804632053000,4.662052978515625,-0.1789703369140625,0.59930419921875,0.9100341796875
1772697804642100700,4.672100830078125,-0.1691131591796875,0.4855194091796875,0.9383544921875
1772697804652150000,4.68214990234375,-0.23004150390625,0.3342437744140625,0.912689208984375
1772697804662198800,4.69219873046875,-0.325469970703125,0.22900390625,0.796051025390625
1772697804672247000,4.7022470703125,-0.4126129150390625,0.215606689453125,0.66314697265625
1772697804682295800,4.7122958984375,-0.4560089111328125,0.3021240234375,0.6153106689453125
1772697804692344000,4.722343994140625,-0.43914794921875,0.4584808349609375,0.674041748046875
1772697804702392800,4.732392822265625,-0.380340576171875,0.581634521484375,0.7844390869140625
1772697804712441900,4.74244189453125,-0.326080322265625,0.63580322265625,0.8929595947265625
1772697804722489900,4.75248974609375,-0.273040771484375,0.6161956787109375,0.979705810546875
1772697804732539000,4.762538818359375,-0.2186431884765625,0.5325469970703125,1.002288818359375
1772697804742587000,4.7725869140625,-0.1852264404296875,0.4362945556640625,0.9792327880859375
1772697804752636000,4.782635986328125,-0.182220458984375,0.374420166015625,0.9208526611328125
1772697804762685000,4.792684814453125,-0.1727294921875,0.3433685302734375,0.8566131591796875
1772697804772733000,4.80273291015625,-0.1551513671875,0.326690673828125,0.808013916015625
1772697804782782000,4.812781982421875,-0.131072998046875,0.32562255859375,0.77752685546875
1772697804792830000,4.822829833984375,-0.10687255859375,0.3363037109375,0.7674560546875
1772697804802879000,4.83287890625,-0.080841064453125,0.352783203125,0.7775421142578125
1772697804812928000,4.842927978515625,-0.064239501953125,0.368743896484375,0.8101348876953125
1772697804822976000,4.85297607421875,-0.059539794921875,0.3845367431640625,0.854644775390625
1772697804833025000,4.86302490234375,-0.0651397705078125,0.3846588134765625,0.8874053955078125
1772697804843073800,4.87307373046875,-0.0726165771484375,0.377838134765625,0.9135284423828125
1772697804853122000,4.8831220703125,-0.0837860107421875,0.3716888427734375,0.9250640869140625
1772697804863170800,4.8931708984375,-0.0986328125,0.3657073974609375,0.9305572509765625
1772697804873218800,4.90321875,-0.109375,0.368408203125,0.93377685546875
1772697804883267800,4.913267822265625,-0.1132354736328125,0.381744384765625,0.930084228515625
1772697804893316900,4.92331689453125,-0.10894775390625,0.4005584716796875,0.921630859375
1772697804903364900,4.93336474609375,-0.0994720458984375,0.4228363037109375,0.91546630859375
1772697804913414000,4.943413818359375,-0.0912628173828125,0.4333953857421875,0.920867919921875
1772697804923462000,4.9534619140625,-0.0955047607421875,0.435089111328125,0.9252166748046875
1772697804933510700,4.9635107421875,-0.10595703125,0.4390716552734375,0.91485595703125
1772697804943560000,4.973559814453125,-0.1078643798828125,0.447906494140625,0.899658203125
1772697804953607700,4.983607666015625,-0.108245849609375,0.4596099853515625,0.8950958251953125
1772697804963657000,4.993656982421875,-0.1301422119140625,0.4673614501953125,0.8918304443359375
1772697804973704700,5.00370458984375,-0.1728515625,0.4666290283203125,0.889678955078125
1772697804983754000,5.01375390625,-0.20452880859375,0.456634521484375,0.897979736328125
1772697804993802800,5.023802734375,-0.2406768798828125,0.4467010498046875,0.9038848876953125
1772697805003851000,5.03385107421875,-0.2822418212890625,0.453155517578125,0.894439697265625
1772697805013899800,5.043899658203125,-0.3259735107421875,0.4561309814453125,0.891357421875
1772697805023948000,5.053947998046875,-0.3568267822265625,0.4481201171875,0.8925323486328125
1772697805033996800,5.063996826171875,-0.3708343505859375,0.4333953857421875,0.8885955810546875
1772697805044045800,5.0740458984375,-0.366058349609375,0.4297637939453125,0.8769683837890625
1772697805054093800,5.08409375,-0.351470947265625,0.43719482421875,0.8602294921875
1772697805064142800,5.094142822265625,-0.325775146484375,0.43670654296875,0.850616455078125
1772697805074192000,5.10419189453125,-0.3084564208984375,0.4284515380859375,0.8408050537109375
1772697805084240000,5.114239990234375,-0.295806884765625,0.412689208984375,0.8610687255859375
1772697805094289000,5.124288818359375,-0.2624664306640625,0.3983917236328125,0.8840484619140625
1772697805104337000,5.1343369140625,-0.2156982421875,0.390228271484375,0.8891754150390625
1772697805114386000,5.144385986328125,-0.1772308349609375,0.3811492919921875,0.9112548828125
1772697805124435000,5.15443505859375,-0.1493072509765625,0.36505126953125,0.9291534423828125
1772697805134483000,5.16448291015625,-0.1379852294921875,0.3441925048828125,0.934844970703125
1772697805144532000,5.174531982421875,-0.145843505859375,0.33306884765625,0.9365997314453125
1772697805154580000,5.184580078125,-0.161895751953125,0.335205078125,0.92315673828125
1772697805164629000,5.19462890625,-0.1770782470703125,0.346160888671875,0.9209136962890625
1772697805174677800,5.204677734375,-0.1829681396484375,0.36541748046875,0.918121337890625
1772697805184726000,5.21472607421875,-0.1845550537109375,0.3739166259765625,0.910919189453125
1772697805194774800,5.22477490234375,-0.19293212890625,0.377777099609375,0.8888397216796875
1772697805204822800,5.23482275390625,-0.205780029296875,0.3823089599609375,0.87359619140625
1772697805214871800,5.244871826171875,-0.2206878662109375,0.3956146240234375,0.859649658203125
1772697805224921000,5.254921142578125,-0.2411651611328125,0.40771484375,0.852264404296875
1772697805234968800,5.26496875,-0.2566070556640625,0.414581298828125,0.866485595703125
1772697805245018000,5.27501806640625,-0.2697906494140625,0.4184417724609375,0.8796539306640625
1772697805255065900,5.28506591796875,-0.2794036865234375,0.41729736328125,0.8868865966796875
1772697805265115000,5.295114990234375,-0.2782135009765625,0.4136505126953125,0.879638671875
1772697805275164000,5.305163818359375,-0.2673187255859375,0.41015625,0.8759765625
1772697805285212000,5.3152119140625,-0.251708984375,0.4004058837890625,0.8768310546875
1772697805295261000,5.325260986328125,-0.23480224609375,0.39141845703125,0.88018798828125
1772697805305309000,5.335308837890625,-0.2297515869140625,0.392974853515625,0.8805999755859375
1772697805315358000,5.34535791015625,-0.2206268310546875,0.390411376953125,0.9015655517578125
1772697805325406000,5.355406005859375,-0.205535888671875,0.377716064453125,0.9288787841796875
1772697805335455000,5.365455078125,-0.20257568359375,0.3613433837890625,0.9279632568359375
1772697805345503700,5.375503662109375,-0.1965484619140625,0.375030517578125,0.8790740966796875
1772697805355552000,5.385552001953125,-0.188323974609375,0.3655853271484375,0.9055023193359375
1772697805365600800,5.395600830078125,-0.1855926513671875,0.3485260009765625,0.92333984375
1772697805375650000,5.405650146484375,-0.1834259033203125,0.338409423828125,0.9167633056640625
1772697805385697800,5.41569775390625,-0.18316650390625,0.3303985595703125,0.912261962890625
1772697805395747000,5.4257470703125,-0.183074951171875,0.3137359619140625,0.921173095703125
1772697805405794800,5.435794921875,-0.1914825439453125,0.2939300537109375,0.9310150146484375
1772697805415843800,5.44584375,-0.2054595947265625,0.2922821044921875,0.9175872802734375
1772697805425892900,5.455892822265625,-0.2292938232421875,0.2955474853515625,0.9118804931640625
1772697805435940900,5.46594091796875,-0.259521484375,0.31170654296875,0.9138641357421875
1772697805445990000,5.475989990234375,-0.2868804931640625,0.323638916015625,0.916778564453125
1772697805456038000,5.486037841796875,-0.3072052001953125,0.3304443359375,0.9086761474609375
1772697805466087000,5.4960869140625,-0.3159942626953125,0.337799072265625,0.9011077880859375
1772697805476136000,5.506135986328125,-0.3199462890625,0.345855712890625,0.8917083740234375
1772697805486184000,5.516183837890625,-0.3193511962890625,0.356536865234375,0.87860107421875
1772697805496233000,5.52623291015625,-0.3176116943359375,0.3638916015625,0.8740234375
1772697805506281000,5.536281005859375,-0.3153839111328125,0.3683929443359375,0.867645263671875
1772697805516330000,5.546330078125,-0.3155517578125,0.3672027587890625,0.8642425537109375
1772697805526378800,5.556378662109375,-0.310638427734375,0.3607940673828125,0.8724212646484375
1772697805536426800,5.5664267578125,-0.299407958984375,0.3583984375,0.8705596923828125
1772697805546475800,5.576475830078125,-0.2842559814453125,0.354156494140625,0.8652191162109375
1772697805556523800,5.586523681640625,-0.276702880859375,0.3440093994140625,0.86676025390625
1772697805566572800,5.59657275390625,-0.27557373046875,0.33709716796875,0.875213623046875
1772697805576621800,5.606621826171875,-0.272857666015625,0.336822509765625,0.910369873046875
1772697805586669800,5.616669921875,-0.2581939697265625,0.339019775390625,0.965301513671875
1772697805596718800,5.62671875,-0.229248046875,0.3400726318359375,1.0511322021484375
1772697805606766800,5.636766845703125,-0.1906280517578125,0.349761962890625,1.15020751953125
1772697805616815900,5.64681591796875,-0.115966796875,0.3639984130859375,1.24530029296875
1772697805626865000,5.656864990234375,-0.0554962158203125,0.3704681396484375,1.257598876953125
1772697805636913000,5.666912841796875,-0.015655517578125,0.354705810546875,1.2056732177734375
1772697805646962000,5.6769619140625,0.029296875,0.31787109375,1.129852294921875
1772697805657010700,5.6870107421875,0.07623291015625,0.2704315185546875,1.0480804443359375
1772697805667059000,5.697058837890625,0.102325439453125,0.231719970703125,0.971710205078125
1772697805677107700,5.707107666015625,0.1019287109375,0.2118988037109375,0.924224853515625
1772697805687156000,5.717156005859375,0.073822021484375,0.22137451171875,0.8819427490234375
1772697805697204700,5.727204833984375,0.014007568359375,0.2650909423828125,0.844329833984375
1772697805707254000,5.73725390625,-0.04852294921875,0.330322265625,0.855987548828125
1772697805717301800,5.7473017578125,-0.0832061767578125,0.38720703125,0.887451171875
1772697805727351000,5.75735107421875,-0.09869384765625,0.4259796142578125,0.90069580078125
1772697805737399800,5.76739990234375,-0.101806640625,0.4384002685546875,0.8918914794921875
1772697805747448000,5.777447998046875,-0.106170654296875,0.42657470703125,0.8660125732421875
1772697805757496800,5.787496826171875,-0.11126708984375,0.395660400390625,0.846466064453125
1772697805767545000,5.797545166015625,-0.0867919921875,0.3568878173828125,0.8662872314453125
1772697805777593900,5.80759375,-0.0242462158203125,0.322967529296875,0.903076171875
1772697805787643000,5.817642822265625,0.0549468994140625,0.306915283203125,0.9306182861328125
1772697805797691000,5.82769091796875,0.112335205078125,0.293121337890625,0.951568603515625
1772697805807740000,5.837739990234375,0.1416778564453125,0.286834716796875,0.95367431640625
1772697805817788000,5.847787841796875,0.13995361328125,0.291351318359375,0.941131591796875
1772697805827837000,5.8578369140625,0.095733642578125,0.3013153076171875,0.920745849609375
1772697805837886000,5.867885986328125,0.048553466796875,0.302734375,0.9195556640625
1772697805847934000,5.877933837890625,0.0246734619140625,0.2948455810546875,0.904632568359375
1772697805857983000,5.88798291015625,0.017822265625,0.2813262939453125,0.8830718994140625
1772697805868030700,5.89803076171875,0.017730712890625,0.2779388427734375,0.8614349365234375
1772697805878080000,5.908080078125,0.0197296142578125,0.2811737060546875,0.8520050048828125
1772697805888129000,5.91812890625,0.02099609375,0.297882080078125,0.840728759765625
1772697805898177000,5.928177001953125,0.0215606689453125,0.3234710693359375,0.8419952392578125
1772697805908225800,5.938225830078125,0.02423095703125,0.364044189453125,0.870391845703125
1772697805918274000,5.948274169921875,0.027679443359375,0.4044952392578125,0.9129638671875
1772697805928322600,5.958322509765625,0.02508544921875,0.4382781982421875,0.9537353515625
1772697805938371600,5.96837158203125,0.01873779296875,0.4749603271484375,0.9800872802734375
1772697805948419600,5.978419677734375,-0.0059967041015625,0.5028533935546875,1.00067138671875
1772697805958468600,5.988468505859375,-0.0411376953125,0.5167083740234375,1.011383056640625
1772697805968517600,5.998517578125,-0.0762786865234375,0.52252197265625,1.01495361328125
1772697805978565600,6.008565673828125,-0.103790283203125,0.5135650634765625,1.012115478515625
1772697805988614700,6.01861474609375,-0.11712646484375,0.489532470703125,1.002197265625
1772697805998662700,6.02866259765625,-0.1339569091796875,0.468292236328125,0.999664306640625
1772697806008711700,6.038711669921875,-0.1481170654296875,0.4513092041015625,0.990234375
1772697806018760700,6.0487607421875,-0.1522064208984375,0.4346466064453125,0.981842041015625
1772697806028808700,6.05880859375,-0.1592864990234375,0.4290924072265625,0.960845947265625
1772697806038857700,6.068857666015625,-0.1800689697265625,0.432220458984375,0.9410400390625
1772697806048905700,6.07890576171875,-0.1962738037109375,0.4417572021484375,0.8997344970703125
1772697806058954800,6.088954833984375,-0.203033447265625,0.4456939697265625,0.8629150390625
1772697806069003500,6.09900341796875,-0.2039947509765625,0.44427490234375,0.856353759765625
1772697806079051800,6.1090517578125,-0.2099609375,0.4550323486328125,0.82958984375
1772697806089100500,6.1191005859375,-0.2342987060546875,0.477996826171875,0.8154754638671875
1772697806099148800,6.129148681640625,-0.265228271484375,0.496002197265625,0.8218994140625
1772697806109197600,6.139197509765625,-0.294830322265625,0.5045623779296875,0.8444061279296875
1772697806119246800,6.149246826171875,-0.312652587890625,0.5059967041015625,0.857086181640625
1772697806129294600,6.159294677734375,-0.3230133056640625,0.4930877685546875,0.8487548828125
1772697806139343600,6.169343505859375,-0.3419036865234375,0.4755706787109375,0.850250244140625
1772697806149391600,6.1793916015625,-0.34332275390625,0.45123291015625,0.8397216796875
1772697806159440600,6.189440673828125,-0.330291748046875,0.4239349365234375,0.8238983154296875
1772697806169489700,6.19948974609375,-0.2930450439453125,0.3988037109375,0.8291778564453125
1772697806179537400,6.209537353515625,-0.240203857421875,0.38812255859375,0.84527587890625
1772697806189586700,6.219586669921875,-0.1941070556640625,0.389556884765625,0.850616455078125
1772697806199635700,6.2296357421875,-0.1619110107421875,0.394195556640625,0.866241455078125
1772697806209683700,6.23968359375,-0.126556396484375,0.4015960693359375,0.8845977783203125
1772697806219732500,6.249732421875,-0.0956268310546875,0.4095916748046875,0.8975830078125
1772697806229780700,6.25978076171875,-0.0686492919921875,0.424407958984375,0.8987884521484375
1772697806239829500,6.26982958984375,-0.0465087890625,0.4385833740234375,0.897125244140625
1772697806249878500,6.27987841796875,-0.0283660888671875,0.458251953125,0.898468017578125
1772697806259926500,6.289926513671875,-0.029541015625,0.4757080078125,0.8950958251953125
1772697806269975600,6.2999755859375,-0.0437774658203125,0.5028839111328125,0.8782501220703125
1772697806280023600,6.3100234375,-0.0691070556640625,0.5271453857421875,0.867919921875
1772697806290072600,6.320072509765625,-0.0992889404296875,0.5417022705078125,0.86175537109375
1772697806300121600,6.33012158203125,-0.126373291015625,0.5542144775390625,0.8564910888671875
1772697806310169600,6.340169677734375,-0.1536407470703125,0.5609588623046875,0.8519287109375
1772697806320218600,6.350218505859375,-0.186065673828125,0.5650787353515625,0.84344482421875
1772697806330266600,6.3602666015625,-0.213958740234375,0.569671630859375,0.830963134765625
1772697806340315600,6.370315673828125,-0.2522735595703125,0.57275390625,0.811279296875
1772697806350364700,6.38036474609375,-0.2984161376953125,0.5701751708984375,0.797821044921875
1772697806360412700,6.39041259765625,-0.335601806640625,0.556640625,0.798187255859375
1772697806370461700,6.400461669921875,-0.366180419921875,0.5458526611328125,0.7904052734375
1772697806380509700,6.410509765625,-0.3895263671875,0.530609130859375,0.7750244140625
1772697806390558700,6.420558837890625,-0.4134368896484375,0.51922607421875,0.76031494140625
1772697806400607500,6.430607421875,-0.4293212890625,0.5113525390625,0.75421142578125
1772697806410655700,6.44065576171875,-0.4425048828125,0.4935302734375,0.75286865234375
1772697806420704500,6.45070458984375,-0.4513092041015625,0.485687255859375,0.7497100830078125
1772697806430752800,6.460752685546875,-0.4486846923828125,0.4748687744140625,0.748626708984375
1772697806440801500,6.470801513671875,-0.42901611328125,0.464324951171875,0.7508087158203125
1772697806450850800,6.480850830078125,-0.41339111328125,0.4547271728515625,0.763336181640625
1772697806460898600,6.490898681640625,-0.404388427734375,0.435394287109375,0.769775390625
1772697806470947800,6.50094775390625,-0.3934783935546875,0.4124603271484375,0.785369873046875
1772697806480996600,6.51099658203125,-0.388763427734375,0.3958282470703125,0.801177978515625
1772697806491044600,6.521044677734375,-0.38336181640625,0.3914794921875,0.8155364990234375
1772697806501093600,6.53109375,-0.3792572021484375,0.387603759765625,0.823944091796875
1772697806511141600,6.5411416015625,-0.37506103515625,0.3887939453125,0.847259521484375
1772697806521190700,6.551190673828125,-0.372467041015625,0.3903045654296875,0.857940673828125
1772697806531239700,6.56123974609375,-0.372772216796875,0.3895721435546875,0.862152099609375
1772697806541287700,6.57128759765625,-0.3719940185546875,0.386688232421875,0.8630218505859375
1772697806551336400,6.58133642578125,-0.37078857421875,0.3777923583984375,0.8605194091796875
1772697806561384700,6.591384765625,-0.3696441650390625,0.3714447021484375,0.852020263671875
1772697806571433500,6.60143359375,-0.3744354248046875,0.370391845703125,0.8350982666015625
1772697806581482800,6.611482666015625,-0.3811798095703125,0.366302490234375,0.83807373046875
1772697806591530500,6.621530517578125,-0.3826446533203125,0.3542633056640625,0.84521484375
1772697806601579800,6.631579833984375,-0.391693115234375,0.3526153564453125,0.84185791015625
1772697806611627500,6.64162744140625,-0.3968658447265625,0.3583526611328125,0.8421478271484375
1772697806621676800,6.6516767578125,-0.3961944580078125,0.37261962890625,0.848419189453125
1772697806631725600,6.6617255859375,-0.3899688720703125,0.404998779296875,0.858123779296875
1772697806641773800,6.67177392578125,-0.37066650390625,0.4588470458984375,0.883148193359375
1772697806651822600,6.681822509765625,-0.3426361083984375,0.5299072265625,0.922210693359375
1772697806661870600,6.69187060546875,-0.3080902099609375,0.592376708984375,0.9741363525390625
1772697806671919600,6.701919677734375,-0.266815185546875,0.6212158203125,1.0186920166015625
1772697806681968600,6.71196875,-0.2253570556640625,0.601287841796875,1.0417327880859375
1772697806692016600,6.7220166015625,-0.1830596923828125,0.5184173583984375,1.026885986328125
1772697806702065700,6.732065673828125,-0.15924072265625,0.4232635498046875,0.956756591796875
1772697806712113700,6.74211376953125,-0.1638641357421875,0.3641357421875,0.8875885009765625
1772697806722162700,6.75216259765625,-0.195343017578125,0.356170654296875,0.8412933349609375
1772697806732211700,6.762211669921875,-0.2456512451171875,0.4006500244140625,0.7981719970703125
1772697806742259700,6.772259765625,-0.27740478515625,0.4832000732421875,0.779754638671875
1772697806752308500,6.78230859375,-0.27667236328125,0.5627593994140625,0.7920379638671875
1772697806762357800,6.792357666015625,-0.264984130859375,0.6229095458984375,0.816925048828125
1772697806772405500,6.802405517578125,-0.25341796875,0.6471405029296875,0.8329925537109375
1772697806782454800,6.812454833984375,-0.242431640625,0.6395416259765625,0.829345703125
1772697806792502500,6.82250244140625,-0.2346038818359375,0.604248046875,0.8258209228515625
1772697806802551800,6.8325517578125,-0.235870361328125,0.5545806884765625,0.8297271728515625
1772697806812600600,6.8426005859375,-0.2464599609375,0.4974517822265625,0.833526611328125
1772697806822648600,6.852648681640625,-0.2610321044921875,0.4596710205078125,0.8170623779296875
1772697806832697600,6.862697509765625,-0.284759521484375,0.4362335205078125,0.8009490966796875
1772697806842745600,6.87274560546875,-0.31597900390625,0.44329833984375,0.815155029296875
1772697806852794600,6.882794677734375,-0.3371734619140625,0.4570159912109375,0.8076019287109375
1772697806862843600,6.89284375,-0.3591156005859375,0.4566497802734375,0.7306365966796875
1772697806872891600,6.9028916015625,-0.3800201416015625,0.4427032470703125,0.7280426025390625
1772697806882940400,6.9129404296875,-0.36767578125,0.4293365478515625,0.7587890625
1772697806892988700,6.92298876953125,-0.3498382568359375,0.4341583251953125,0.782073974609375
1772697806903037400,6.933037353515625,-0.3521881103515625,0.44500732421875,0.7796478271484375
1772697806913086700,6.943086669921875,-0.357269287109375,0.4240570068359375,0.7720489501953125
1772697806923134500,6.953134521484375,-0.3266143798828125,0.4015045166015625,0.7737579345703125
1772697806933183500,6.96318359375,-0.2567901611328125,0.3974609375,0.750274658203125
1772697806943231200,6.973231201171875,-0.20916748046875,0.411651611328125,0.7021484375
1772697806953280500,6.983280517578125,-0.144622802734375,0.422393798828125,0.737701416015625
1772697806963329300,6.993329345703125,-0.0539703369140625,0.449493408203125,0.7759857177734375
1772697806973377500,7.00337744140625,0.0550079345703125,0.457305908203125,0.8111114501953125
1772697806983426300,7.01342626953125,0.216278076171875,0.502777099609375,0.8590545654296875
1772697806993474600,7.023474609375,0.4379119873046875,0.60882568359375,0.9169921875
1772697807003523300,7.0335234375,0.5313873291015625,0.613922119140625,0.9546661376953125
1772697807013572400,7.043572265625,0.29180908203125,0.476470947265625,0.9794158935546875
1772697807023620400,7.053620361328125,0.0527191162109375,0.341094970703125,1.052337646484375
1772697807033669400,7.06366943359375,-0.1833343505859375,0.2857818603515625,1.12432861328125
1772697807043718400,7.073718505859375,-0.5735321044921875,0.277099609375,1.2420806884765625
1772697807053766400,7.083766357421875,-0.7503204345703125,0.27252197265625,1.2960662841796875
1772697807063815400,7.0938154296875,-0.558990478515625,0.262908935546875,1.1061553955078125
1772697807073863400,7.103863525390625,-0.3983917236328125,0.1872100830078125,0.9482421875
1772697807083912400,7.113912353515625,-0.2920989990234375,0.16241455078125,0.8860931396484375
1772697807093961500,7.12396142578125,-0.2419586181640625,0.211395263671875,0.874847412109375
1772697807104009500,7.134009521484375,-0.2695465087890625,0.2949371337890625,0.8801422119140625
1772697807114058500,7.14405859375,-0.3019866943359375,0.3458404541015625,0.8927764892578125
1772697807124106500,7.1541064453125,-0.294189453125,0.319854736328125,0.917633056640625
1772697807134155300,7.1641552734375,-0.2294921875,0.2608795166015625,0.9184417724609375
1772697807144204300,7.174204345703125,-0.1809844970703125,0.228485107421875,0.9313812255859375
1772697807154252300,7.184252197265625,-0.1262969970703125,0.2531890869140625,0.9338836669921875
1772697807164301300,7.19430126953125,-0.1075286865234375,0.3045196533203125,0.9388885498046875
1772697807174349300,7.204349365234375,-0.136810302734375,0.3499603271484375,0.92681884765625
1772697807184398300,7.2143984375,-0.2179107666015625,0.3640289306640625,0.888031005859375
1772697807194447400,7.224447265625,-0.2506256103515625,0.360687255859375,0.8621673583984375
1772697807204495400,7.234495361328125,-0.2385711669921875,0.35638427734375,0.87628173828125
1772697807214544400,7.24454443359375,-0.2253265380859375,0.359039306640625,0.8896484375
1772697807224592400,7.25459228515625,-0.2257232666015625,0.3638916015625,0.88031005859375
1772697807234641400,7.264641357421875,-0.24371337890625,0.3666229248046875,0.85882568359375
1772697807244690400,7.2746904296875,-0.2495574951171875,0.3687744140625,0.8532257080078125
1772697807254738400,7.284738525390625,-0.2599945068359375,0.3790435791015625,0.851837158203125
1772697807264787500,7.294787353515625,-0.2597503662109375,0.3772125244140625,0.8695526123046875
1772697807274835500,7.30483544921875,-0.26373291015625,0.3664703369140625,0.8823699951171875
1772697807284884500,7.314884521484375,-0.2631683349609375,0.3563995361328125,0.8986663818359375
1772697807294933200,7.324933349609375,-0.26995849609375,0.3553009033203125,0.9110107421875
1772697807304981500,7.3349814453125,-0.2651824951171875,0.3576812744140625,0.9163360595703125
1772697807315030300,7.3450302734375,-0.266143798828125,0.3498992919921875,0.905853271484375
1772697807325079600,7.35507958984375,-0.27618408203125,0.33660888671875,0.8941802978515625
1772697807335127300,7.365127197265625,-0.2776641845703125,0.3366241455078125,0.887237548828125
1772697807345176600,7.375176513671875,-0.2726898193359375,0.343109130859375,0.885528564453125
1772697807355224300,7.385224365234375,-0.2718048095703125,0.3498992919921875,0.892120361328125
1772697807365273600,7.395273681640625,-0.2823944091796875,0.3513641357421875,0.9017181396484375
1772697807375322400,7.405322265625,-0.2948150634765625,0.3486175537109375,0.9055633544921875
1772697807385370400,7.415370361328125,-0.29034423828125,0.3415679931640625,0.905731201171875
1772697807395419400,7.42541943359375,-0.280670166015625,0.3383941650390625,0.9140777587890625
1772697807405467400,7.43546728515625,-0.2765350341796875,0.3424072265625,0.9276275634765625
1772697807415516400,7.445516357421875,-0.2719573974609375,0.34893798828125,0.9375457763671875
1772697807425565400,7.4555654296875,-0.2687835693359375,0.350677490234375,0.92950439453125
1772697807435613400,7.465613525390625,-0.27130126953125,0.3529205322265625,0.9191131591796875
1772697807445662500,7.475662353515625,-0.27276611328125,0.3634796142578125,0.9102325439453125
1772697807455710500,7.48571044921875,-0.2811737060546875,0.3766326904296875,0.9012451171875
1772697807465759200,7.49575927734375,-0.2928619384765625,0.384185791015625,0.9003753662109375
1772697807475808300,7.505808349609375,-0.301666259765625,0.38714599609375,0.89892578125
1772697807485856300,7.515856201171875,-0.30560302734375,0.3917999267578125,0.893310546875
1772697807495905300,7.5259052734375,-0.306488037109375,0.3870391845703125,0.887237548828125
1772697807505953300,7.535953369140625,-0.3022308349609375,0.3764190673828125,0.8845062255859375
1772697807516002300,7.546002197265625,-0.2881011962890625,0.3737945556640625,0.8862457275390625
1772697807526051300,7.55605126953125,-0.276702880859375,0.3673248291015625,0.89300537109375
1772697807536099300,7.566099365234375,-0.265777587890625,0.3570098876953125,0.896240234375
1772697807546148400,7.5761484375,-0.2574005126953125,0.3458404541015625,0.8964996337890625
1772697807556196400,7.5861962890625,-0.2549896240234375,0.3346099853515625,0.8932342529296875
1772697807566245400,7.596245361328125,-0.2522430419921875,0.3349761962890625,0.8889923095703125
1772697807576294400,7.60629443359375,-0.256622314453125,0.3399200439453125,0.892486572265625
1772697807586342400,7.61634228515625,-0.265472412109375,0.352935791015625,0.894927978515625
1772697807596391400,7.626391357421875,-0.274139404296875,0.357208251953125,0.8972930908203125
1772697807606440200,7.636440185546875,-0.2862396240234375,0.3556060791015625,0.894195556640625
1772697807616488400,7.646488525390625,-0.293243408203125,0.3595733642578125,0.8905792236328125
1772697807626537200,7.656537109375,-0.293426513671875,0.3615570068359375,0.8898468017578125
1772697807636585500,7.66658544921875,-0.29443359375,0.3636016845703125,0.895782470703125
1772697807646634200,7.67663427734375,-0.2952728271484375,0.3614959716796875,0.8969573974609375
1772697807656683500,7.68668359375,-0.300537109375,0.3546295166015625,0.8969573974609375
1772697807666731300,7.696731201171875,-0.2975006103515625,0.3553314208984375,0.9032745361328125
1772697807676780500,7.706780517578125,-0.3090667724609375,0.3607940673828125,0.898712158203125
1772697807686828300,7.716828369140625,-0.319244384765625,0.36676025390625,0.8899688720703125
1772697807696877600,7.726877685546875,-0.3265838623046875,0.3778228759765625,0.879425048828125
1772697807706926300,7.73692626953125,-0.3184814453125,0.3887176513671875,0.878326416015625
1772697807716974600,7.746974609375,-0.3175201416015625,0.390594482421875,0.8806915283203125
1772697807727023400,7.7570234375,-0.309326171875,0.38690185546875,0.8852996826171875
1772697807737071400,7.7670712890625,-0.311920166015625,0.383544921875,0.8748321533203125
1772697807747120400,7.777120361328125,-0.30023193359375,0.3808135986328125,0.8744049072265625
1772697807757169400,7.78716943359375,-0.2860870361328125,0.3806610107421875,0.8728179931640625
1772697807767217400,7.797217529296875,-0.2862548828125,0.382354736328125,0.8713531494140625
1772697807777266400,7.807266357421875,-0.2897491455078125,0.382598876953125,0.8687744140625
1772697807787314400,7.817314453125,-0.298004150390625,0.3876495361328125,0.8657989501953125
1772697807797363200,7.82736328125,-0.2960205078125,0.3876800537109375,0.868804931640625
1772697807807412500,7.83741259765625,-0.2954254150390625,0.3828582763671875,0.87646484375
1772697807817460200,7.847460205078125,-0.29571533203125,0.3734893798828125,0.8764495849609375
1772697807827509500,7.857509521484375,-0.31182861328125,0.36749267578125,0.871368408203125
1772697807837557200,7.86755712890625,-0.289276123046875,0.3662261962890625,0.87042236328125
1772697807847606500,7.8776064453125,-0.27471923828125,0.366607666015625,0.8701019287109375
1772697807857655300,7.8876552734375,-0.2721099853515625,0.3701171875,0.87213134765625
1772697807867703600,7.89770361328125,-0.2847442626953125,0.370208740234375,0.8739166259765625
1772697807877752300,7.90775244140625,-0.3022003173828125,0.3681488037109375,0.87738037109375
1772697807887801300,7.91780126953125,-0.30621337890625,0.37042236328125,0.8839569091796875
1772697807897849300,7.927849365234375,-0.305419921875,0.3749237060546875,0.8816070556640625
1772697807907898400,7.9378984375,-0.2997894287109375,0.3726348876953125,0.8861846923828125
1772697807917946400,7.9479462890625,-0.2959442138671875,0.3684844970703125,0.8874053955078125
1772697807927996000,7.957995849609375,-0.3176422119140625,0.3690338134765625,0.8882293701171875
1772697807938045000,7.968044921875,-0.2893829345703125,0.372406005859375,0.8909149169921875
1772697807948093000,7.978093017578125,-0.2780303955078125,0.37347412109375,0.886474609375
1772697807958142000,7.988141845703125,-0.2873382568359375,0.3725738525390625,0.8779144287109375
1772697807968190000,7.99818994140625,-0.3061676025390625,0.3736572265625,0.870513916015625
1772697807978239000,8.008239013671876,-0.31005859375,0.3752593994140625,0.8740234375
1772697807988288000,8.0182880859375,-0.3070526123046875,0.3788604736328125,0.8790740966796875
1772697807998336000,8.0283359375,-0.3033447265625,0.386322021484375,0.8808746337890625
1772697808008385000,8.038385009765625,-0.314056396484375,0.38238525390625,0.874176025390625
1772697808018433000,8.04843310546875,-0.2885284423828125,0.38409423828125,0.8746795654296875
1772697808028482000,8.05848193359375,-0.2753753662109375,0.382568359375,0.871917724609375
1772697808038531000,8.068531005859375,-0.2677459716796875,0.382720947265625,0.8709564208984375
1772697808048579000,8.0785791015625,-0.25592041015625,0.3771514892578125,0.8669281005859375
1772697808058628000,8.088628173828125,-0.2244110107421875,0.3849945068359375,0.871124267578125
1772697808068676000,8.098676025390626,-0.2825927734375,0.375885009765625,0.8969879150390625
1772697808078725000,8.10872509765625,-0.3108978271484375,0.3557891845703125,0.884307861328125
1772697808088774000,8.11877392578125,-0.2979888916015625,0.351654052734375,0.8872222900390625
1772697808098822100,8.128822265625,-0.301422119140625,0.36151123046875,0.8867950439453125
1772697808108871000,8.138870849609376,-0.3230743408203125,0.374053955078125,0.8845672607421875
1772697808118919000,8.1489189453125,-0.334503173828125,0.3899688720703125,0.8701019287109375
1772697808128968000,8.158968017578125,-0.326263427734375,0.3846435546875,0.8583221435546875
1772697808139017200,8.169017333984375,-0.2974853515625,0.371124267578125,0.875579833984375
