time,seconds_elapsed,z,y,x
1772701991952406800,0.06540673828125,-0.005767477485537529,0.20248108600117265,0.10665537112355232
1772701991962456000,0.0754560546875,0.10122224015891551,0.10778035656549036,0.05457184040397405
1772701991972504800,0.0855048828125,0.1633499027699232,-0.026873686139285563,-0.02440934185236692
1772701991982553900,0.095553955078125,0.18099369601011275,-0.09416516125425696,-0.05027414321005344
1772701991992603000,0.105602783203125,0.14394436055421828,-0.08089987535923719,-0.0539686138138175
1772701992002652000,0.11565185546875,0.10592179615199565,-0.12767507053762672,-0.027934885630011556
1772701992012701000,0.125700927734375,0.12840484611690042,-0.11678287044949828,0.027022739221155643
1772701992022750000,0.13575,0.14074702581763265,-0.08238141915388404,0.09706599726229906
1772701992032800000,0.145800048828125,0.16510463748276233,-0.014978081162273883,0.14878303275704383
1772701992042848800,0.155848876953125,0.1494382817953825,0.03834755857288837,0.208479668828845
1772701992052898000,0.16589794921875,0.13606734356880187,0.05710435455627739,0.28507074107825753
1772701992062947000,0.175947021484375,0.14446458503603934,0.024133374455198645,0.34302696322351695
1772701992072995800,0.185995849609375,0.1360626673936844,0.030782822407037017,0.40734512161612507
1772701992083045000,0.196045166015625,0.163637487539649,0.020739640363678334,0.3762129012495279
1772701992093094000,0.206093994140625,0.257615163397789,0.0027332243561744686,0.31741905923634767
1772701992103143000,0.216142822265625,0.33092531428039074,-0.0019144553191959856,0.23755320309996603
1772701992113192000,0.22619189453125,0.3251484844446182,0.02205101522319019,0.2685708571761846
1772701992123242000,0.236241943359375,0.29671675520837304,0.020228549036383627,0.25045623155385255
1772701992133291000,0.246291015625,0.3112140671163797,0.05050546774789691,0.18271891236752272
1772701992143339800,0.25633984375,0.2595008310139179,0.0348095937050879,0.1436447930857539
1772701992153389000,0.26638916015625,0.26787352256178854,0.014655352013930678,0.11542203042507171
1772701992163437800,0.276437744140625,0.31382278831005095,0.027022154699265954,0.08822510368078947
1772701992173486800,0.28648681640625,0.34661505084335803,0.026474238492920993,0.06938216378390788
1772701992183535900,0.296535888671875,0.4703261861860752,0.04457534704655409,0.04541939665526151
1772701992193585000,0.3065849609375,0.610138561502099,0.05608611742444336,-0.03336275589764118
1772701992203635000,0.316635009765625,0.701104196062684,0.02691606397628784,-0.05877776766121387
1772701992213684000,0.32668408203125,0.7818406975537538,0.04105513703115284,-0.06774257988333701
1772701992223733000,0.33673291015625,0.8353712122112512,0.03784326231256127,-0.11208353365212678
1772701992233781800,0.34678173828125,0.8509820383191108,0.031545988799259066,-0.16037585539519786
1772701992243831000,0.3568310546875,0.8798539125382899,0.07672463550120592,-0.11565730048567056
1772701992253880000,0.366880126953125,0.8496148416191339,0.11410846360847353,-0.02874006453305483
1772701992263928800,0.3769287109375,0.8079641498476267,0.14293167638033627,0.03488397411555052
1772701992273978000,0.38697802734375,0.7914905694305896,0.15682422732822596,0.12736205906569956
1772701992284027000,0.39702685546875,0.7814344548404216,0.2106985869873315,0.2539502111494541
1772701992294077000,0.407076904296875,0.8517524381697177,0.31829803402796386,0.2808335418999195
1772701992304126000,0.4171259765625,0.9679916301965713,0.46736134503111243,0.30530396628975864
1772701992314175000,0.427175048828125,1.0970622467458246,0.5307635576225816,0.30821897695362566
1772701992324224000,0.43722412109375,1.242716918349266,0.43127018708288667,0.32658348568379875
1772701992334272800,0.447272705078125,1.293652155816555,0.29165844890549775,0.3202981218039989
1772701992344322000,0.457322021484375,1.3421698107481002,0.27927432975918054,0.2447007367670536
1772701992354370800,0.467370849609375,1.3774573972284794,0.21571707273647187,0.17504209412932395
1772701992364419800,0.477419921875,1.3349112179219722,0.09665697806999086,0.06968786873221397
1772701992374470000,0.487469970703125,1.3163888882815837,0.06768544286862015,-0.1984282304137945
1772701992384519000,0.497518798828125,1.3935861097306013,-0.006052431906759739,-0.4667179325610399
1772701992394568000,0.50756787109375,1.5626748484134674,-0.12594970804974437,-0.6895248174279928
1772701992404616400,0.517616455078125,1.6706851412773132,-0.21035174631103873,-0.8417635435968637
1772701992414665200,0.527665283203125,1.8255916253507136,-0.2052694746106863,-1.007056397128105
1772701992424714200,0.53771435546875,1.9747586889892816,-0.15417700075507162,-1.1822779394775629
1772701992434763300,0.54776318359375,2.083480929514766,-0.2950423922553658,-1.2700059072911738
1772701992444812300,0.557812255859375,2.1492940026402474,-0.40079380027651784,-1.3834429013788698
1772701992454861300,0.567861328125,2.3050270006656643,-0.47575756358504295,-1.6736100888133048
1772701992464911000,0.5779111328125,2.5126813245862722,-0.4826755262799561,-2.0496523096710444
1772701992474960400,0.58796044921875,2.670835996800661,-0.49539267677292226,-2.4406080220222472
1772701992485009200,0.598009033203125,2.9990403616845605,-0.5135461731009185,-2.837910473051667
1772701992495058200,0.60805810546875,3.4803824474036693,-0.720396779423207,-3.250868758374452
1772701992505107500,0.618107421875,3.969439053022861,-0.8597584883622824,-3.6475533697664737
1772701992515156200,0.62815625,4.3569723897099495,-0.9600365795388818,-3.9458138472855087
1772701992525205200,0.638205322265625,4.533481633782387,-1.1715708136327565,-4.078098165184259
1772701992535254300,0.648254150390625,4.37937009947896,-1.4175221349827944,-3.897351137411594
1772701992545304300,0.65830419921875,3.7213317226827143,-1.6179695962645113,-3.3025679659515617
1772701992555353300,0.668353271484375,2.3454238929837943,-1.6582973688691853,-2.2315642895698544
1772701992565402400,0.67840234375,0.41047231372594833,-1.425550689268112,-0.9887509251087904
1772701992575451400,0.688451416015625,-1.6278507926791905,-0.8645781636036932,0.32244273261725903
1772701992585500200,0.698500244140625,-4.00698347851932,-0.24302038246467708,1.4573124397099018
1772701992595549400,0.708549560546875,-6.023015842661261,0.3470456973455846,2.3236826012969014
1772701992605598200,0.71859814453125,-7.620989383471012,0.7226612172238528,3.0263579921990633
1772701992615647200,0.728647216796875,-8.990277502769231,0.8472006200842559,3.7361809167683124
1772701992625696300,0.7386962890625,-10.527823755145072,0.8775709161676466,4.549326268646121
1772701992635746300,0.748746337890625,-12.176371883416175,1.0533372329182922,5.1232636359542605
1772701992645795300,0.75879541015625,-13.64134155988097,1.3928336839281021,5.528170132246613
1772701992655844000,0.768843994140625,-14.91784735058546,1.7194506334900854,6.168354287922382
1772701992665893400,0.778893310546875,-16.174181290876863,2.1013686145134267,6.931729354459047
1772701992675942100,0.788942138671875,-17.34912640324831,2.3138500663295387,8.059824452850222
1772701992685991200,0.7989912109375,-18.117361184775827,2.328503153321147,9.215939777067303
1772701992696040400,0.80904052734375,-18.85116178178191,2.285570312784612,9.906190570682286
1772701992706089200,0.819089111328125,-19.282247844469545,2.892282699230313,10.228721566104888
1772701992716139300,0.82913916015625,-19.46758336907625,3.196008456417918,10.435558143901824
1772701992726188300,0.839188232421875,-19.101040213447806,3.1584096703857183,10.75267412853837
1772701992736237300,0.8492373046875,-17.361057664060592,2.963223782894015,10.84092524344325
1772701992746286300,0.859286376953125,-14.847176316034792,2.6639713717281817,10.419460411059855
1772701992756335400,0.86933544921875,-11.917808625513315,2.63437644393146,9.409784771344064
1772701992766384400,0.87938427734375,-8.581133222776652,2.5948101572185753,8.063995016533136
1772701992776433200,0.88943310546875,-5.036607096764445,2.5708371609568594,6.384340971380472
1772701992786482400,0.899482421875,-1.199825286605954,2.4563214317217468,4.941154087656736
1772701992796531200,0.90953125,2.3979057753711936,1.9540724593132732,4.132745993433892
1772701992806581200,0.919581298828125,5.458161945518851,1.4873421056620775,3.4176039196684953
1772701992816630300,0.92963037109375,8.034879981207848,1.1072473214779048,2.3845193473145363
1772701992826679300,0.93967919921875,9.972050990080833,0.764010003439337,0.9878455007016658
1772701992836728300,0.949728271484375,11.639241859501599,0.289617225401476,-0.4679170792177319
1772701992846777000,0.959777099609375,13.025794417333602,-0.43564854829758404,-1.5780287771508097
1772701992856826400,0.969826416015625,14.167866018629073,-1.2614961453601716,-2.3965599137201905
1772701992866875400,0.97987548828125,14.886725067090987,-1.9919021314918994,-3.1278938283517954
1772701992876924200,0.989924072265625,15.193629454314708,-2.559252813886106,-3.7765436145558953
1772701992886974200,0.99997412109375,15.273348887717724,-2.794137382298708,-4.306902244639397
1772701992897023200,1.010023193359375,15.133977826428412,-2.831310636395216,-4.805475451144575
1772701992907072300,1.020072265625,14.774738856333494,-2.8743495676547286,-4.776260170315206
1772701992917121500,1.03012158203125,14.588462251484394,-3.080218177202344,-4.87128443261683
1772701992927170300,1.04017041015625,14.591160404527187,-2.4537673633247614,-5.276478513678908
1772701992937219300,1.05021923828125,14.223350005441903,-2.1476815990075466,-5.434848289948701
1772701992947268400,1.060268310546875,13.572839101541042,-1.7890321192383765,-5.334686957019567
1772701992957317400,1.0703173828125,12.520505638837813,-1.5875556071698664,-4.880299221460521
1772701992967366100,1.0803662109375,11.372291881525516,-1.5474657349742948,-4.21023284547925
1772701992977416200,1.090416259765625,10.383505300581454,-1.4203332468807697,-3.924930925993621
1772701992987465500,1.100465576171875,9.552979190313815,-1.2303718160390853,-3.8405128133803603
1772701992997514200,1.11051416015625,8.858040531143546,-0.9685714759111403,-3.791872116591036
1772701993007563300,1.120563232421875,8.311835804891587,-0.7799477234140038,-3.6650735366269944
1772701993017612300,1.1306123046875,7.958274880433082,-0.7546356605682522,-3.5059847984328862
1772701993027661300,1.140661376953125,7.630809351217747,-0.8320328615687788,-3.3131907745137807
1772701993037710000,1.1507099609375,7.411501414382458,-0.8803767673686146,-3.1590903461262583
1772701993047759400,1.16075927734375,7.278646603119373,-1.0737236759301274,-3.1370085704386232
1772701993057809400,1.170809326171875,7.205061726948618,-1.1396881402250378,-3.300898863695562
1772701993067858200,1.180858154296875,7.263504563567042,-1.0703138674866408,-3.50017757345885
1772701993077907200,1.1909072265625,7.405003869056701,-0.9438035298794507,-3.6000685650140043
1772701993087956200,1.200956298828125,7.452403333613276,-0.7923239515148103,-3.5340266515687104
1772701993098005200,1.211005126953125,7.4596905680119985,-0.5905643847212195,-3.2742358976975083
1772701993108054300,1.22105419921875,7.318571201750635,-0.547948428114131,-2.9143340797796844
1772701993118103300,1.231103271484375,6.934820890733599,-0.5594321643546223,-2.4822853095397353
1772701993128152300,1.24115234375,6.457499146571755,-0.49175190911777317,-2.2660899517670274
1772701993138201300,1.251201416015625,6.137839907193183,-0.3288558145299554,-2.0787273052468893
1772701993148251400,1.26125146484375,5.913996665015817,-0.23359365181922911,-2.026661310184002
1772701993158300400,1.271300537109375,5.1096507056653495,0.034121830636635424,-1.4025100054204462
1772701993168349200,1.28134912109375,2.993852729913592,0.7024010309401899,0.20141835214048623
1772701993178398500,1.2913984375,-0.41388533703982827,2.1213892198875546,2.6211720944434402
1772701993188447200,1.301447265625,-5.588928260070086,4.08926896301806,6.000278525674343
1772701993198496300,1.311496337890625,-12.147529235291481,6.2142310729563235,10.962130533444881
1772701993208545300,1.321545166015625,-18.933031086695195,7.755935614055395,15.703102240496873
1772701993218594300,1.33159423828125,-24.75437109532356,7.6292954395234585,16.5905315567255
1772701993228644400,1.341644287109375,-26.30417710981369,7.209501755222678,14.717524684727191
1772701993238693000,1.351693115234375,-25.630092438101766,6.096870183423161,13.990222802090644
1772701993248742400,1.361742431640625,-26.24043149061203,5.50687716884911,12.450068413043022
1772701993258791200,1.371791259765625,-24.92770287840366,5.008170691353082,10.409878928244114
1772701993268840200,1.381840087890625,-20.07354318358898,3.8230151506125924,8.681525441852212
1772701993278889200,1.39188916015625,-14.507113171052932,2.585733701315522,6.001220774960517
1772701993288938200,1.401938232421875,-9.545052488967777,1.2906576501756906,3.361646762385964
1772701993298987300,1.4119873046875,-5.273680407392979,0.14808496749028563,0.755040368911624
1772701993309036300,1.422036376953125,-2.2274089234560726,-0.7223632571905851,-1.452106687760353
1772701993319086300,1.43208642578125,-0.3370516882061958,-1.5856529884189365,-3.112338824084401
1772701993329135000,1.442135009765625,1.3447814545512198,-1.9411909120388329,-4.30234472746551
1772701993339184400,1.452184326171875,3.078175273197889,-2.7152701818108556,-5.02033517639935
1772701993349233400,1.4622333984375,4.8171004224866625,-3.480172019523382,-5.509889210146666
1772701993359282200,1.4722822265625,6.248351369222998,-3.7517642703473566,-5.749855319607257
1772701993369331500,1.48233154296875,7.495207287073135,-3.913295140996575,-5.902382215067744
1772701993379380200,1.492380126953125,8.693041107600926,-3.9913685607582328,-5.780396588343382
1772701993389429200,1.50242919921875,9.36579891462326,-4.016782987999916,-5.521735130763053
1772701993399479300,1.512479248046875,9.509137710499763,-3.3253046984165904,-5.2142129039019345
1772701993409528300,1.5225283203125,9.531451833638549,-2.839347227856517,-4.66342961768806
1772701993419577300,1.532577392578125,9.32625776235163,-2.921749616733193,-4.219711452442407
1772701993429626000,1.542626220703125,8.869487807831169,-3.0966525946527717,-3.7311990367025136
1772701993439675400,1.55267529296875,8.499649702310561,-3.012027561290562,-3.2730414272159334
1772701993449724200,1.56272412109375,8.21162186499238,-2.8793805475592613,-3.2495126675903796
1772701993459773200,1.572773193359375,7.988988583126663,-2.674972658213973,-3.2535072901844977
1772701993469822500,1.582822509765625,7.91370508634448,-2.3056996392302214,-3.100809129810333
1772701993479872300,1.592872314453125,7.730184502205252,-1.6024299356967209,-2.8560844276458024
1772701993489921300,1.60292138671875,7.113817275446653,-0.648241643794626,-2.351326395025849
1772701993499970300,1.61297021484375,5.926604217654466,-0.013359101658314465,-1.582657313734293
1772701993510019300,1.623019287109375,4.373866241365671,0.3776594467960298,-0.6456535269975662
1772701993520068400,1.633068359375,2.8547768521785732,0.9914224824056028,0.22063713961243628
1772701993530117400,1.643117431640625,1.5119874482274054,1.4003963742673395,0.8672118731081485
1772701993540166400,1.65316650390625,0.5433230333358049,1.3561474826961755,1.1186147378623486
1772701993550215200,1.663215087890625,0.0006546645164489745,1.344004771090299,0.9561714285433291
1772701993560264400,1.673264404296875,-0.0764180537700653,1.2143224523834883,0.2724929990559816
1772701993570314500,1.683314453125,0.5196072267055512,0.6783635180748999,-0.4584580537378788
1772701993580363300,1.69336328125,1.226562486883998,0.3486632155448198,-0.6829770032197237
1772701993590412300,1.703412353515625,1.9392811328947543,0.2087435804620385,-0.9234721049904823
1772701993600461300,1.71346142578125,2.1711633046209813,-0.10689853222966193,-1.0919961955279112
1772701993610510300,1.72351025390625,1.865595134437084,-0.05259966354817152,-1.2080004097551107
1772701993620559000,1.73355908203125,0.9738707513630389,0.5078697348996997,-1.2023679568260908
1772701993630608400,1.7436083984375,-0.5002478617191315,0.9984871600948274,-0.8701362361222506
1772701993640657200,1.7536572265625,-2.074846956682205,1.6067247102811932,-0.18129004860818385
1772701993650707200,1.763707275390625,-3.5279379793047903,2.192750720920414,0.7508417481780052
1772701993660756200,1.773756103515625,-5.414681115710735,2.764964187045395,2.07554662938416
1772701993670805200,1.78380517578125,-7.929471395274996,3.238848065713048,3.681900460526347
1772701993680854300,1.793854248046875,-10.77624672730565,3.5364848583757875,5.224280708929896
1772701993690903300,1.8039033203125,-13.968756820213795,3.4624557455688714,6.783906106644868
1772701993700952300,1.813952392578125,-16.68688180693388,3.189960408425331,8.000870159578323
1772701993711001300,1.82400146484375,-18.24566607764959,2.8022750960469245,8.588628546968103
1772701993721050400,1.83405029296875,-18.810218361496926,2.2711343756750226,8.722292921048401
1772701993731100400,1.844100341796875,-18.614250383716822,1.9440506853841244,9.264657923007011
1772701993741149200,1.854149169921875,-18.694155695080756,1.9796543520763514,10.210327831280232
1772701993751198200,1.8641982421875,-18.834187266105413,2.115730171212554,11.042032337677478
1772701993761247500,1.87424755859375,-18.734577721840143,1.9720603898160158,11.402298897254466
1772701993771296300,1.884296142578125,-18.22627281039357,1.4033438258960842,11.204611256074905
1772701993781345300,1.89434521484375,-17.421861969113348,0.5022476572342217,10.269233609235286
1772701993791394300,1.904394287109375,-15.85738211710453,-0.5723956908240914,8.897968052384257
1772701993801443300,1.914443359375,-13.323374511373043,-1.4418743398204446,7.351887780418991
1772701993811493400,1.924493408203125,-9.969773692798613,-2.4086150931730863,5.898246722698211
1772701993821542100,1.934542236328125,-6.204399999293685,-3.307973916648328,4.3656972556963565
1772701993831591400,1.94459130859375,-2.799228567957878,-3.5647546750485897,2.683583250170946
1772701993841640200,1.95464013671875,-0.06024784021377563,-2.977397854197025,1.5401333462595939
1772701993851689200,1.964689208984375,2.4540748218387365,-2.1606123922511933,0.97362642121315
1772701993861738200,1.97473828125,5.127227863410115,-1.5590324002578853,0.6809449128702283
1772701993871787300,1.984787353515625,7.889191407334804,-1.020418494461104,0.24360125109255312
1772701993881836300,1.994836181640625,10.462876358938216,-0.4097285826865583,-0.5424655397236346
1772701993891885300,2.00488525390625,12.421550759088992,0.17590346019901335,-1.299364395983517
1772701993901935400,2.014935302734375,13.892073393505811,0.7527105377245694,-1.8156152979984879
1772701993911984000,2.024984130859375,14.849197592729329,1.064656207051128,-2.531600252328813
1772701993922033400,2.035033447265625,15.40496685066223,1.0922533120941371,-3.2293595218777655
1772701993932082200,2.045082275390625,15.728109255981444,0.8439832654729486,-3.811728617444634
1772701993942131200,2.055131103515625,15.856011997795104,0.6733532886974514,-4.369878633034229
1772701993952180500,2.065180419921875,15.784908417046069,0.5995468056652694,-4.666427922721207
1772701993962229200,2.075229248046875,15.529554184317588,0.47470936970636246,-4.837166766698658
1772701993972278300,2.0852783203125,15.163998870682715,0.23809490876123307,-4.929245038676261
1772701993982328000,2.095328125,14.278544069397448,0.33762444659285246,-5.21017444216609
1772701993992377300,2.10537744140625,13.050221587103605,0.3251918121296912,-5.102138430339098
1772701994002426400,2.11542626953125,11.833652670967577,0.08562661162018775,-4.746041557662188
1772701994012475100,2.12547509765625,10.844073478341102,-0.09209873024374246,-4.504649507051706
1772701994022524400,2.1355244140625,9.891794965583085,-0.2025084123995155,-4.450926100170612
1772701994032573200,2.1455732421875,8.958940115219354,-0.4739756486043334,-4.230706016926467
1772701994042622200,2.155622314453125,8.22482796804607,-0.5451377546075731,-3.900493234829604
1772701994052671200,2.165671142578125,7.773106529086828,-0.44542694192491467,-3.57485316747576
1772701994062721300,2.17572119140625,7.409093768718838,-0.3316710911463946,-3.348577729715407
1772701994072770300,2.185770263671875,7.113563008424639,-0.34481596553213895,-3.155642543759942
1772701994082819300,2.1958193359375,6.9525336575567716,-0.45972624704279,-3.06370075764358
1772701994092868400,2.205868408203125,6.7875003317445515,-0.5523090344764292,-3.024681291158497
1772701994102917000,2.215917236328125,6.6623378285497425,-0.7065014519963413,-2.877860498385131
1772701994112966400,2.22596630859375,6.544256223526596,-0.9050148034103214,-2.412766367633641
1772701994123015400,2.236015380859375,6.027950960975885,-1.1437683222107589,-1.5634905487105248
1772701994133064200,2.246064208984375,5.038894915440678,-1.3346943603008985,-0.3828697287902236
1772701994143114200,2.2561142578125,3.6820430838674305,-1.358031981268525,0.7090481408044695
1772701994153163300,2.266163330078125,2.4859961467564107,-1.4885117339633405,1.6371721632540226
1772701994163212300,2.27621240234375,0.9266180018007755,-1.4810098339006303,1.9296137253612278
1772701994173261300,2.28626123046875,-1.0039929179042577,-1.3908240976713597,1.7331635170221327
1772701994183310300,2.296310302734375,-1.8616829294294117,-1.3280822486847639,1.5316443348556756
1772701994193359400,2.306359375,-2.32978384078145,-1.1880570343356578,1.415742704220116
1772701994203408100,2.316408203125,-3.2709938470363613,-1.1080142141971736,1.4636080327227712
1772701994213457400,2.32645751953125,-4.6608600594609975,-1.2884104557707905,1.9178990299090741
1772701994223507500,2.336507568359375,-7.220884149980544,-1.6559202644743025,3.85101316460669
1772701994233556200,2.34655615234375,-12.497786442029476,-1.3041367249518632,7.3392194375038144
1772701994243605200,2.356605224609375,-19.913145700883863,-0.9139096191361546,11.813968311810493
1772701994253654300,2.366654296875,-24.538635756278037,0.3534041629942134,14.333888940000532
1772701994263703300,2.376703369140625,-23.277742545247076,4.385275231869518,14.845081389582155
1772701994273752300,2.38675244140625,-16.94257506235838,8.176323757117986,11.492888099718094
1772701994283801300,2.39680126953125,-11.815595620751381,7.50381437189877,6.121878367951512
1772701994293850000,2.40685009765625,-8.317977376386523,4.257695146138966,3.476059323507547
1772701994303900200,2.416900146484375,-6.160381409347057,2.5946564279615876,1.489765095025301
1772701994313949400,2.426949462890625,-4.866559742182493,1.4750319285348057,-0.8611509656339883
1772701994323998200,2.436998291015625,-3.9586610538989304,0.6115154028132558,-2.2447721461892125
1772701994334047200,2.447047119140625,-3.133301532614231,-0.05580364722125232,-3.013748685994744
1772701994344096300,2.45709619140625,-2.278046639281511,-0.7149287963408977,-3.952848568227887
1772701994354145300,2.467145263671875,-1.2379793684333562,-1.3747493073135613,-4.949678754895925
1772701994364194300,2.4771943359375,0.18395137677192686,-2.134622941600531,-5.063408009928464
1772701994374243300,2.487243408203125,1.6097212617486714,-2.564656134234369,-4.306493079316616
1772701994384292400,2.497292236328125,2.855495814102888,-2.6812930934071537,-3.313787279102206
1772701994394342100,2.507342041015625,3.816811035275459,-2.376001255946606,-2.6559780348867177
1772701994404391200,2.51739111328125,4.73784334589839,-1.6684627890527248,-2.600730779439211
1772701994414440200,2.527440185546875,5.520543290629982,-0.7767819528594613,-2.7502397883832455
1772701994424489000,2.537489013671875,6.354073258888721,-0.08277178844464943,-2.789462960746884
1772701994434538200,2.547538330078125,7.37617232684791,0.53117469570674,-2.9984611004918813
1772701994444587000,2.5575869140625,8.350027880641818,1.1076968918763102,-3.1148066755026576
1772701994454636000,2.567635986328125,8.969230038565398,1.4417429685257375,-3.035114714628458
1772701994464685000,2.57768505859375,8.919947829002142,1.6517175520874559,-3.0642618986576795
1772701994474735000,2.587735107421875,8.162707904219626,1.7402587359800934,-3.1966736423283812
1772701994484784000,2.5977841796875,7.029756013447046,1.5141231450818478,-3.3037101217240092
1772701994494833000,2.6078330078125,6.094262046751379,1.255859600777924,-3.1843402304559945
1772701994504882200,2.617882080078125,5.524989164122939,1.188491699425876,-3.0027649351656436
1772701994514931000,2.627930908203125,4.936299048841,1.2859659852281211,-2.7010943569421766
1772701994524980000,2.63797998046875,4.1268402765214445,1.4455854692980645,-2.1600737553298472
1772701994535029000,2.648029052734375,3.068198069062829,1.6646812246873974,-1.6969792739629745
1772701994545078000,2.658078125,1.7717086439937353,1.8712737645953892,-1.265542498141527
1772701994555128000,2.668128173828125,0.7271797175616026,2.018015500783175,-0.7133785712242126
1772701994565177000,2.678177001953125,0.08947685730755328,2.3326073737695814,-0.1931388918340206
1772701994575226000,2.68822607421875,-0.1460135680437088,2.614927062574029,0.28435645532906056
1772701994585275000,2.69827490234375,-0.07336509594023227,2.504704646618664,0.2017319481343031
1772701994595324200,2.70832421875,0.16498188788592816,1.9970600987769662,-0.19737375292479992
1772701994605373200,2.718373291015625,0.27309271851480005,1.5229418268315493,-0.3827782511144876
1772701994615422000,2.728421875,0.0630289953649044,1.2516710630469023,-0.42180619316697116
1772701994625471200,2.73847119140625,-0.18866145415902136,0.9854492532148956,-0.492410007700324
1772701994635521000,2.74852099609375,-0.5422808308064937,0.6157591778628527,-0.3998515509903431
1772701994645570000,2.758570068359375,-1.0306558839023112,0.2549951901577413,-0.38521220026314257
1772701994655619000,2.768619140625,-1.1908172197639941,-0.11580006995722651,-0.34018823266625403
1772701994665668000,2.778668212890625,-0.7776713029146194,-0.4101927661322057,-0.11462357352375983
1772701994675717000,2.788717041015625,-0.022044658547639845,-0.7152228839166462,0.35105274102985856
1772701994685766000,2.798765869140625,0.6543360151469707,-1.0904923668362199,0.838348182195425
1772701994695815200,2.808815185546875,0.9811831202030181,-1.1976267536483705,1.0819482642441987
1772701994705865200,2.818865234375,0.7634346877694129,-1.1989390052907167,1.02769294244349
1772701994715914000,2.8289140625,0.1368365743756294,-1.5747935946218667,0.6546382129639386
1772701994725963000,2.838962890625,-0.79980773139894,-1.8762724496655165,0.22199907561540602
1772701994736012000,2.849011962890625,-1.822356881213188,-1.6617425408869981,-0.44206338377594945
1772701994746061000,2.85906103515625,-2.8407933350116013,-0.9517251166589558,-1.2866472454905509
1772701994756110000,2.869110107421875,-3.207117879453301,-0.611056991521269,-1.9184522798776626
1772701994766159000,2.8791591796875,-3.3225855025857687,-1.3293332716591655,-1.6539058559119701
1772701994776208100,2.8892080078125,-3.8548546424657104,-1.7514342099890112,-0.44526714825332164
1772701994786258000,2.8992578125,-5.042694307723641,-0.8663815597638488,1.4577216050326824
1772701994796307200,2.90930712890625,-7.29896224591732,0.7141421029426157,3.7098078736275433
1772701994806356000,2.91935595703125,-10.597601640248298,1.9929900728590786,5.927988950011134
1772701994816405000,2.929405029296875,-13.999270031899213,2.477777476726472,7.616693732103705
1772701994826454300,2.939454345703125,-16.92405273271799,2.566045250505209,8.849729798915982
1772701994836503000,2.9495029296875,-18.376809408819675,2.62988263964355,9.369055870592593
1772701994846552000,2.959552001953125,-18.693985014688966,2.5682015517562626,9.670703652462363
1772701994856601000,2.96960107421875,-18.643038086783886,2.181228040909022,10.483397753441333
1772701994866651100,2.979651123046875,-18.539797492539883,1.866187401241809,11.409932753133774
1772701994876700200,2.9897001953125,-18.445313036203384,2.126390681436658,12.035270637333392
1772701994886749000,2.9997490234375,-17.275341036069392,2.610564191189408,12.242224119508267
1772701994896798200,3.009798095703125,-14.638822319412231,2.7285657167136668,11.655535991698503
1772701994906847000,3.019846923828125,-11.51689792085886,2.4220780935972925,10.243168609130382
1772701994916896000,3.02989599609375,-8.176527755257487,1.8045983755521475,8.3534917573601
1772701994926945000,3.039945068359375,-5.083478153532743,1.247549160811305,6.233180103576183
1772701994936994000,3.049994140625,-2.353721181207895,0.6656899875279516,4.548042658576369
1772701994947044000,3.060044189453125,-0.013812836775183676,0.24034327220991253,3.2443153912082314
1772701994957093000,3.070093017578125,2.0467910750210283,-0.10453085325025022,2.3053765447556973
1772701994967142100,3.08014208984375,4.298481622296571,-0.5497136111557483,1.503746858626604
1772701994977191000,3.09019091796875,6.922011093521117,-0.949682870241627,0.5425082098215818
1772701994987240200,3.100240234375,9.429293773934244,-1.0159003594495355,-0.5514864660471678
1772701994997289000,3.1102890625,11.566409263002871,-0.9798443458799272,-1.5424077209323643
1772701995007338000,3.120337890625,13.316484167337418,-0.9208096808481961,-2.33738467117399
1772701995017387300,3.13038720703125,14.580816705167292,-0.676256755053997,-3.309479060514271
1772701995027437000,3.14043701171875,15.507672022855282,-0.7642471731960773,-3.6357013116702435
1772701995037486000,3.150486083984375,16.208680941849945,-0.6841348680179565,-4.371093269520998
1772701995047534800,3.160534912109375,16.501752034032343,-0.6098328565537929,-4.3176720604568715
1772701995057584000,3.170584228515625,16.90872072355151,-1.455350199726224,-4.077432687012851
1772701995067633200,3.180633056640625,17.18428187800646,-1.659447123426199,-4.733198442701995
1772701995077682000,3.190681884765625,16.840402974128722,-1.390745187216252,-5.1260804469406605
1772701995087731200,3.200731201171875,16.05903047860861,-0.8452966861590743,-5.316373886215686
1772701995097780000,3.210780029296875,15.28687472424507,-0.8280050673574209,-5.564316381382942
1772701995107830000,3.220830078125,14.298601353520153,-0.8395854689054191,-5.904451422557234
1772701995117879000,3.230879150390625,13.187916239613294,-0.6622732378870249,-6.091449327418208
1772701995127928000,3.240927978515625,12.192621591949463,-0.7470761120341718,-5.898941719225049
1772701995137977000,3.25097705078125,11.199660355669259,-1.1240614589609206,-5.26136862283051
1772701995148026000,3.261026123046875,10.288581283783913,-1.4130046575583517,-4.651874204450846
1772701995158075100,3.2710751953125,9.58098538761437,-1.277876640666276,-4.355807437583804
1772701995168124000,3.2811240234375,9.195261146175861,-1.0263314448319374,-4.297612145985663
1772701995178174000,3.291174072265625,9.015697190707922,-0.8242816629201173,-4.266067837686837
1772701995188223200,3.30122314453125,9.048434508183599,-0.7166530628502369,-4.1010578927502035
1772701995198272000,3.31127197265625,9.026601446560024,-0.7849765113614499,-3.936753757995367
1772701995208321000,3.321321044921875,8.879560289034247,-1.0459158507458866,-3.6195524331629274
1772701995218370000,3.3313701171875,8.693844825199246,-1.4616058991201222,-3.2172394604951142
1772701995228419000,3.341419189453125,8.278394723060726,-1.6144013823889194,-2.8005945956140756
1772701995238467800,3.3514677734375,7.557645915329456,-1.5981490435071288,-2.433382746943831
1772701995248517000,3.36151708984375,6.51323506231904,-1.490044496488571,-1.8906389748007058
1772701995258567200,3.371567138671875,4.882247140657902,-1.4076219416067004,-0.8568231655627488
1772701995268616000,3.381615966796875,2.6640128727823496,-1.4368784312292933,0.8308160331249237
1772701995278665000,3.3916650390625,-0.6127852766185998,-1.2875703516848385,3.266729759851098
1772701995288714000,3.4017138671875,-5.658177737385034,-0.5337890429235994,6.611182810851931
1772701995298763000,3.411762939453125,-11.925135022878646,1.4249490701131522,10.886292325389384
1772701995308812000,3.42181201171875,-17.582033826369045,3.978291052520275,14.834454781627654
1772701995318861000,3.431861083984375,-23.44633268675804,7.71640615222156,19.44468647761345
1772701995328910000,3.44191015625,-28.404530263674257,11.776588136965035,23.59152792415619
1772701995338960000,3.4519599609375,-26.995820819091794,12.432609913241862,22.753064006626605
1772701995349009200,3.462009033203125,-20.529306591415406,9.835174668216705,15.480810903936623
1772701995359058200,3.47205810546875,-16.2869075063467,7.342745273542404,9.25652780804336
1772701995369107000,3.48210693359375,-14.027995775645971,5.898592759656906,4.7733811077475545
1772701995379156200,3.49215625,-12.931740169107913,3.9891400710538027,0.805882082876563
1772701995389205000,3.502205078125,-11.859315520012379,2.4784391555055976,-1.7893354860991237
1772701995399254000,3.51225390625,-9.942221669006347,1.3422268016323446,-3.0120266845077275
1772701995409303600,3.522303466796875,-7.093510400477052,0.18909926105439662,-3.254560014107823
1772701995419353600,3.532353515625,-3.71393518269062,-0.6542448297321796,-3.2339345747083423
1772701995429402600,3.542402587890625,-0.6925614086449146,-0.7597422629922628,-3.7361715644180773
1772701995439451600,3.55245166015625,1.526796310302615,-0.38175504554659123,-3.751856624805927
1772701995449500700,3.562500732421875,3.7671728518813845,-0.4262491440504789,-3.625411096063256
1772701995459549700,3.5725498046875,5.509236299195885,-0.38577129545062777,-3.8735792166799303
1772701995469598500,3.582598388671875,6.407299237641692,-0.5104053908571601,-3.6353456301003693
1772701995479647700,3.592647705078125,7.26615770842433,-0.9506168631561099,-3.6049282800048585
1772701995489697800,3.60269775390625,7.939980514329672,-1.1993423253946005,-3.897515388062596
1772701995499746600,3.61274658203125,8.46054284980297,-1.1750919734962284,-4.1695191422969105
1772701995509795600,3.622795654296875,8.796752826488017,-0.9990143988393246,-4.494409852588176
1772701995519844600,3.6328447265625,8.880575019034742,-0.7636718575261533,-4.448048498907685
1772701995529893600,3.6428935546875,8.75683465759754,-0.7151433889396488,-4.196331745898723
1772701995539942400,3.6529423828125,8.594981130865216,-0.9166801067627965,-3.913030352580547
1772701995549991700,3.66299169921875,8.582986741688847,-1.1573087717853485,-3.851677181473374
1772701995560040400,3.67304052734375,8.181830537840723,-1.2785679839313029,-3.824205821701884
1772701995570090500,3.683090576171875,7.417225052726268,-1.0647288338959215,-3.5792490643471475
1772701995580139500,3.693139404296875,6.586251783213019,-0.7008493445187807,-2.8004759376704693
1772701995590188500,3.7031884765625,5.75305849956274,-0.7393402570851146,-1.5711059921503066
1772701995600237600,3.713237548828125,4.47648022814393,-0.8951175326436758,-0.39430210016965866
1772701995610286600,3.72328662109375,2.458445292007923,-0.374594798528403,1.0270593207150698
1772701995620335600,3.733335693359375,0.5960013150781392,0.6209484170690178,2.5236340957552192
1772701995630384600,3.743384521484375,-0.6026239480882882,1.2525292873114346,3.696410047394037
1772701995640433700,3.75343359375,-1.2821511031150816,1.501214125278592,3.75809931858778
1772701995650483700,3.763483642578125,-1.3381740191102027,1.5578151334226131,2.4175632465213535
1772701995660532500,3.773532470703125,-1.2970289387732743,1.620993035738915,0.8565788354128598
1772701995670581500,3.78358154296875,-1.2112959441691635,1.5076142015792429,-0.4105564848780632
1772701995680630800,3.793630859375,-0.7876865009725094,1.0055592904381454,-1.5812719968557356
1772701995690679600,3.803679443359375,-0.29031214886307716,0.39449630756750703,-2.467806410071254
1772701995700728600,3.813728515625,-0.09090425976216793,-0.12978943234309553,-2.7062977708041664
1772701995710777600,3.823777587890625,0.027101357415318487,-0.8437753218106925,-2.5339269417107104
1772701995720827600,3.83382763671875,0.06421031410396098,-1.2907345148041844,-2.3492297150075436
1772701995730876700,3.843876708984375,0.21016367639303207,-1.37149731978029,-2.361448560589552
1772701995740925400,3.853925537109375,0.5517039081901312,-1.5483407642431557,-2.3231699755996464
1772701995750974700,3.863974609375,0.7676186954557895,-2.0496222067937255,-2.5046482402563095
1772701995761023500,3.8740234375,0.9667372462213039,-2.519422031018138,-2.9221745641469954
1772701995771072500,3.884072509765625,1.091063883113861,-2.712596578687429,-3.3123598766475912
1772701995781121500,3.89412158203125,1.0807599312424658,-2.669278830486536,-3.6024078216165303
1772701995791170600,3.904170654296875,1.1821055055201053,-2.3195251893565056,-3.593000526323914
1772701995801220600,3.914220703125,1.1359773760735987,-1.7643102043054997,-3.1168069094091653
1772701995811269600,3.92426953125,1.0836270111113786,-1.532784298671037,-2.274751104867458
1772701995821318700,3.934318603515625,0.4736486086070537,-1.1723859294079244,-1.5578630642175673
1772701995831367400,3.944367431640625,-0.9468751924097537,-0.40957185775488614,-0.3694365389823913
1772701995841416700,3.954416748046875,-2.7202877177119253,0.3834105576686561,1.1874147178441286
1772701995851465700,3.9644658203125,-5.286514170002937,0.9865101604446768,3.144611446657777
1772701995861514500,3.974514404296875,-7.8752435460031025,1.6858699970580637,4.867344170558452
1772701995871563800,3.984563720703125,-9.92893899358511,2.625188344347477,6.361490841668844
1772701995881613600,3.994613525390625,-12.110110482001303,3.3828695831567046,7.649125344631075
1772701995891662600,4.00466259765625,-14.916632714098691,3.1815918085306882,9.418253909003734
1772701995901711600,4.014711669921875,-18.246636383986473,2.337191486689448,11.141482891988753
1772701995911760600,4.0247607421875,-21.4872935449481,1.468865514859557,13.130921848237513
1772701995921809700,4.0348095703125,-23.717333401429652,0.7924873984482139,15.2407161996603
1772701995931858400,4.0448583984375,-24.501432107043264,1.0947707748077808,16.19013406229019
1772701995941907700,4.05490771484375,-23.53960367565155,1.7811136011987923,16.584925991803406
1772701995951957800,4.064957763671875,-21.415053653645515,3.263269682525098,16.40916142861843
1772701995962006500,4.075006591796875,-17.944387129092217,5.519735481378436,14.494398650908469
1772701995972055600,4.0850556640625,-13.598127856576442,6.466551052555442,11.58832532673478
1772701995982104600,4.0951044921875,-10.115125582063197,5.904457267776131,9.373571886712313
1772701995992153600,4.105153564453125,-7.4471893983572715,4.091875638385117,7.598106520533562
1772701996002202600,4.11520263671875,-4.47836531123817,1.239673312869668,5.658593916970491
1772701996012251600,4.125251708984375,-1.2338882997274399,-1.1049983735073357,3.865748961445689
1772701996022300400,4.135300537109375,1.8853104732543229,-1.5886175373129545,1.5934446652084588
1772701996032350500,4.1453505859375,5.161196183985472,-1.0525603302616626,-0.7317132693380117
1772701996042399700,4.155399658203125,7.99378867688477,-1.0188749182809145,-2.2002903226450083
1772701996052448500,4.165448486328125,10.224998161667585,-1.512302359395474,-3.0255908072188493
1772701996062497500,4.17549755859375,11.638562645065784,-1.2710776281759142,-3.9909927131831644
1772701996072546600,4.185546630859375,12.616081982064246,-1.376193660902977,-4.489478241404891
1772701996082595600,4.195595703125,13.421709797918796,-1.643633468222618,-4.094298189356923
1772701996092644600,4.20564453125,14.12064834038019,-1.9654948938205836,-3.573224689491093
1772701996102694400,4.2156943359375,14.772193848025799,-2.2293182642087337,-3.4196716658532615
1772701996112743700,4.22574365234375,15.275829598617554,-2.4928759693980216,-3.7413445831418035
1772701996122792400,4.23579248046875,15.94889486415386,-2.8056267445623875,-3.7875109987720843
1772701996132841500,4.245841552734375,16.412245366108415,-3.069458298256993,-3.8439419110462065
1772701996142890800,4.255890869140625,16.35912635486126,-2.9183073673248288,-3.803495334367454
1772701996152939500,4.265939453125,16.108911238586902,-2.6456664842307567,-3.9384576393038033
1772701996162988500,4.275988525390625,15.594983226561546,-2.632796773524582,-4.042418656776845
1772701996173037600,4.28603759765625,14.725443787288665,-2.6648148368149993,-3.9079543644905086
1772701996183087600,4.296087646484375,13.369026840001345,-2.515820207133889,-3.907202377079427
1772701996193136600,4.30613671875,12.154862646919488,-2.233337582852691,-3.91965444689542
1772701996203185700,4.316185546875,11.329764406919479,-1.951149995995313,-3.842309341408312
1772701996213234700,4.326234619140625,10.494396117317676,-1.7982029754266142,-3.7233100370183583
1772701996223283500,4.336283447265625,9.805488555005192,-1.6201108460769056,-3.6773902896255253
1772701996233332700,4.346332763671875,9.378546167993544,-1.1805460011184215,-3.6958030214115976
1772701996243381500,4.356381591796875,9.028623307776451,-0.9171217130504548,-3.5910160745084285
1772701996253431600,4.366431640625,8.744389602044224,-0.8580737501457333,-3.489739473813772
1772701996263480600,4.37648046875,8.59415286334753,-0.8425594432149082,-3.4165517802670595
1772701996273529600,4.386529541015625,8.487233872851728,-0.7058065285347401,-3.4526436688676476
1772701996283578600,4.39657861328125,8.291641742646693,-0.4101794682592153,-3.407628761360049
1772701996293627400,4.40662744140625,8.069076849842071,-0.12013766077011823,-3.2052617301926016
1772701996303676700,4.4166767578125,7.932956314781308,-0.033890433033555746,-2.859099391552806
1772701996313725400,4.426725341796875,7.765072275713086,0.13282017834112048,-2.39873345836699
1772701996323775500,4.436775390625,7.382566411799192,0.15323255951181053,-1.6773036826342342
1772701996333824500,4.446824462890625,6.55116994843781,0.045665115044638514,-0.911346198388934
1772701996343873500,4.45687353515625,4.7844303250283,-0.23943010288774966,0.045267128702998156
1772701996353922600,4.466922607421875,2.349262448233366,-0.14960224018543958,1.2727110745966435
1772701996363971600,4.4769716796875,-0.24953473279476165,0.16478870340138674,3.1494699926048515
1772701996374020600,4.4870205078125,-2.3325544745385645,0.12587521804142743,5.006242938160896
1772701996384069600,4.497069580078125,-3.995464305639267,0.15539048646437004,5.994727321287989
1772701996394118700,4.50711865234375,-5.5028053893655535,0.25654961652550845,6.734566029414534
1772701996404168700,4.517168701171875,-7.646026209571957,0.2248937010783702,8.35573222976327
1772701996414218000,4.527218017578125,-11.24249879592061,-0.016704137769900262,10.401875654530524
1772701996424266800,4.537266845703125,-17.094786900520322,-0.31064134526234116,13.007332877969741
1772701996434316000,4.54731591796875,-22.776559448504447,-0.24618439945355056,15.946091497170924
1772701996444364800,4.55736474609375,-26.099129168999195,0.6174979112889617,17.44487810304165
1772701996454413800,4.567413818359375,-26.857890019738672,2.9821269285455343,17.516012078928945
1772701996464462800,4.577462890625,-23.09824990144968,5.026608849841356,14.10606685732007
1772701996474512000,4.587511962890625,-17.537933987879754,4.783611409860849,8.298725563427805
1772701996484562000,4.59756201171875,-13.029315577197075,2.4494366406440733,2.9186382067143914
1772701996494610700,4.607610595703125,-9.210432996344565,0.18140227681100368,-1.4218851524978875
1772701996504660000,4.617659912109375,-5.884059207391738,-1.6103633590444921,-4.584564755287766
1772701996514708700,4.627708740234375,-2.702863704702258,-2.4260583954051134,-6.183643626990914
1772701996524757800,4.6377578125,-0.2603606627136469,-2.26891056214571,-6.235471429383755
1772701996534806800,4.647806884765625,1.489187002876401,-2.109797274032235,-6.034349722102284
1772701996544855800,4.657855712890625,2.9284534982860086,-1.4870910535104571,-5.76383766773045
1772701996554905900,4.66790576171875,4.340865889039636,0.08805303504951298,-5.228403341817856
1772701996564955000,4.677954833984375,5.913890866553783,1.2827261265240608,-4.529575858515501
1772701996575004000,4.68800390625,7.422775088068843,1.445381471158564,-4.142008619558811
1772701996585052700,4.698052734375,8.644168063360452,1.5638792557671666,-4.2935277992814775
1772701996595102000,4.70810205078125,9.221026286551355,1.5723448862954974,-3.6799510800242423
1772701996605151000,4.71815087890625,9.243071529620885,1.0215767976507544,-3.174385238152742
1772701996615199700,4.72819970703125,8.996429595658183,0.1439215276679024,-3.1070395486325024
1772701996625249800,4.738249755859375,8.85462107808888,-0.5029896712405607,-3.508472231334448
1772701996635298800,4.748298828125,8.661328456997872,-0.8669720730029046,-3.8713966119438408
1772701996645347800,4.758347900390625,8.348740763440727,-1.181237271318212,-4.5038785226792095
1772701996655396900,4.76839697265625,8.093260273984074,-1.28291916487813,-5.512515466997027
1772701996665446000,4.77844580078125,7.540724006623029,-1.0697884553730488,-5.466226594030857
1772701996675495000,4.788494873046875,6.518634875535964,-0.7219974926181137,-4.048175320607424
1772701996685543700,4.798543701171875,5.291390251606702,-0.7593486605647951,-2.6982465662956234
1772701996695593000,4.808593017578125,3.6182372589111327,-0.9537866522986441,-0.9506932893931865
1772701996705643000,4.81864306640625,1.4379051439285278,-1.0658847989980131,1.2763719351917504
1772701996715691800,4.82869189453125,-0.8568336869567632,-0.8234998648926615,3.4239445208668706
1772701996725740800,4.83874072265625,-2.2626000638246535,-0.5149642232052981,4.542653366753458
1772701996735789800,4.848789794921875,-2.78335353795588,0.020041940423101187,4.483254836845398
1772701996745838800,4.8588388671875,-2.5948586725354192,1.561684960593283,3.929589857715368
1772701996755887900,4.868887939453125,-3.040472442269325,2.9573955151319504,3.2416946873158214
1772701996765937000,4.87893701171875,-3.8723330160111185,2.7367034304618834,2.5840058546096083
1772701996775987000,4.888987060546875,-4.332399673989415,2.1057124889366325,1.7569336841881273
1772701996786035700,4.89903564453125,-4.684743623873591,1.5531595627017318,1.087425234350562
1772701996796085000,4.9090849609375,-4.710099014404416,1.0239778674431144,0.7760831569403409
1772701996806133800,4.9191337890625,-3.68334890576899,1.0882613929137588,0.7178074935823678
1772701996816182800,4.929182861328125,-2.014197549930215,1.0872463706523179,0.72099255335927
1772701996826231800,4.939231689453125,-0.627179128152132,0.9422780738778411,0.618629910993576
1772701996836280800,4.94928076171875,0.5092915843963622,0.6787140850782394,0.344882527962327
1772701996846331000,4.959330810546875,1.6039222200810908,0.43460064667984843,-0.048560909551382064
1772701996856379600,4.969379638671875,2.460176645845175,0.49202670747116206,-0.49538113246560095
1772701996866429000,4.979428955078125,2.8517174646079537,0.4805876140899956,-0.9659031334847211
1772701996876477700,4.989477783203125,2.7563375207364555,0.3430699255824089,-1.5286603506088257
1772701996886526700,4.999526611328125,2.3476690415620802,0.16908727737814186,-2.2286457717746493
1772701996896576000,5.009575927734375,1.9380442845761774,0.09446896650642156,-2.769196417787671
1772701996906624800,5.019624755859375,1.6837100425451994,-0.023194120843708515,-2.983589694574475
1772701996916673800,5.029673828125,1.5964882706880568,-0.33445056579709054,-2.973884293118119
1772701996926723800,5.039723876953125,1.6851234164744615,-0.7213245617926121,-2.9307085837364193
1772701996936772900,5.04977294921875,1.575627853488922,-0.9527201190456748,-3.0583611501812933
1772701996946822000,5.05982177734375,1.4313812951177358,-0.9874164616346359,-3.3418472524166107
1772701996956871000,5.069870849609375,1.1996160277694463,-1.2785849350661038,-3.9169992562115192
1772701996966920000,5.079919921875,1.078394955676794,-1.5087950819268823,-4.281682463186979
1772701996976968700,5.08996875,0.9921242009341716,-1.7052604878351092,-4.374247934159636
1772701996987018000,5.10001806640625,0.6917699660062789,-1.7545815681040287,-3.8395126964271067
1772701996997068000,5.110068115234375,-0.8100304347276687,-1.386236623750627,-2.5976000801980494
1772701997007116800,5.12011669921875,-3.654861062431335,-0.4649228658378124,-0.2798305023372173
1772701997017165800,5.130165771484375,-8.53115134051144,1.3829972034379838,3.40361777215302
1772701997027214800,5.14021484375,-16.183844606757162,4.917784317985177,8.91955736837983
1772701997037264000,5.150263916015625,-24.092729725599288,8.272792080748081,16.824875734651087
1772701997047312600,5.160312744140625,-27.700964645934103,10.031128617471456,25.33096219201088
1772701997057362000,5.17036181640625,-28.719456629312038,10.223725072991847,27.02749722933769
1772701997067412000,5.180411865234375,-26.412671386802195,5.593306329023838,23.750153136491775
1772701997077460700,5.190460693359375,-22.217990330719946,1.5923226754412054,19.863639034914968
1772701997087509800,5.200509765625,-17.69264056546688,0.38978900665938854,14.40430044683218
1772701997097558800,5.210558837890625,-10.937706870806217,0.7146265254586934,11.676710881674289
1772701997107607800,5.22060791015625,-6.211462777286767,0.11236088928878307,10.27198787637949
1772701997117656800,5.23065673828125,-2.768150708127022,-0.6872520501904189,6.632524289566278
1772701997127705900,5.240705810546875,0.9277484671354294,-0.4320595838949084,2.906757799306512
1772701997137756000,5.250755859375,4.092576772391796,-0.09297185981646179,0.6327426074981689
1772701997147804700,5.2608046875,6.549084958857297,-0.09720759769007563,-0.7046136654883622
1772701997157854000,5.27085400390625,8.232990231713652,-0.09499635138139129,-1.5551567278683185
1772701997167903000,5.280903076171875,9.443571890133619,0.015512188038975,-2.3581255536466834
1772701997177951700,5.29095166015625,10.396406867730617,0.31534517557173963,-2.9197411995202303
1772701997188001000,5.3010009765625,11.294715305370092,0.14137830945849417,-3.3059330584704876
1772701997198049800,5.3110498046875,11.730080068290233,-0.5336413050159812,-3.8022149391680955
1772701997208098800,5.321098876953125,11.805960361921787,-1.2280603242263197,-4.419548965132236
1772701997218148900,5.33114892578125,11.635571062034368,-2.024339004716277,-4.879722590616345
1772701997228198000,5.341197998046875,11.48608543396592,-2.762319225494563,-5.0746173862069845
1772701997238247000,5.351246826171875,11.53444526798725,-3.7460748265340924,-5.4326890660882
1772701997248295700,5.361295654296875,11.779044297945498,-4.592398225392401,-6.081980072805285
1772701997258345000,5.371344970703125,11.978685411280393,-4.899155605360865,-6.212977273502945
1772701997268393700,5.381393798828125,12.357094361269473,-4.772539980748295,-6.113665250879526
1772701997278442800,5.39144287109375,12.82085402854681,-4.628067796927691,-5.805249874570966
1772701997288492800,5.401492919921875,13.179638240611553,-4.404413355320692,-5.885792899316549
1772701997298541800,5.411541748046875,13.203089258825779,-4.286773356585204,-6.247578046762943
1772701997308590800,5.4215908203125,12.878263430464267,-4.484990574596822,-6.341252940282225
1772701997318639900,5.431639892578125,12.041994977152347,-4.249921005006135,-5.909748359921574
1772701997328689000,5.44168896484375,11.181342608690262,-3.464295235955715,-5.483447777944803
1772701997338737700,5.451737548828125,10.424192700278759,-2.843748093163967,-5.448314505243301
1772701997348787000,5.461786865234375,9.781519650396705,-2.580129889959097,-5.246100326550007
1772701997358837000,5.4718369140625,9.20995836457014,-2.3009446997880936,-4.97106056562066
1772701997368885800,5.4818857421875,8.792413335978985,-2.005777073717862,-4.712863218420743
1772701997378934800,5.491934814453125,8.425546939745544,-2.132600495862216,-4.385106012782455
1772701997388983800,5.50198388671875,7.880632253304124,-2.2401325036898254,-4.0651059971421954
1772701997399032800,5.51203271484375,7.205143560013175,-1.9834090284347532,-4.037283339715004
1772701997409081900,5.522081787109375,6.50806964237988,-1.6593395713984966,-3.89116689581871
1772701997419130600,5.532130615234375,5.5929065160512925,-1.3900459529057145,-3.1895915751129387
1772701997429180700,5.5421806640625,4.077930407401919,-0.9727513919442892,-2.2630980764746664
1772701997439229700,5.552229736328125,2.202573757407069,-0.4776011456251144,-1.2709013948261738
1772701997449278700,5.56227880859375,0.3121259212642908,-0.005689297682791948,-0.13823475073575972
1772701997459327700,5.57232763671875,-1.769679768514633,0.5079458688758314,1.119529514619708
1772701997469376500,5.58237646484375,-4.130107169362902,1.0819596624210477,2.8837399118125435
1772701997479425800,5.59242578125,-7.739443328937888,2.4243771643199024,5.88543692548573
1772701997489474800,5.602474853515625,-13.772420593643188,3.2301118015497923,9.90155998827219
1772701997499524600,5.612524658203125,-17.637023307663203,2.3353877982683477,12.234543501877784
1772701997509573600,5.62257373046875,-19.799509969353675,3.349949894851446,15.749445473998785
1772701997519622700,5.63262255859375,-23.33873623539209,6.037518999788165,19.02397567846775
1772701997529671700,5.642671630859375,-23.864812950372695,5.471017335438728,19.4901318854928
1772701997539720700,5.652720703125,-20.493608670568467,2.7147452811539172,15.938740549886226
1772701997549769700,5.662769775390625,-14.523374570024012,4.6058410598114135,10.359053580892086
1772701997559818800,5.67281884765625,-10.8280002954185,5.877128531345725,5.564904994925857
1772701997569868500,5.68286865234375,-8.426427814233303,3.2478888657808302,1.4797101494789122
1772701997579917600,5.69291748046875,-6.192786718389391,1.219068989323452,-1.2691934218645096
1772701997589966800,5.702966796875,-1.8311568582624196,-0.919327333335951,-2.374426700106263
1772701997600015600,5.713015625,-0.03724748837649822,-1.9147300444841384,-2.8725977555513382
1772701997610064600,5.723064697265625,1.7329525046199559,-2.522040104562044,-3.7210464760005473
1772701997620113700,5.73311376953125,3.393435985356569,-3.104796738141775,-5.302219104135036
1772701997630163700,5.743163818359375,4.3873716196268795,-3.665497607257962,-6.277995981380343
1772701997640212700,5.753212646484375,5.2771431150674815,-3.7301878138333557,-6.895687150219082
1772701997650261800,5.76326171875,5.992661036407947,-3.3750293910503384,-7.1291767571419475
1772701997660310800,5.773310791015625,6.410638026675581,-2.5231337450176476,-6.374276088961959
1772701997670359600,5.783359619140625,6.226232476395368,-1.0117965043272823,-4.735374325436354
1772701997680408800,5.793408935546875,6.533892065900564,-0.14425700669996439,-3.33440687328279
1772701997690457600,5.80345751953125,6.859737300437688,0.09181918264999984,-2.517414782848954
1772701997700506600,5.813506591796875,7.153357843196392,0.2846230703759938,-2.204657577943802
1772701997710556700,5.823556640625,7.083738363525271,0.3962659475885331,-2.261004319065809
1772701997720605700,5.833605712890625,6.8491557006686925,0.3308185659702867,-2.7122517107725144
1772701997730654700,5.84365478515625,6.5446963685095305,0.33530827860496937,-3.2368560151129957
1772701997740703500,5.853703369140625,6.049599313682317,0.3369078227560967,-2.9841788926392794
1772701997750752800,5.863752685546875,5.263349567514657,0.3203424724023789,-2.0032330883234737
1772701997760801500,5.873801513671875,4.180944791674614,0.13342954241111873,-0.4870680621504783
1772701997770851600,5.8838515625,2.3056541926532983,0.010239289137348532,1.2257201908409594
1772701997780900600,5.893900634765625,-0.5691758519947528,0.2997853489987552,3.0741683756440876
1772701997790949600,5.90394970703125,-3.5982261520177126,0.8964227700233459,4.504592808428407
1772701997800998700,5.91399853515625,-5.906458670726418,1.4899039189741015,5.13262767662704
1772701997811047700,5.924047607421875,-6.73470514562428,1.8443091853022575,5.114119960033893
1772701997821096700,5.9340966796875,-6.236042507269978,2.0486238434061406,4.775098433059454
1772701997831145700,5.944145751953125,-5.192853305009007,2.2959992062099275,4.390786396506429
1772701997841195500,5.954195556640625,-4.059045674189925,2.2093312688432634,3.833151929223537
1772701997851244800,5.964244873046875,-3.0122803670078513,2.089569894039631,3.05652165979445
1772701997861293600,5.97429345703125,-1.8460598283618688,1.5608397419407962,1.7977964404523372
1772701997871342600,5.984342529296875,-0.7635960158109665,0.6295876505985856,0.37778000443577764
1772701997881391900,5.994391845703125,-0.0414268198877573,0.08358721474707126,-0.5830184993863106
1772701997891440600,6.004440673828125,0.49774961516261096,-0.23850465860590336,-1.2192641465693712
1772701997901489700,6.01448974609375,0.9335960241198539,-0.3725187229067087,-1.674180582177639
1772701997911539500,6.02453955078125,1.1531085436165331,-0.3173841340534389,-1.9406611890763044
1772701997921588700,6.034588623046875,1.2421253821969032,-0.19874533353894946,-1.8289450274318455
1772701997931637800,6.0446376953125,0.9548808042109012,-0.15062332686148583,-1.3662053508520124
1772701997941686500,6.0546865234375,0.4801993454247713,-0.27788704011924564,-0.7352776838213205
1772701997951735800,6.06473583984375,0.03996785325109958,-0.4508608766071498,-0.2932216065689921
1772701997961784600,6.07478466796875,-0.393980613130331,-0.2880103016614914,-0.19702011718153953
1772701997971833600,6.08483349609375,-0.8165355788379907,-0.05833448087312281,-0.2669324423193931
1772701997981883600,6.094883544921875,-1.2350725410759449,-0.03383658395446837,-0.19804449179321526
1772701997991932700,6.1049326171875,-1.614804264101386,-0.1578858652103692,-0.004360241036117076
1772701998001981700,6.114981689453125,-1.8121651575446127,-0.14697715237885714,0.28941373871862885
1772701998012030700,6.12503076171875,-1.7122317881524562,-0.08964161941520869,0.48244858565628523
1772701998022079700,6.135079833984375,-1.403167008024454,-0.06671579411886631,0.5237617160364986
1772701998032128500,6.14512841796875,-1.0062380664825439,-0.06297448869869113,0.5318748798653483
1772701998042177800,6.155177734375,-0.6018786826789378,-0.09849595700018107,0.6306374519124627
1772701998052227800,6.165227783203125,-0.21010230159461496,-0.1483514364067465,0.7615180404931307
1772701998062276600,6.175276611328125,0.21677812609672545,-0.07876008685156703,0.8643176129713654
1772701998072325600,6.18532568359375,0.5723112274110317,0.07289660164564847,0.9118313515573739
1772701998082374700,6.195374755859375,0.7744418194741011,0.24832908333204684,0.9655895374909043
1772701998092423700,6.205423583984375,0.8771382238388061,0.39610323130749164,0.9875310279250145
1772701998102472700,6.21547265625,1.003423593583703,0.37743564797751605,0.9586132687374949
1772701998112521700,6.225521728515625,1.1430132660597563,0.3362505278911441,0.8431745794385671
1772701998122571800,6.23557177734375,1.328143623483181,0.3913350670576095,0.642557899069786
1772701998132620500,6.24562060546875,1.5877900004476309,0.42305838518515226,0.4262929831922054
1772701998142669600,6.255669677734375,1.754722437879443,0.35350393357425924,0.3317442294478416
1772701998152718800,6.26571875,1.7689076150983571,0.17974486499279738,0.31754736179113385
1772701998162767600,6.275767578125,1.682654980534315,0.03356660790666938,0.2776613416045904
1772701998172816600,6.285816650390625,1.569161872345209,-0.028683950431644914,0.22223814506828785
1772701998182865700,6.29586572265625,1.395554194933176,-0.09058759502843022,0.18463176025152206
1772701998192915700,6.305915771484375,1.0957505796253681,-0.18895079249441624,0.2315729596465826
1772701998202964700,6.31596484375,0.6898252616792917,-0.22009543395116923,0.24398148258179425
1772701998213013800,6.326013671875,0.3628682665079832,-0.14716376099213957,0.22618074521422385
1772701998223062800,6.336062744140625,0.20073533831238746,-0.06376593133732676,0.158726919144392
1772701998233111600,6.346111572265625,0.06915653833448887,-0.04378478119075298,0.13084814761579036
1772701998243160800,6.356160888671875,-0.07721943328082562,-0.0701525636345148,0.16617840419411659
1772701998253209600,6.366209716796875,-0.22998130654096602,-0.08309343988075851,0.2114654066413641
1772701998263259600,6.376259765625,-0.3380675872504711,-0.08525178695842624,0.22656419157385824
1772701998273308700,6.38630859375,-0.36458325373232364,0.09629983519539237,0.13180062603503465
1772701998283357700,6.396357666015625,-0.38271278466284275,0.28168255994468927,0.059792497661709784
1772701998293406700,6.40640673828125,-0.33819033684730526,0.327522081708163,0.09065349987149238
1772701998303455500,6.41645556640625,-0.25088147122859955,0.3557958439037204,0.1340428520038724
1772701998313504800,6.4265048828125,-0.1858463967382908,0.256505448590219,0.12468728689849376
1772701998323553500,6.436553466796875,-0.012466682863235472,0.24275325596109032,0.06916705972850322
1772701998333603600,6.446603515625,0.17641805865764618,0.2468159753553569,0.016680208905041218
1772701998343652600,6.456652587890625,0.23645079481601713,0.14841025392189622,0.010152852962911128
1772701998353701600,6.46670166015625,0.2711421689689159,0.01606967579126358,0.03475274895131588
1772701998363750700,6.476750732421875,0.30238837110400196,-0.08960223725289106,0.038893794278800485
1772701998373799700,6.486799560546875,0.32911914164125916,-0.10619184526503085,0.04677110352516174
1772701998383848700,6.4968486328125,0.3641705812782049,-0.07656447650343179,0.12273293796032667
1772701998393898800,6.506898681640625,0.3639613224416971,-0.10322495828345417,0.09275164119452238
1772701998403947500,6.516947509765625,0.3035802112370729,-0.19571853306367992,0.08084259221404791
1772701998413996000,6.52699609375,0.27217501914799214,-0.25154358839914204,0.0932972923785448
1772701998424045000,6.537045166015625,0.18440905741155147,-0.3102273941665888,0.08168634956181049
1772701998434094000,6.547093994140625,0.14767711734175681,-0.3066841686017811,0.06731587890386581
1772701998444143000,6.55714306640625,0.06737608465850353,-0.22939108556285498,0.03445639635324478
1772701998454192000,6.567192138671875,-0.015228548792004585,-0.21826164265275,0.00945434930473566
1772701998464242000,6.577241943359375,-0.1284358257770538,-0.2508027069039643,0.043724283175170416
1772701998474291200,6.587291259765625,-0.21508768879175186,-0.27777912276536226,0.03350947089195251
1772701998484340000,6.597340087890625,-0.2258902378350496,-0.26483839264959097,0.026911680062115192
1772701998494389000,6.607388916015625,-0.22536592170000075,-0.2001218825891614,-0.01334083534926176
1772701998504438300,6.617438232421875,-0.19268296476006508,-0.17532573337629437,0.013824819473922252
1772701998514487000,6.627487060546875,-0.17983575814664363,-0.21146365307569503,-0.0038587212547659872
1772701998524536000,6.6375361328125,-0.1282417645096779,-0.3218015121042728,-0.032823534454405306
1772701998534585900,6.6475859375,-0.07387304546236992,-0.35098639779537916,-0.0074181673020124435
1772701998544635100,6.65763525390625,-0.0557832620203495,-0.3873793882343918,0.015583061318099499
1772701998554684200,6.66768408203125,-0.05532441233694553,-0.46552601936273275,0.10290887807160615
1772701998564733000,6.67773291015625,-0.11408756695091724,-0.47843028992563486,0.1551347398713231
1772701998574782200,6.6877822265625,-0.1723392649114132,-0.4213430326346308,0.05648088889569044
1772701998584831000,6.6978310546875,-0.2153998234808445,-0.3498216648649424,-0.014207096789777277
1772701998594880000,6.7078798828125,-0.24422259786128997,-0.2721297917667776,-0.14475918406844138
1772701998604930000,6.717929931640625,-0.17838380577266216,-0.15857413973547518,-0.23450784405469893
1772701998614979000,6.72797900390625,-0.13481003698408603,-0.17887984566129744,-0.18819500569105146
1772701998625028000,6.738028076171875,-0.11304536442160605,-0.20549714588671922,-0.14034896641075612
1772701998635077000,6.7480771484375,-0.05603811356425285,-0.1496206526249647,-0.15481588318049908
1772701998645126100,6.758126220703125,-0.06350187357366084,-0.08831555844321846,-0.22515987773388624
1772701998655175000,6.7681748046875,-0.10108137038350104,-0.08386179390475153,-0.24479104539901017
1772701998665224200,6.77822412109375,-0.15861585998535155,-0.2225398314286023,-0.25600129846036435
1772701998675274200,6.788274169921875,-0.23188392529189586,-0.3239016261886805,-0.2512123106181621
1772701998685323000,6.798322998046875,-0.3340671194374561,-0.2962292639523744,-0.3060775810107589
1772701998695372000,6.8083720703125,-0.4637041376978159,-0.23157179060280322,-0.30245149946808814
1772701998705421000,6.818421142578125,-0.50657297308743,-0.20884967118501663,-0.21405425409078596
1772701998715470000,6.828469970703125,-0.4270575378239155,-0.18949191363379358,-0.0901210004299879
1772701998725518800,6.838518798828125,-0.23357319355309009,-0.15111717479303477,0.006947334919869899
1772701998735569000,6.84856884765625,-0.13385200560688973,-0.17000468448400496,0.07217413258999586
1772701998745618200,6.8586181640625,-0.12231646611392498,-0.15317878349795935,0.10814677872508764
1772701998755667000,6.8686669921875,-0.09544424127936363,-0.10574738943316042,0.11861176637709141
1772701998765716000,6.878716064453125,-0.03248948019444942,-0.03652553077749908,0.08498685241192579
1772701998775765000,6.888764892578125,0.05619125829935073,-0.01123158811032772,0.07364420514255762
1772701998785814000,6.89881396484375,0.12879238412976265,-0.020230229536816476,0.0795639505803585
1772701998795863000,6.908863037109375,0.24382746106386183,-0.0008528174370527267,0.06285597688555718
1772701998805913000,6.9189130859375,0.22409926276504993,-0.06991298272497952,0.06625877106636763
1772701998815962000,6.928962158203125,0.1464712486833334,-0.09454261626452207,0.09857669408619403
1772701998826011000,6.939010986328125,0.07660802338421344,-0.001245835342630744,0.05966156475841999
1772701998836060200,6.94906005859375,-0.0053343467652797695,0.10854439974054693,-0.020662264278531073
1772701998846109200,6.959109130859375,0.4934317519634962,-0.03337532311826944,-0.16299509798288345
1772701998856158000,6.969157958984375,1.0108972904652356,0.09902714126743375,-0.08937661180347203
1772701998866207200,6.979207275390625,-0.27564883273839946,-0.4289208474777639,0.060009939804673194
1772701998876257000,6.989257080078125,-0.9612988545596599,-0.4419456756804138,0.13969605545997618
1772701998886306000,6.99930615234375,-1.0028273812562227,0.03575856499299407,-0.13181816169172525
1772701998896355000,7.00935498046875,-0.5862357078671455,0.16225370503105221,-0.12687573685348033
1772701998906404000,7.019404052734375,-0.31401334244608875,-0.03810958509854972,0.030289047540724277
1772701998916453000,7.029453125,0.07527472895383834,-0.010451032191887498,-0.0282794612839818
1772701998926502000,7.039501953125,0.2591103703916073,0.167324651619792,-0.09340630571097135
