time,seconds_elapsed,z,y,x
1772701991952406800,0.06540673828125,0.0411214753985405,0.0008753160946071148,-0.21584554016590118
1772701991962456000,0.0754560546875,0.04172201827168465,0.018122214823961258,-0.19598102569580078
1772701991972504800,0.0855048828125,0.03278670832514763,0.028974829241633415,-0.18464265763759613
1772701991982553900,0.095553955078125,0.02495488151907921,0.047265417873859406,-0.17291168868541718
1772701991992603000,0.105602783203125,0.010551920160651207,0.07806292176246643,-0.17369136214256287
1772701992002652000,0.11565185546875,-0.0008581276051700115,0.12100052833557129,-0.17846640944480896
1772701992012701000,0.125700927734375,-0.014107140712440014,0.16017471253871918,-0.18139004707336426
1772701992022750000,0.13575,-0.017932770773768425,0.1689615547657013,-0.17635826766490936
1772701992032800000,0.145800048828125,-0.021365586668252945,0.1599574089050293,-0.16587074100971222
1772701992042848800,0.155848876953125,-0.01958632841706276,0.13547682762145996,-0.15389344096183777
1772701992052898000,0.16589794921875,-0.022706735879182816,0.115814208984375,-0.1491367220878601
1772701992062947000,0.175947021484375,-0.022275835275650024,0.10357805341482162,-0.14786426723003387
1772701992072995800,0.185995849609375,-0.017086118459701538,0.10558666288852692,-0.14668507874011993
1772701992083045000,0.196045166015625,-0.009333658032119274,0.11925587803125381,-0.15217891335487366
1772701992093094000,0.206093994140625,0.008896179497241974,0.1379208117723465,-0.1539754718542099
1772701992103143000,0.216142822265625,0.027685048058629036,0.1449398398399353,-0.149821475148201
1772701992113192000,0.22619189453125,0.03876578435301781,0.1572694629430771,-0.1500522494316101
1772701992123242000,0.236241943359375,0.059520598500967026,0.17808473110198975,-0.1515825092792511
1772701992133291000,0.246291015625,0.08113761246204376,0.1864742785692215,-0.14213943481445312
1772701992143339800,0.25633984375,0.10030730813741684,0.19116942584514618,-0.1341904252767563
1772701992153389000,0.26638916015625,0.11497609317302704,0.18213188648223877,-0.13071860373020172
1772701992163437800,0.276437744140625,0.13356496393680573,0.18458092212677002,-0.12386016547679901
1772701992173486800,0.28648681640625,0.14586499333381653,0.1999983787536621,-0.12267402559518814
1772701992183535900,0.296535888671875,0.15768729150295258,0.20724643766880035,-0.12011206150054932
1772701992193585000,0.3065849609375,0.16862507164478302,0.22475390136241913,-0.12318654358386993
1772701992203635000,0.316635009765625,0.17983883619308472,0.2460472136735916,-0.1580590307712555
1772701992213684000,0.32668408203125,0.18481633067131042,0.27265068888664246,-0.19217969477176666
1772701992223733000,0.33673291015625,0.1794724315404892,0.3112891614437103,-0.2290133386850357
1772701992233781800,0.34678173828125,0.15524372458457947,0.35037776827812195,-0.27108439803123474
1772701992243831000,0.3568310546875,0.1156611517071724,0.3867238163948059,-0.3106435239315033
1772701992253880000,0.366880126953125,0.06814870238304138,0.42752042412757874,-0.33663129806518555
1772701992263928800,0.3769287109375,0.028747497126460075,0.46494823694229126,-0.34400638937950134
1772701992273978000,0.38697802734375,-0.005455142818391323,0.514916181564331,-0.3323637843132019
1772701992284027000,0.39702685546875,-0.017635108903050423,0.5876753926277161,-0.312446266412735
1772701992294077000,0.407076904296875,-0.001466764835640788,0.6569257378578186,-0.28489115834236145
1772701992304126000,0.4171259765625,0.019488850608468056,0.7207950353622437,-0.2663339674472809
1772701992314175000,0.427175048828125,0.030882438644766808,0.7754147052764893,-0.26980751752853394
1772701992324224000,0.43722412109375,0.03245237469673157,0.8261255621910095,-0.3049769401550293
1772701992334272800,0.447272705078125,0.02362862415611744,0.8679941296577454,-0.343227356672287
1772701992344322000,0.457322021484375,0.016577640548348427,0.8835041522979736,-0.3804554045200348
1772701992354370800,0.467370849609375,0.017894869670271873,0.9234780073165894,-0.39745572209358215
1772701992364419800,0.477419921875,0.02437726967036724,0.9878509044647217,-0.39881208539009094
1772701992374470000,0.487469970703125,0.030129114165902138,1.0425909757614136,-0.39654308557510376
1772701992384519000,0.497518798828125,0.03049609810113907,1.0953564643859863,-0.38348641991615295
1772701992394568000,0.50756787109375,0.032577093690633774,1.1519086360931396,-0.35867029428482056
1772701992404616400,0.517616455078125,0.029084622859954834,1.2146096229553223,-0.33168208599090576
1772701992414665200,0.527665283203125,0.014996292069554329,1.2550404071807861,-0.31520727276802063
1772701992424714200,0.53771435546875,-0.019025057554244995,1.266717553138733,-0.3077770471572876
1772701992434763300,0.54776318359375,-0.05960094556212425,1.2476683855056763,-0.3025030195713043
1772701992444812300,0.557812255859375,-0.09328141063451767,1.2089515924453735,-0.30093201994895935
1772701992454861300,0.567861328125,-0.09898078441619873,1.1669293642044067,-0.28375887870788574
1772701992464911000,0.5779111328125,-0.10114966332912445,1.1365400552749634,-0.26827099919319153
1772701992474960400,0.58796044921875,-0.10751873254776001,1.1154685020446777,-0.26746127009391785
1772701992485009200,0.598009033203125,-0.11857430636882782,1.0950809717178345,-0.26646551489830017
1772701992495058200,0.60805810546875,-0.12774448096752167,1.0782345533370972,-0.27036207914352417
1772701992505107500,0.618107421875,-0.14048929512500763,1.0788301229476929,-0.2850709855556488
1772701992515156200,0.62815625,-0.17364953458309174,1.0612903833389282,-0.3184594511985779
1772701992525205200,0.638205322265625,-0.214556485414505,1.0159602165222168,-0.38398173451423645
1772701992535254300,0.648254150390625,-0.24676956236362457,0.9292194247245789,-0.483212947845459
1772701992545304300,0.65830419921875,-0.21371041238307953,0.770876944065094,-0.5067659616470337
1772701992555353300,0.668353271484375,-0.14950983226299286,0.36462539434432983,-0.4890785813331604
1772701992565402400,0.67840234375,-0.08183358609676361,-0.24581748247146606,-0.4178435504436493
1772701992575451400,0.688451416015625,0.016134807839989662,-0.7808910012245178,-0.33792391419410706
1772701992585500200,0.698500244140625,0.11747287958860397,-1.1274046897888184,-0.3559665381908417
1772701992595549400,0.708549560546875,0.2004961520433426,-1.1833081245422363,-0.41215044260025024
1772701992605598200,0.71859814453125,0.22975391149520874,-1.1709444522857666,-0.4432185888290405
1772701992615647200,0.728647216796875,0.23472625017166138,-1.2769684791564941,-0.40983012318611145
1772701992625696300,0.7386962890625,0.2136039137840271,-1.4587297439575195,-0.3010362386703491
1772701992635746300,0.748746337890625,0.1738121509552002,-1.6135107278823853,-0.187652587890625
1772701992645795300,0.75879541015625,0.12889021635055542,-1.7426165342330933,-0.085692398250103
1772701992655844000,0.768843994140625,0.0829368457198143,-1.8863121271133423,0.06539736688137054
1772701992665893400,0.778893310546875,0.0029653203673660755,-2.1160688400268555,0.2915058732032776
1772701992675942100,0.788942138671875,-0.11459065228700638,-2.466334342956543,0.5749775767326355
1772701992685991200,0.7989912109375,-0.20787480473518372,-2.7597625255584717,0.8794735670089722
1772701992696040400,0.80904052734375,-0.2586747407913208,-2.8825998306274414,1.117767572402954
1772701992706089200,0.819089111328125,-0.24633149802684784,-2.721266031265259,1.3499376773834229
1772701992716139300,0.82913916015625,-0.207904651761055,-2.44274640083313,1.53054940700531
1772701992726188300,0.839188232421875,-0.16115926206111908,-2.189750909805298,1.6433448791503906
1772701992736237300,0.8492373046875,-0.09637529402971268,-1.9209741353988647,1.6610524654388428
1772701992746286300,0.859286376953125,-0.013257774524390697,-1.6625641584396362,1.5975083112716675
1772701992756335400,0.86933544921875,0.07806403189897537,-1.4183413982391357,1.449412226676941
1772701992766384400,0.87938427734375,0.18891464173793793,-1.1860625743865967,1.2246192693710327
1772701992776433200,0.88943310546875,0.31976619362831116,-1.0514334440231323,0.8916858434677124
1772701992786482400,0.899482421875,0.4478919506072998,-0.9886443614959717,0.4711194634437561
1772701992796531200,0.90953125,0.5382369756698608,-0.9447813034057617,0.019770925864577293
1772701992806581200,0.919581298828125,0.5672600865364075,-0.897540807723999,-0.3970915675163269
1772701992816630300,0.92963037109375,0.5511174201965332,-0.8453893661499023,-0.7470849752426147
1772701992826679300,0.93967919921875,0.5121561884880066,-0.738720178604126,-0.9973955154418945
1772701992836728300,0.949728271484375,0.44798633456230164,-0.64983069896698,-1.1017342805862427
1772701992846777000,0.959777099609375,0.34915271401405334,-0.6166556477546692,-1.0938230752944946
1772701992856826400,0.969826416015625,0.2157333791255951,-0.5954015851020813,-1.0151170492172241
1772701992866875400,0.97987548828125,0.0747365802526474,-0.5441703200340271,-0.8951517939567566
1772701992876924200,0.989924072265625,-0.07063494622707367,-0.49365511536598206,-0.7613745331764221
1772701992886974200,0.99997412109375,-0.2376774698495865,-0.4680573344230652,-0.6520544290542603
1772701992897023200,1.010023193359375,-0.3055844306945801,-0.2871699929237366,-0.4969613254070282
1772701992907072300,1.020072265625,-0.25718972086906433,-0.08874186128377914,-0.2727966606616974
1772701992917121500,1.03012158203125,-0.10522694140672684,0.2064751535654068,-0.05666234716773033
1772701992927170300,1.04017041015625,0.07497026026248932,0.5568498969078064,0.10064738243818283
1772701992937219300,1.05021923828125,0.18737931549549103,0.8513903617858887,0.17724226415157318
1772701992947268400,1.060268310546875,0.2582132816314697,1.069606900215149,0.20687605440616608
1772701992957317400,1.0703173828125,0.31505677103996277,1.1725541353225708,0.2580544650554657
1772701992967366100,1.0803662109375,0.37167105078697205,1.1295877695083618,0.31722962856292725
1772701992977416200,1.090416259765625,0.4265133738517761,0.9878313541412354,0.3747469186782837
1772701992987465500,1.100465576171875,0.47790783643722534,0.8162422776222229,0.41674095392227173
1772701992997514200,1.11051416015625,0.5185519456863403,0.6309077143669128,0.4298853576183319
1772701993007563300,1.120563232421875,0.5392414927482605,0.44333675503730774,0.4081052243709564
1772701993017612300,1.1306123046875,0.5319417715072632,0.32218971848487854,0.3619595766067505
1772701993027661300,1.140661376953125,0.5083892941474915,0.24697032570838928,0.29489773511886597
1772701993037710000,1.1507099609375,0.47057947516441345,0.24922674894332886,0.21042348444461823
1772701993047759400,1.16075927734375,0.4323212802410126,0.29578784108161926,0.10304563492536545
1772701993057809400,1.170809326171875,0.4054124355316162,0.3635605275630951,-0.02841034159064293
1772701993067858200,1.180858154296875,0.3903898000717163,0.41441068053245544,-0.13999545574188232
1772701993077907200,1.1909072265625,0.37784871459007263,0.47061964869499207,-0.2123938798904419
1772701993087956200,1.200956298828125,0.35218435525894165,0.5114265084266663,-0.2701437175273895
1772701993098005200,1.211005126953125,0.298734575510025,0.4643760621547699,-0.2944595515727997
1772701993108054300,1.22105419921875,0.21215787529945374,0.3370591104030609,-0.28391849994659424
1772701993118103300,1.231103271484375,0.14056384563446045,0.2104625552892685,-0.2573734223842621
1772701993128152300,1.24115234375,0.10772041231393814,0.21890690922737122,-0.22607675194740295
1772701993138201300,1.251201416015625,0.11404800415039062,0.4212470054626465,-0.2293655127286911
1772701993148251400,1.26125146484375,0.16934669017791748,0.7846630215644836,-0.2568280100822449
1772701993158300400,1.271300537109375,0.2453533262014389,1.1706880331039429,-0.31280529499053955
1772701993168349200,1.28134912109375,0.3073391914367676,1.3277567625045776,-0.3945781886577606
1772701993178398500,1.2913984375,0.21583588421344757,1.0265191793441772,-0.4857054650783539
1772701993188447200,1.301447265625,-0.02832910604774952,0.21403904259204865,-0.6611260175704956
1772701993198496300,1.311496337890625,0.06278131157159805,-0.23044931888580322,-0.9869044423103333
1772701993208545300,1.321545166015625,0.24891896545886993,0.39193835854530334,-1.3322131633758545
1772701993218594300,1.33159423828125,0.2631187438964844,0.6989623308181763,-1.5255368947982788
1772701993228644400,1.341644287109375,0.22405363619327545,1.2097229957580566,-1.584253191947937
1772701993238693000,1.351693115234375,0.2640378475189209,2.0544230937957764,-1.7585124969482422
1772701993248742400,1.361742431640625,0.4474777579307556,1.8583776950836182,-1.7989063262939453
1772701993258791200,1.371791259765625,0.4507080018520355,1.0233157873153687,-1.6731289625167847
1772701993268840200,1.381840087890625,0.3484732508659363,0.3208823502063751,-1.543333888053894
1772701993278889200,1.39188916015625,0.25556811690330505,-0.02162807434797287,-1.3658217191696167
1772701993288938200,1.401938232421875,0.10742926597595215,-0.14948058128356934,-1.0884065628051758
1772701993298987300,1.4119873046875,-0.016584627330303192,-0.2121468037366867,-0.6998212337493896
1772701993309036300,1.422036376953125,-0.05201718583703041,-0.2789314389228821,-0.2522689700126648
1772701993319086300,1.43208642578125,-0.0007570551242679358,-0.36767473816871643,0.208834707736969
1772701993329135000,1.442135009765625,0.0220947302877903,-0.3793526887893677,0.61222904920578
1772701993339184400,1.452184326171875,-0.02181665599346161,-0.3589840531349182,0.9740065336227417
1772701993349233400,1.4622333984375,-0.11587098240852356,-0.33248186111450195,1.265238881111145
1772701993359282200,1.4722822265625,-0.24999278783798218,-0.3102140724658966,1.4540925025939941
1772701993369331500,1.48233154296875,-0.399551659822464,-0.3384057581424713,1.5397738218307495
1772701993379380200,1.492380126953125,-0.49596551060676575,-0.20684246718883514,1.576175570487976
1772701993389429200,1.50242919921875,-0.5067824125289917,-0.06626138836145401,1.4773600101470947
1772701993399479300,1.512479248046875,-0.5391303896903992,0.029615312814712524,1.2102237939834595
1772701993409528300,1.5225283203125,-0.6377274990081787,0.31328698992729187,0.8929853439331055
1772701993419577300,1.532577392578125,-0.7624554634094238,0.6778187155723572,0.5972863435745239
1772701993429626000,1.542626220703125,-0.8690646886825562,1.0077157020568848,0.35423243045806885
1772701993439675400,1.55267529296875,-0.9671223163604736,1.3540422916412354,0.20330630242824554
1772701993449724200,1.56272412109375,-1.0381461381912231,1.6593995094299316,0.10401247441768646
1772701993459773200,1.572773193359375,-1.080987811088562,1.8137675523757935,0.004131120629608631
1772701993469822500,1.582822509765625,-1.082021951675415,1.8273935317993164,-0.07383611798286438
1772701993479872300,1.592872314453125,-1.008062481880188,1.7928333282470703,-0.09422893822193146
1772701993489921300,1.60292138671875,-0.8798211812973022,1.7099602222442627,-0.03409690037369728
1772701993499970300,1.61297021484375,-0.7210013270378113,1.566962480545044,0.09125692397356033
1772701993510019300,1.623019287109375,-0.5271905660629272,1.3504884243011475,0.2743537724018097
1772701993520068400,1.633068359375,-0.37839990854263306,1.1069546937942505,0.47562623023986816
1772701993530117400,1.643117431640625,-0.2758532762527466,0.9717448949813843,0.6379983425140381
1772701993540166400,1.65316650390625,-0.22464029490947723,0.9881957173347473,0.7293729782104492
1772701993550215200,1.663215087890625,-0.2286669909954071,1.0719026327133179,0.7173069715499878
1772701993560264400,1.673264404296875,-0.28378546237945557,1.19608736038208,0.63169926404953
1772701993570314500,1.683314453125,-0.3711983859539032,1.2834073305130005,0.4842751622200012
1772701993580363300,1.69336328125,-0.48016926646232605,1.2416248321533203,0.2797026038169861
1772701993590412300,1.703412353515625,-0.603935718536377,1.0264091491699219,0.0964297354221344
1772701993600461300,1.71346142578125,-0.6844815611839294,0.6727482080459595,0.026590118184685707
1772701993610510300,1.72351025390625,-0.7463681101799011,0.27774786949157715,0.09185274690389633
1772701993620559000,1.73355908203125,-0.7727763056755066,-0.0023873960599303246,0.23602616786956787
1772701993630608400,1.7436083984375,-0.7549501657485962,-0.20295964181423187,0.3808493912220001
1772701993640657200,1.7536572265625,-0.7179884314537048,-0.22565698623657227,0.4756850600242615
1772701993650707200,1.763707275390625,-0.6438798308372498,-0.19253312051296234,0.5141426920890808
1772701993660756200,1.773756103515625,-0.5485355854034424,-0.30534109473228455,0.5514858365058899
1772701993670805200,1.78380517578125,-0.4186593294143677,-0.6732155084609985,0.6253286004066467
1772701993680854300,1.793854248046875,-0.25904348492622375,-1.3198716640472412,0.7084640264511108
1772701993690903300,1.8039033203125,-0.08866483718156815,-1.919713020324707,0.7156407237052917
1772701993700952300,1.813952392578125,0.06073003262281418,-2.1381375789642334,0.6723083853721619
1772701993711001300,1.82400146484375,0.17031510174274445,-2.177541971206665,0.6069573760032654
1772701993721050400,1.83405029296875,0.24210824072360992,-2.0963776111602783,0.6007622480392456
1772701993731100400,1.844100341796875,0.3332916796207428,-1.964050054550171,0.5877452492713928
1772701993741149200,1.854149169921875,0.44388267397880554,-1.9107047319412231,0.6004429459571838
1772701993751198200,1.8641982421875,0.5474652647972107,-1.8437113761901855,0.656769871711731
1772701993761247500,1.87424755859375,0.6244855523109436,-1.6858525276184082,0.7679925560951233
1772701993771296300,1.884296142578125,0.7016716599464417,-1.540988802909851,0.9304344654083252
1772701993781345300,1.89434521484375,0.7512766122817993,-1.4297364950180054,1.058696985244751
1772701993791394300,1.904394287109375,0.706915020942688,-1.4077012538909912,1.1190342903137207
1772701993801443300,1.914443359375,0.5768168568611145,-1.3576693534851074,1.1257423162460327
1772701993811493400,1.924493408203125,0.40977516770362854,-1.4349007606506348,1.0625089406967163
1772701993821542100,1.934542236328125,0.2454434186220169,-1.4859496355056763,0.9048284888267517
1772701993831591400,1.94459130859375,0.13979607820510864,-1.390463948249817,0.6939015984535217
1772701993841640200,1.95464013671875,0.07818932831287384,-1.2439327239990234,0.4990036189556122
1772701993851689200,1.964689208984375,0.062038321048021317,-1.1143414974212646,0.3284108340740204
1772701993861738200,1.97473828125,0.08192137628793716,-0.9431065917015076,0.1294710487127304
1772701993871787300,1.984787353515625,0.11130296438932419,-0.7388951182365417,-0.08950870484113693
1772701993881836300,1.994836181640625,0.1634579300880432,-0.5741727352142334,-0.2765812575817108
1772701993891885300,2.00488525390625,0.23490814864635468,-0.42992499470710754,-0.437138170003891
1772701993901935400,2.014935302734375,0.3105396032333374,-0.28397873044013977,-0.5740464329719543
1772701993911984000,2.024984130859375,0.39067840576171875,-0.1587611734867096,-0.6842435002326965
1772701993922033400,2.035033447265625,0.45304208993911743,-0.07279235869646072,-0.7438909411430359
1772701993932082200,2.045082275390625,0.4766611158847809,-0.020885486155748367,-0.755830705165863
1772701993942131200,2.055131103515625,0.4854849874973297,0.020578067749738693,-0.7248432040214539
1772701993952180500,2.065180419921875,0.5156580805778503,0.04776015132665634,-0.6449822187423706
1772701993962229200,2.075229248046875,0.5543175339698792,0.05268024653196335,-0.47660064697265625
1772701993972278300,2.0852783203125,0.5807499289512634,0.14154912531375885,-0.2853547930717468
1772701993982328000,2.095328125,0.5723600387573242,0.2819455564022064,-0.1515047252178192
1772701993992377300,2.10537744140625,0.53053218126297,0.4198988974094391,-0.02995646558701992
1772701994002426400,2.11542626953125,0.48367106914520264,0.49890679121017456,0.08487405627965927
1772701994012475100,2.12547509765625,0.43828922510147095,0.5329121947288513,0.16675961017608643
1772701994022524400,2.1355244140625,0.39200034737586975,0.5109590888023376,0.18799999356269836
1772701994032573200,2.1455732421875,0.3421611487865448,0.4235999584197998,0.1587211936712265
1772701994042622200,2.155622314453125,0.2905411422252655,0.3182722330093384,0.09262776374816895
1772701994052671200,2.165671142578125,0.25965139269828796,0.2447575181722641,0.009767228737473488
1772701994062721300,2.17572119140625,0.25439757108688354,0.18446873128414154,-0.07460492849349976
1772701994072770300,2.185770263671875,0.2766442596912384,0.16375146806240082,-0.1456463485956192
1772701994082819300,2.1958193359375,0.31076106429100037,0.14138108491897583,-0.18089550733566284
1772701994092868400,2.205868408203125,0.35000088810920715,0.09719311445951462,-0.16486887633800507
1772701994102917000,2.215917236328125,0.39422208070755005,0.05895025655627251,-0.08632726967334747
1772701994112966400,2.22596630859375,0.4336158335208893,-0.054426372051239014,0.07117713987827301
1772701994123015400,2.236015380859375,0.4587247669696808,-0.36175107955932617,0.32780367136001587
1772701994133064200,2.246064208984375,0.4941336214542389,-0.7595197558403015,0.6250510811805725
1772701994143114200,2.2561142578125,0.5175529718399048,-1.14547860622406,0.9270451068878174
1772701994153163300,2.266163330078125,0.41811347007751465,-1.165892481803894,1.3303050994873047
1772701994163212300,2.27621240234375,0.27200523018836975,-1.014106035232544,1.6397703886032104
1772701994173261300,2.28626123046875,0.12316913902759552,-0.6483946442604065,1.6848571300506592
1772701994183310300,2.296310302734375,-0.032517775893211365,-0.07591593265533447,1.4999628067016602
1772701994193359400,2.306359375,-0.20508049428462982,0.7236158847808838,1.233676791191101
1772701994203408100,2.316408203125,-0.4543178081512451,1.6813019514083862,0.719527006149292
1772701994213457400,2.32645751953125,-0.8813934922218323,2.5741255283355713,-0.07128721475601196
1772701994223507500,2.336507568359375,-1.3567814826965332,2.910918712615967,-0.7528696656227112
1772701994233556200,2.34655615234375,-1.5173903703689575,2.331423044204712,-1.24519944190979
1772701994243605200,2.356605224609375,-1.3818355798721313,1.5646910667419434,-1.651817798614502
1772701994253654300,2.366654296875,-0.6015954613685608,0.7125741243362427,-1.8673319816589355
1772701994263703300,2.376703369140625,0.004243706818670034,-0.16030743718147278,-1.8735419511795044
1772701994273752300,2.38675244140625,0.3839492201805115,-0.3561469614505768,-1.643684983253479
1772701994283801300,2.39680126953125,0.8381845355033875,-0.36059755086898804,-1.3364157676696777
1772701994293850000,2.40685009765625,1.1015597581863403,-0.2832241952419281,-0.9917803406715393
1772701994303900200,2.416900146484375,1.1775001287460327,-0.1763158142566681,-0.6239359378814697
1772701994313949400,2.426949462890625,1.1531705856323242,-0.16002684831619263,-0.19493527710437775
1772701994323998200,2.436998291015625,1.0916181802749634,-0.14960768818855286,0.22287946939468384
1772701994334047200,2.447047119140625,0.9371524453163147,-0.1423705518245697,0.5810509324073792
1772701994344096300,2.45709619140625,0.760050892829895,-0.22199000418186188,0.8639710545539856
1772701994354145300,2.467145263671875,0.5701978802680969,-0.3962624669075012,1.0661559104919434
1772701994364194300,2.4771943359375,0.3679106533527374,-0.6064773201942444,1.1842248439788818
1772701994374243300,2.487243408203125,0.155949667096138,-0.6700690984725952,1.2202773094177246
1772701994384292400,2.497292236328125,-0.06760293245315552,-0.5927427411079407,1.1571812629699707
1772701994394342100,2.507342041015625,-0.2277582436800003,-0.4596419334411621,1.0179810523986816
1772701994404391200,2.51739111328125,-0.293316125869751,-0.23640739917755127,0.8245706558227539
1772701994414440200,2.527440185546875,-0.3041413426399231,0.05181347578763962,0.5959281921386719
1772701994424489000,2.537489013671875,-0.2844339907169342,0.2844870984554291,0.3420112729072571
1772701994434538200,2.547538330078125,-0.23455697298049927,0.3995617628097534,0.06824443489313126
1772701994444587000,2.5575869140625,-0.21818256378173828,0.4791513681411743,-0.17286041378974915
1772701994454636000,2.567635986328125,-0.2556875944137573,0.620596170425415,-0.3558177053928375
1772701994464685000,2.57768505859375,-0.3504985272884369,0.9422898292541504,-0.4642992615699768
1772701994474735000,2.587735107421875,-0.47198474407196045,1.362776279449463,-0.5404546856880188
1772701994484784000,2.5977841796875,-0.5754055380821228,1.7207891941070557,-0.6186510324478149
1772701994494833000,2.6078330078125,-0.6614168286323547,1.9915541410446167,-0.679027259349823
1772701994504882200,2.617882080078125,-0.7086310982704163,2.234062433242798,-0.705048143863678
1772701994514931000,2.627930908203125,-0.7518310546875,2.3853304386138916,-0.7143308520317078
1772701994524980000,2.63797998046875,-0.8216081261634827,2.378937005996704,-0.7169220447540283
1772701994535029000,2.648029052734375,-0.8381969928741455,2.2488913536071777,-0.7061892151832581
1772701994545078000,2.658078125,-0.8533627390861511,1.8774662017822266,-0.7441921830177307
1772701994555128000,2.668128173828125,-0.9178410768508911,1.4268425703048706,-0.8200763463973999
1772701994565177000,2.678177001953125,-0.9877161383628845,1.158725619316101,-0.9021518230438232
1772701994575226000,2.68822607421875,-1.0185844898223877,1.0247817039489746,-0.9560595154762268
1772701994585275000,2.69827490234375,-0.9836711287498474,0.9903439283370972,-1.0140999555587769
1772701994595324200,2.70832421875,-0.8707195520401001,1.1179929971694946,-1.0631753206253052
1772701994605373200,2.718373291015625,-0.7413521409034729,1.4217549562454224,-1.1025925874710083
1772701994615422000,2.728421875,-0.6108892560005188,1.8041303157806396,-1.1309956312179565
1772701994625471200,2.73847119140625,-0.4810672700405121,2.0504813194274902,-1.0702054500579834
1772701994635521000,2.74852099609375,-0.3650703430175781,2.037501811981201,-0.9216405153274536
1772701994645570000,2.758570068359375,-0.27800241112709045,1.8037776947021484,-0.7681700587272644
1772701994655619000,2.768619140625,-0.21141114830970764,1.4644126892089844,-0.6823606491088867
1772701994665668000,2.778668212890625,-0.14639067649841309,0.978732705116272,-0.6699447631835938
1772701994675717000,2.788717041015625,-0.041587818413972855,0.3259165287017822,-0.6107006072998047
1772701994685766000,2.798765869140625,0.11705359071493149,-0.2233913391828537,-0.48765265941619873
1772701994695815200,2.808815185546875,0.238455131649971,-0.814477801322937,-0.3400922417640686
1772701994705865200,2.818865234375,0.33881092071533203,-1.3307379484176636,-0.14223219454288483
1772701994715914000,2.8289140625,0.46757739782333374,-1.5836793184280396,0.1537131667137146
1772701994725963000,2.838962890625,0.6022300124168396,-1.5534496307373047,0.4853115379810333
1772701994736012000,2.849011962890625,0.6642560958862305,-1.30866539478302,0.8140708208084106
1772701994746061000,2.85906103515625,0.6416809558868408,-1.1297544240951538,1.0161372423171997
1772701994756110000,2.869110107421875,0.5582097768783569,-1.069665551185608,1.040238618850708
1772701994766159000,2.8791591796875,0.39704471826553345,-0.9241526126861572,0.8411222100257874
1772701994776208100,2.8892080078125,0.14559653401374817,-0.8192145228385925,0.4985129237174988
1772701994786258000,2.8992578125,-0.12537269294261932,-0.9086865186691284,0.12498217076063156
1772701994796307200,2.90930712890625,-0.3750874698162079,-1.1417524814605713,-0.21373116970062256
1772701994806356000,2.91935595703125,-0.4953368008136749,-1.3328187465667725,-0.2807711362838745
1772701994816405000,2.929405029296875,-0.5617623925209045,-1.5151033401489258,-0.03825249895453453
1772701994826454300,2.939454345703125,-0.6376218795776367,-1.7183520793914795,0.41162508726119995
1772701994836503000,2.9495029296875,-0.7090441584587097,-1.791232943534851,0.8759118318557739
1772701994846552000,2.959552001953125,-0.7391000986099243,-1.6806248426437378,1.180484652519226
1772701994856601000,2.96960107421875,-0.7417813539505005,-1.418785810470581,1.3163341283798218
1772701994866651100,2.979651123046875,-0.6958503723144531,-1.1905759572982788,1.364194631576538
1772701994876700200,2.9897001953125,-0.574979841709137,-1.295754075050354,1.364669680595398
1772701994886749000,2.9997490234375,-0.4554670453071594,-1.6134847402572632,1.3274472951889038
1772701994896798200,3.009798095703125,-0.32530850172042847,-1.8452743291854858,1.2370151281356812
1772701994906847000,3.019846923828125,-0.2071274369955063,-1.8539799451828003,1.1161137819290161
1772701994916896000,3.02989599609375,-0.0872574970126152,-1.8151278495788574,1.002312183380127
1772701994926945000,3.039945068359375,0.047402024269104004,-1.7355808019638062,0.9386727213859558
1772701994936994000,3.049994140625,0.1732233464717865,-1.6559258699417114,0.8901440501213074
1772701994947044000,3.060044189453125,0.2612360417842865,-1.5001842975616455,0.8247666954994202
1772701994957093000,3.070093017578125,0.32066476345062256,-1.3186652660369873,0.7406763434410095
1772701994967142100,3.08014208984375,0.32561251521110535,-1.205129623413086,0.6118190884590149
1772701994977191000,3.09019091796875,0.3082606792449951,-1.0994226932525635,0.44165903329849243
1772701994987240200,3.100240234375,0.31039494276046753,-0.9771566390991211,0.22290514409542084
1772701994997289000,3.1102890625,0.32095012068748474,-0.900574266910553,-0.007478263229131699
1772701995007338000,3.120337890625,0.28110432624816895,-0.7825545072555542,-0.23142002522945404
1772701995017387300,3.13038720703125,0.2232503443956375,-0.7009091377258301,-0.46327003836631775
1772701995027437000,3.14043701171875,0.020456619560718536,-0.5565834045410156,-0.6903656125068665
1772701995037486000,3.150486083984375,-0.13488662242889404,-0.30961835384368896,-0.8859596252441406
1772701995047534800,3.160534912109375,-0.2204056978225708,-0.12040673941373825,-1.0018815994262695
1772701995057584000,3.170584228515625,-0.28058353066444397,-0.01763509027659893,-1.0521986484527588
1772701995067633200,3.180633056640625,-0.26841965317726135,0.218948096036911,-0.9975498914718628
1772701995077682000,3.190681884765625,-0.16180531680583954,0.425433874130249,-0.8653969168663025
1772701995087731200,3.200731201171875,0.025989968329668045,0.5652950406074524,-0.6355361342430115
1772701995097780000,3.210780029296875,0.25958940386772156,0.6928308606147766,-0.40792617201805115
1772701995107830000,3.220830078125,0.47098401188850403,0.8036113977432251,-0.24411165714263916
1772701995117879000,3.230879150390625,0.5499526262283325,0.8367419242858887,-0.14375442266464233
1772701995127928000,3.240927978515625,0.4927002489566803,0.8650509715080261,-0.07520882040262222
1772701995137977000,3.25097705078125,0.37511691451072693,0.8660461902618408,-0.04510417953133583
1772701995148026000,3.261026123046875,0.2986559271812439,0.8431244492530823,-0.0328659862279892
1772701995158075100,3.2710751953125,0.3135477900505066,0.7532712817192078,-0.02687174640595913
1772701995168124000,3.2811240234375,0.37964391708374023,0.5963033437728882,-0.023249924182891846
1772701995178174000,3.291174072265625,0.4382409155368805,0.47402670979499817,-0.0352940708398819
1772701995188223200,3.30122314453125,0.44588884711265564,0.40624117851257324,-0.0934612900018692
1772701995198272000,3.31127197265625,0.39567121863365173,0.39352697134017944,-0.22706648707389832
1772701995208321000,3.321321044921875,0.3289402723312378,0.47391825914382935,-0.47208407521247864
1772701995218370000,3.3313701171875,0.26688143610954285,0.6213524341583252,-0.8100682497024536
1772701995228419000,3.341419189453125,0.2230120152235031,0.7978681921958923,-1.1848876476287842
1772701995238467800,3.3514677734375,0.20811668038368225,0.8782988786697388,-1.5212864875793457
1772701995248517000,3.36151708984375,0.21855954825878143,0.7903655171394348,-1.7554051876068115
1772701995258567200,3.371567138671875,0.2275722175836563,0.7143077850341797,-1.860660433769226
1772701995268616000,3.381615966796875,0.26722171902656555,0.9019376039505005,-1.7410337924957275
1772701995278665000,3.3916650390625,0.5352510213851929,1.5617270469665527,-1.3670740127563477
1772701995288714000,3.4017138671875,1.0314112901687622,2.4196858406066895,-0.9498493075370789
1772701995298763000,3.411762939453125,1.0773553848266602,1.5912164449691772,-1.233755350112915
1772701995308812000,3.42181201171875,0.6467156410217285,0.8474059104919434,-1.8286441564559937
1772701995318861000,3.431861083984375,0.28043004870414734,1.4322052001953125,-2.346022844314575
1772701995328910000,3.44191015625,0.4666537046432495,0.9994848966598511,-2.6042885780334473
1772701995338960000,3.4519599609375,0.6728790402412415,0.04794938117265701,-2.4733967781066895
1772701995349009200,3.462009033203125,0.6897859573364258,-0.163542702794075,-2.117018938064575
1772701995359058200,3.47205810546875,0.6541896462440491,-0.11075485497713089,-1.6985077857971191
1772701995369107000,3.48210693359375,0.5245116353034973,-0.07353366911411285,-1.101671576499939
1772701995379156200,3.49215625,0.2790012061595917,-0.08584573119878769,-0.36780402064323425
1772701995389205000,3.502205078125,0.09174896031618118,-0.07291249185800552,0.3328893184661865
1772701995399254000,3.51225390625,0.05893908068537712,-0.05658678337931633,0.8325952887535095
1772701995409303600,3.522303466796875,0.0735877975821495,-0.10821641981601715,1.0833790302276611
1772701995419353600,3.532353515625,-0.021307554095983505,-0.2662537097930908,1.1393975019454956
1772701995429402600,3.542402587890625,-0.08115464448928833,-0.3479882776737213,1.1319047212600708
1772701995439451600,3.55245166015625,-0.10996925085783005,-0.5424216985702515,1.0080419778823853
1772701995449500700,3.562500732421875,-0.12054058909416199,-0.7656004428863525,0.8555136322975159
1772701995459549700,3.5725498046875,-0.09858309477567673,-0.8578991889953613,0.7243268489837646
1772701995469598500,3.582598388671875,-0.08421100676059723,-0.8822992444038391,0.6259689331054688
1772701995479647700,3.592647705078125,-0.062214627861976624,-0.8466248512268066,0.5546913146972656
1772701995489697800,3.60269775390625,-0.02615244872868061,-0.7923951745033264,0.5067640542984009
1772701995499746600,3.61274658203125,0.03413938358426094,-0.6949858069419861,0.4735957384109497
1772701995509795600,3.622795654296875,0.09426172077655792,-0.5028279423713684,0.4333469569683075
1772701995519844600,3.6328447265625,0.18281343579292297,-0.17666448652744293,0.414512038230896
1772701995529893600,3.6428935546875,0.2943056523799896,0.1951795071363449,0.36034390330314636
1772701995539942400,3.6529423828125,0.41876208782196045,0.5825815796852112,0.2690179646015167
1772701995549991700,3.66299169921875,0.5470830202102661,1.0652590990066528,0.17339473962783813
1772701995560040400,3.67304052734375,0.6550161242485046,1.6103214025497437,0.059292398393154144
1772701995570090500,3.683090576171875,0.7650001049041748,1.9086823463439941,-0.08270493894815445
1772701995580139500,3.693139404296875,0.8474515676498413,1.8360310792922974,-0.2561558187007904
1772701995590188500,3.7031884765625,0.7952290773391724,1.6244051456451416,-0.40640610456466675
1772701995600237600,3.713237548828125,0.5482257008552551,1.521945834159851,-0.5085095167160034
1772701995610286600,3.72328662109375,0.14483743906021118,1.436588168144226,-0.6299875974655151
1772701995620335600,3.733335693359375,-0.17596933245658875,1.3931235074996948,-0.7313198447227478
1772701995630384600,3.743384521484375,-0.2551991641521454,1.3718124628067017,-0.7896462082862854
1772701995640433700,3.75343359375,-0.22515974938869476,1.2863138914108276,-0.8439440727233887
1772701995650483700,3.763483642578125,-0.15379182994365692,1.257464051246643,-0.8532928824424744
1772701995660532500,3.773532470703125,-0.07720305025577545,1.315531849861145,-0.8332448601722717
1772701995670581500,3.78358154296875,0.005419226363301277,1.2939523458480835,-0.8012592792510986
1772701995680630800,3.793630859375,0.09637229889631271,1.2157459259033203,-0.7084800601005554
1772701995690679600,3.803679443359375,0.18308335542678833,1.0911569595336914,-0.5644569993019104
1772701995700728600,3.813728515625,0.22090397775173187,0.8898360729217529,-0.36687523126602173
1772701995710777600,3.823777587890625,0.22288629412651062,0.4989359974861145,-0.09211272746324539
1772701995720827600,3.83382763671875,0.21911898255348206,-0.0767504870891571,0.21874873340129852
1772701995730876700,3.843876708984375,0.23017428815364838,-0.6738302707672119,0.5304633975028992
1772701995740925400,3.853925537109375,0.22528180480003357,-1.068446397781372,0.7916353344917297
1772701995750974700,3.863974609375,0.21084432303905487,-1.1858744621276855,0.9920364022254944
1772701995761023500,3.8740234375,0.20735478401184082,-1.0971826314926147,1.1348551511764526
1772701995771072500,3.884072509765625,0.21541553735733032,-0.8899102807044983,1.1922905445098877
1772701995781121500,3.89412158203125,0.213573157787323,-0.5555323362350464,1.1185518503189087
1772701995791170600,3.904170654296875,0.19985881447792053,-0.15119615197181702,0.9373971223831177
1772701995801220600,3.914220703125,0.1524825096130371,0.10655495524406433,0.7063601613044739
1772701995811269600,3.92426953125,0.07687651365995407,0.07307451963424683,0.5623552203178406
1772701995821318700,3.934318603515625,0.05217569321393967,-0.18480229377746582,0.4010504484176636
1772701995831367400,3.944367431640625,0.08452307432889938,-0.452719509601593,0.24470166862010956
1772701995841416700,3.954416748046875,0.16355478763580322,-0.7605507969856262,0.1793666034936905
1772701995851465700,3.9644658203125,0.29276010394096375,-1.1180310249328613,0.2632092535495758
1772701995861514500,3.974514404296875,0.4646623730659485,-1.2939645051956177,0.4613838791847229
1772701995871563800,3.984563720703125,0.6258965134620667,-1.3873677253723145,0.7363759875297546
1772701995881613600,3.994613525390625,0.6893281936645508,-1.4765604734420776,1.0067713260650635
1772701995891662600,4.00466259765625,0.60567706823349,-1.3407520055770874,1.224649429321289
1772701995901711600,4.014711669921875,0.48370110988616943,-1.0775721073150635,1.2796000242233276
1772701995911760600,4.0247607421875,0.2536420524120331,-0.7862240076065063,1.1569746732711792
1772701995921809700,4.0348095703125,-0.056992001831531525,-0.5488950610160828,0.8921246528625488
1772701995931858400,4.0448583984375,-0.2582991421222687,-0.28869861364364624,0.5829082727432251
1772701995941907700,4.05490771484375,-0.26907962560653687,-0.22848083078861237,0.3178963363170624
1772701995951957800,4.064957763671875,-0.12575401365756989,-0.46958887577056885,0.22286082804203033
1772701995962006500,4.075006591796875,0.14511370658874512,-1.0744812488555908,0.12489272654056549
1772701995972055600,4.0850556640625,0.3996374011039734,-1.8410571813583374,-0.2142150104045868
1772701995982104600,4.0951044921875,0.4924863576889038,-2.5028369426727295,-0.5728964805603027
1772701995992153600,4.105153564453125,0.31472012400627136,-2.7572033405303955,-0.7818895578384399
1772701996002202600,4.11520263671875,0.015254596248269081,-2.7878270149230957,-0.80586177110672
1772701996012251600,4.125251708984375,-0.22563204169273376,-2.577268600463867,-0.6406185030937195
1772701996022300400,4.135300537109375,-0.3881269693374634,-2.3533670902252197,-0.36579570174217224
1772701996032350500,4.1453505859375,-0.46647071838378906,-2.1010682582855225,-0.07064391672611237
1772701996042399700,4.155399658203125,-0.4421917200088501,-1.9150636196136475,0.08411290496587753
1772701996052448500,4.165448486328125,-0.38398250937461853,-1.6704622507095337,0.06795626878738403
1772701996062497500,4.17549755859375,-0.3356724977493286,-1.3456518650054932,-0.06855284422636032
1772701996072546600,4.185546630859375,-0.29851648211479187,-1.0509365797042847,-0.18026989698410034
1772701996082595600,4.195595703125,-0.2808879315853119,-0.8043108582496643,-0.17260293662548065
1772701996092644600,4.20564453125,-0.2868022322654724,-0.6565421223640442,-0.05941902846097946
1772701996102694400,4.2156943359375,-0.2780204713344574,-0.6032999157905579,0.09024610370397568
1772701996112743700,4.22574365234375,-0.3006400167942047,-0.6138673424720764,0.2017558515071869
1772701996122792400,4.23579248046875,-0.3286282420158386,-0.5301561951637268,0.27790653705596924
1772701996132841500,4.245841552734375,-0.29667508602142334,-0.4348333477973938,0.3307354152202606
1772701996142890800,4.255890869140625,-0.22059711813926697,-0.38745224475860596,0.3080154359340668
1772701996152939500,4.265939453125,-0.14975325763225555,-0.3188489079475403,0.2281283587217331
1772701996162988500,4.275988525390625,-0.13036251068115234,-0.1678658127784729,0.12099525332450867
1772701996173037600,4.28603759765625,-0.1391863375902176,0.06579368561506271,0.04761721193790436
1772701996183087600,4.296087646484375,-0.1508810669183731,0.28317341208457947,0.010463452897965908
1772701996193136600,4.30613671875,-0.14921581745147705,0.4796326756477356,0.004129613749682903
1772701996203185700,4.316185546875,-0.14043457806110382,0.6953383088111877,-0.004933922551572323
1772701996213234700,4.326234619140625,-0.11299597471952438,0.9209436178207397,-0.018805494531989098
1772701996223283500,4.336283447265625,-0.054350778460502625,1.0896016359329224,-0.04842384159564972
1772701996233332700,4.346332763671875,0.022133007645606995,1.1902000904083252,-0.08465883880853653
1772701996243381500,4.356381591796875,0.10987217724323273,1.2311664819717407,-0.10979188978672028
1772701996253431600,4.366431640625,0.19559405744075775,1.2055832147598267,-0.1355222463607788
1772701996263480600,4.37648046875,0.28561049699783325,1.1277320384979248,-0.14155377447605133
1772701996273529600,4.386529541015625,0.38195276260375977,1.0434038639068604,-0.12509064376354218
1772701996283578600,4.39657861328125,0.49058201909065247,1.0147533416748047,-0.08714566379785538
1772701996293627400,4.40662744140625,0.5946146845817566,1.0494177341461182,-0.042980074882507324
1772701996303676700,4.4166767578125,0.7109770178794861,1.1166939735412598,-0.013627244159579277
1772701996313725400,4.426725341796875,0.8419631123542786,1.1209590435028076,-0.023458953946828842
1772701996323775500,4.436775390625,0.9853682518005371,1.025658130645752,-0.014789566397666931
1772701996333824500,4.446824462890625,1.1616065502166748,0.7839916348457336,0.0943589061498642
1772701996343873500,4.45687353515625,1.3918286561965942,0.434560090303421,0.31571099162101746
1772701996353922600,4.466922607421875,1.6415221691131592,0.07664860785007477,0.5987144112586975
1772701996363971600,4.4769716796875,1.774458646774292,-0.21328414976596832,0.8427214622497559
1772701996374020600,4.4870205078125,1.6464524269104004,-0.274515837430954,0.8828927874565125
1772701996384069600,4.497069580078125,1.3430501222610474,-0.023247117176651955,0.570002555847168
1772701996394118700,4.50711865234375,1.035076379776001,0.6709203124046326,-0.08353450149297714
1772701996404168700,4.517168701171875,0.8428909778594971,1.7838990688323975,-0.7862238883972168
1772701996414218000,4.527218017578125,0.6632792353630066,2.938734769821167,-1.2912112474441528
1772701996424266800,4.537266845703125,0.24527615308761597,3.548567295074463,-1.6077748537063599
1772701996434316000,4.54731591796875,-0.16771496832370758,3.2663087844848633,-1.689606785774231
1772701996444364800,4.55736474609375,-0.09302421659231186,1.9976054430007935,-1.5456395149230957
1772701996454413800,4.567413818359375,-0.06127889081835747,0.2608877122402191,-1.3495829105377197
1772701996464462800,4.577462890625,-0.2699868381023407,-0.7122678160667419,-1.1348689794540405
1772701996474512000,4.587511962890625,-0.44978412985801697,-0.8841801285743713,-0.8747244477272034
1772701996484562000,4.59756201171875,-0.5825069546699524,-0.6507775187492371,-0.5554191470146179
1772701996494610700,4.607610595703125,-0.6888344287872314,-0.40803220868110657,-0.1969306468963623
1772701996504660000,4.617659912109375,-0.7486178278923035,-0.42752787470817566,0.18024301528930664
1772701996514708700,4.627708740234375,-0.7384383082389832,-0.4917299151420593,0.6029893755912781
1772701996524757800,4.6377578125,-0.6495185494422913,-0.6059132218360901,0.9902587532997131
1772701996534806800,4.647806884765625,-0.5086907148361206,-0.7597513198852539,1.2714165449142456
1772701996544855800,4.657855712890625,-0.33786943554878235,-0.8816742897033691,1.3893578052520752
1772701996554905900,4.66790576171875,-0.14385192096233368,-0.9493347406387329,1.389708161354065
1772701996564955000,4.677954833984375,0.11380704492330551,-0.9213427901268005,1.3755749464035034
1772701996575004000,4.68800390625,0.30641549825668335,-1.0358909368515015,1.2713984251022339
1772701996585052700,4.698052734375,0.3692154884338379,-1.1582624912261963,1.0489970445632935
1772701996595102000,4.70810205078125,0.3304269313812256,-1.0621424913406372,0.7792271375656128
1772701996605151000,4.71815087890625,0.26950979232788086,-0.7742004990577698,0.5183114409446716
1772701996615199700,4.72819970703125,0.21876047551631927,-0.3244297206401825,0.27540627121925354
1772701996625249800,4.738249755859375,0.19635450839996338,0.14653939008712769,0.06586024165153503
1772701996635298800,4.748298828125,0.16853153705596924,0.6056334972381592,-0.12476520985364914
1772701996645347800,4.758347900390625,0.0878705233335495,1.0852112770080566,-0.3292829394340515
1772701996655396900,4.76839697265625,0.1608578860759735,1.6820402145385742,-0.5766730308532715
1772701996665446000,4.77844580078125,0.31988269090652466,2.16666316986084,-0.8779442310333252
1772701996675495000,4.788494873046875,0.3678796887397766,2.5293285846710205,-1.2014704942703247
1772701996685543700,4.798543701171875,0.17870257794857025,2.7517876625061035,-1.5633938312530518
1772701996695593000,4.808593017578125,-0.26292064785957336,2.991854429244995,-1.8980340957641602
1772701996705643000,4.81864306640625,-0.6981751322746277,3.19138765335083,-2.1270439624786377
1772701996715691800,4.82869189453125,-0.9344687461853027,2.9526093006134033,-2.267439842224121
1772701996725740800,4.83874072265625,-0.9649432897567749,2.225205183029175,-2.3479509353637695
1772701996735789800,4.848789794921875,-0.9219154119491577,1.5142860412597656,-2.3655009269714355
1772701996745838800,4.8588388671875,-0.8495930433273315,1.1269229650497437,-2.2166004180908203
1772701996755887900,4.868887939453125,-0.7310502529144287,1.0283743143081665,-1.9291861057281494
1772701996765937000,4.87893701171875,-0.5473030209541321,1.1544686555862427,-1.5531799793243408
1772701996775987000,4.888987060546875,-0.3731754422187805,1.1262452602386475,-1.107468843460083
1772701996786035700,4.89903564453125,-0.25750449299812317,1.3050291538238525,-0.5895540118217468
1772701996796085000,4.9090849609375,-0.23289932310581207,1.1853934526443481,-0.11424318701028824
1772701996806133800,4.9191337890625,-0.220690056681633,0.6957393884658813,0.2499494105577469
1772701996816182800,4.929182861328125,-0.1903744637966156,0.1586017608642578,0.444227010011673
1772701996826231800,4.939231689453125,-0.15578000247478485,-0.1401929259300232,0.46676161885261536
1772701996836280800,4.94928076171875,-0.16280855238437653,-0.2430705577135086,0.4066222310066223
1772701996846331000,4.959330810546875,-0.22313819825649261,-0.28272104263305664,0.32791784405708313
1772701996856379600,4.969379638671875,-0.3059980869293213,-0.3302878737449646,0.23215414583683014
1772701996866429000,4.979428955078125,-0.35649269819259644,-0.4437345564365387,0.13448190689086914
1772701996876477700,4.989477783203125,-0.3780181407928467,-0.5497150421142578,0.02271013893187046
1772701996886526700,4.999526611328125,-0.3553602397441864,-0.6010658740997314,-0.10534077137708664
1772701996896576000,5.009575927734375,-0.31471726298332214,-0.598788857460022,-0.24020008742809296
1772701996906624800,5.019624755859375,-0.2887019217014313,-0.5671326518058777,-0.37547749280929565
1772701996916673800,5.029673828125,-0.31627190113067627,-0.5424331426620483,-0.4642128348350525
1772701996926723800,5.039723876953125,-0.37412694096565247,-0.588996946811676,-0.48777779936790466
1772701996936772900,5.04977294921875,-0.4396502673625946,-0.7038039565086365,-0.43647411465644836
1772701996946822000,5.05982177734375,-0.48179319500923157,-0.7896632552146912,-0.3495756983757019
1772701996956871000,5.069870849609375,-0.5200588703155518,-0.7976363301277161,-0.24438512325286865
1772701996966920000,5.079919921875,-0.5603647232055664,-0.6442632675170898,-0.1717764437198639
1772701996976968700,5.08996875,-0.6116346716880798,-0.18081235885620117,-0.14890527725219727
1772701996987018000,5.10001806640625,-0.6068418025970459,0.4757623076438904,-0.09912680089473724
1772701996997068000,5.110068115234375,-0.4786653220653534,1.2507821321487427,0.1182066947221756
1772701997007116800,5.12011669921875,-0.3479730784893036,2.028860092163086,0.5212209820747375
1772701997017165800,5.130165771484375,-0.3887118697166443,2.6069655418395996,1.2890037298202515
1772701997027214800,5.14021484375,-0.34448447823524475,2.219043254852295,2.2862393856048584
1772701997037264000,5.150263916015625,0.2546910345554352,0.8049699068069458,3.258700370788574
1772701997047312600,5.160312744140625,0.2119121551513672,-0.4899711608886719,3.709078311920166
1772701997057362000,5.17036181640625,0.23270295560359955,-1.5007587671279907,3.2227859497070312
1772701997067412000,5.180411865234375,0.13107138872146606,-1.9508079290390015,2.282871961593628
1772701997077460700,5.190460693359375,-0.27207741141319275,-2.049405574798584,1.2947570085525513
1772701997087509800,5.200509765625,-0.44966232776641846,-2.492635488510132,0.6682677268981934
1772701997097558800,5.210558837890625,-0.44734710454940796,-2.7068045139312744,0.29060500860214233
1772701997107607800,5.22060791015625,-0.4104602038860321,-2.4811506271362305,0.020881380885839462
1772701997117656800,5.23065673828125,-0.45774969458580017,-2.0977838039398193,-0.19219014048576355
1772701997127705900,5.240705810546875,-0.5063920617103577,-1.8233842849731445,-0.4311222732067108
1772701997137756000,5.250755859375,-0.5174868702888489,-1.6210126876831055,-0.6885337233543396
1772701997147804700,5.2608046875,-0.5009022951126099,-1.3665181398391724,-0.9297300577163696
1772701997157854000,5.27085400390625,-0.473975270986557,-1.0882666110992432,-1.1281676292419434
1772701997167903000,5.280903076171875,-0.42262154817581177,-0.8654141426086426,-1.2240710258483887
1772701997177951700,5.29095166015625,-0.34028351306915283,-0.7305690050125122,-1.187342882156372
1772701997188001000,5.3010009765625,-0.2588946521282196,-0.6870249509811401,-0.9879975318908691
1772701997198049800,5.3110498046875,-0.20030200481414795,-0.7418262958526611,-0.710096001625061
1772701997208098800,5.321098876953125,-0.17926223576068878,-0.8103853464126587,-0.43811050057411194
1772701997218148900,5.33114892578125,-0.17796646058559418,-0.8515634536743164,-0.19439569115638733
1772701997228198000,5.341197998046875,-0.19713883101940155,-0.8177695274353027,0.027610473334789276
1772701997238247000,5.351246826171875,-0.22172033786773682,-0.7225598096847534,0.240409255027771
1772701997248295700,5.361295654296875,-0.21528559923171997,-0.6153082251548767,0.429106742143631
1772701997258345000,5.371344970703125,-0.1398838311433792,-0.5253905653953552,0.5778458714485168
1772701997268393700,5.381393798828125,-0.026576176285743713,-0.46398311853408813,0.6685736179351807
1772701997278442800,5.39144287109375,0.0746215358376503,-0.4228227734565735,0.7264739274978638
1772701997288492800,5.401492919921875,0.1379118263721466,-0.3970066010951996,0.7306450009346008
1772701997298541800,5.411541748046875,0.13452711701393127,-0.35797983407974243,0.6952442526817322
1772701997308590800,5.4215908203125,0.11771351099014282,-0.23528720438480377,0.6368629932403564
1772701997318639900,5.431639892578125,0.097824327647686,-0.050532400608062744,0.5685322880744934
1772701997328689000,5.44168896484375,0.08785984665155411,0.10274796932935715,0.5194584727287292
1772701997338737700,5.451737548828125,0.09142830967903137,0.14448556303977966,0.5001764297485352
1772701997348787000,5.461786865234375,0.08491554856300354,0.15746580064296722,0.5074282288551331
1772701997358837000,5.4718369140625,0.06378135085105896,0.15406599640846252,0.47201523184776306
1772701997368885800,5.4818857421875,0.047820497304201126,0.12701547145843506,0.40577495098114014
1772701997378934800,5.491934814453125,0.024933381006121635,0.15640825033187866,0.31248876452445984
1772701997388983800,5.50198388671875,-0.00625010346993804,0.24914270639419556,0.24475127458572388
1772701997399032800,5.51203271484375,0.007357520051300526,0.3159872591495514,0.19667105376720428
1772701997409081900,5.522081787109375,0.050650667399168015,0.273016095161438,0.20123358070850372
1772701997419130600,5.532130615234375,0.11354018747806549,0.06565810739994049,0.2965009808540344
1772701997429180700,5.5421806640625,0.18103213608264923,-0.23081722855567932,0.4259375333786011
1772701997439229700,5.552229736328125,0.2773991525173187,-0.4130365550518036,0.5367514491081238
1772701997449278700,5.56227880859375,0.4008728861808777,-0.3898308277130127,0.6223763227462769
1772701997459327700,5.57232763671875,0.6003647446632385,-0.10667810589075089,0.7072368860244751
1772701997469376500,5.58237646484375,1.0321688652038574,0.7254987359046936,0.9876882433891296
1772701997479425800,5.59242578125,1.753623604774475,2.38700532913208,1.744279384613037
1772701997489474800,5.602474853515625,2.0244052410125732,1.9695700407028198,1.4949634075164795
1772701997499524600,5.612524658203125,1.2605475187301636,1.4150471687316895,0.8122743964195251
1772701997509573600,5.62257373046875,0.4714568853378296,1.9937595129013062,0.33757874369621277
1772701997519622700,5.63262255859375,0.3176805078983307,1.9627503156661987,-0.08550950884819031
1772701997529671700,5.642671630859375,0.5641164183616638,0.3046620190143585,-0.4322488009929657
1772701997539720700,5.652720703125,0.6823920607566833,-1.320624589920044,-0.798258900642395
1772701997549769700,5.662769775390625,0.771641731262207,-2.015901803970337,-1.1253690719604492
1772701997559818800,5.67281884765625,0.9234384298324585,-1.673596978187561,-1.2691829204559326
1772701997569868500,5.68286865234375,1.095258116722107,-1.0484228134155273,-1.2776120901107788
1772701997579917600,5.69291748046875,1.1940946578979492,-0.5221412181854248,-1.1141587495803833
1772701997589966800,5.702966796875,1.0780506134033203,-0.2540152072906494,-0.8123567700386047
1772701997600015600,5.713015625,0.9075257778167725,-0.3467700779438019,-0.4182399809360504
1772701997610064600,5.723064697265625,0.6991560459136963,-0.7184764742851257,-0.018155960366129875
1772701997620113700,5.73311376953125,0.45659714937210083,-1.2109529972076416,0.36798185110092163
1772701997630163700,5.743163818359375,0.19665558636188507,-1.5921179056167603,0.709852397441864
1772701997640212700,5.753212646484375,-0.07022932171821594,-1.692339539527893,0.9293949007987976
1772701997650261800,5.76326171875,-0.3309887647628784,-1.4731440544128418,0.9900547862052917
1772701997660310800,5.773310791015625,-0.4465237855911255,-1.0364468097686768,0.9346272349357605
1772701997670359600,5.783359619140625,-0.416445791721344,-0.5956986546516418,0.7444761991500854
1772701997680408800,5.793408935546875,-0.381374329328537,-0.2251104712486267,0.43992865085601807
1772701997690457600,5.80345751953125,-0.4058418571949005,0.13082154095172882,0.17860515415668488
1772701997700506600,5.813506591796875,-0.4528948664665222,0.41422542929649353,0.02184160053730011
1772701997710556700,5.823556640625,-0.45566001534461975,0.5480670928955078,0.016024190932512283
1772701997720605700,5.833605712890625,-0.4262836277484894,0.5589519143104553,0.06852053850889206
1772701997730654700,5.84365478515625,-0.37685590982437134,0.504205584526062,0.06336864829063416
1772701997740703500,5.853703369140625,-0.34042561054229736,0.43253636360168457,-0.024621807038784027
1772701997750752800,5.863752685546875,-0.3492254912853241,0.3755204975605011,-0.16673393547534943
1772701997760801500,5.873801513671875,-0.3944332003593445,0.3029368221759796,-0.29676148295402527
1772701997770851600,5.8838515625,-0.44693610072135925,0.21531085669994354,-0.34934693574905396
1772701997780900600,5.893900634765625,-0.4923131763935089,0.21264395117759705,-0.3728083670139313
1772701997790949600,5.90394970703125,-0.5480427742004395,0.3424203395843506,-0.4559168219566345
1772701997800998700,5.91399853515625,-0.5775412917137146,0.6048459410667419,-0.5837323069572449
1772701997811047700,5.924047607421875,-0.5578799843788147,0.8150423169136047,-0.6835979223251343
1772701997821096700,5.9340966796875,-0.44293689727783203,0.7672762870788574,-0.7055277228355408
1772701997831145700,5.944145751953125,-0.26682206988334656,0.3946603536605835,-0.6373805999755859
1772701997841195500,5.954195556640625,-0.10411593317985535,-0.14118948578834534,-0.48646992444992065
1772701997851244800,5.964244873046875,0.015703149139881134,-0.5834696888923645,-0.27962008118629456
1772701997861293600,5.97429345703125,0.10441266000270844,-0.9106917977333069,-0.09727063775062561
1772701997871342600,5.984342529296875,0.1733136922121048,-1.0201290845870972,0.04180283099412918
1772701997881391900,5.994391845703125,0.22830262780189514,-0.9766980409622192,0.11270949989557266
1772701997891440600,6.004440673828125,0.2809208333492279,-0.8991596102714539,0.16022081673145294
1772701997901489700,6.01448974609375,0.32074758410453796,-0.8233420848846436,0.21405155956745148
1772701997911539500,6.02453955078125,0.3576084077358246,-0.788415253162384,0.2721649408340454
1772701997921588700,6.034588623046875,0.3634911775588989,-0.7440721392631531,0.27972573041915894
1772701997931637800,6.0446376953125,0.3628363013267517,-0.6391600966453552,0.2320101261138916
1772701997941686500,6.0546865234375,0.3377152979373932,-0.5365477204322815,0.17355990409851074
1772701997951735800,6.06473583984375,0.2557695806026459,-0.45464110374450684,0.09916476905345917
1772701997961784600,6.07478466796875,0.16626687347888947,-0.4222697615623474,0.03295861929655075
1772701997971833600,6.08483349609375,0.10390602797269821,-0.4484883248806,-0.01649494841694832
1772701997981883600,6.094883544921875,0.058868199586868286,-0.5064545273780823,-0.038407742977142334
1772701997991932700,6.1049326171875,-0.0007136411732062697,-0.6020532250404358,-0.013624098151922226
1772701998001981700,6.114981689453125,-0.07082732766866684,-0.7065120339393616,0.05094652622938156
1772701998012030700,6.12503076171875,-0.12824775278568268,-0.7430180907249451,0.12707671523094177
1772701998022079700,6.135079833984375,-0.15609784424304962,-0.7224739193916321,0.1974027454853058
1772701998032128500,6.14512841796875,-0.17856134474277496,-0.6901066303253174,0.23611684143543243
1772701998042177800,6.155177734375,-0.2107662409543991,-0.6756744384765625,0.2331361621618271
1772701998052227800,6.165227783203125,-0.25408947467803955,-0.6662663221359253,0.18770769238471985
1772701998062276600,6.175276611328125,-0.29027506709098816,-0.681492269039154,0.10595382004976273
1772701998072325600,6.18532568359375,-0.3090633749961853,-0.718705415725708,0.014356253668665886
1772701998082374700,6.195374755859375,-0.31145772337913513,-0.7323558330535889,-0.09510700404644012
1772701998092423700,6.205423583984375,-0.30658841133117676,-0.7197622656822205,-0.19560351967811584
1772701998102472700,6.21547265625,-0.2938867211341858,-0.6858782768249512,-0.2701509892940521
1772701998112521700,6.225521728515625,-0.27017179131507874,-0.6417797803878784,-0.3048839271068573
1772701998122571800,6.23557177734375,-0.22302258014678955,-0.567974328994751,-0.312770813703537
1772701998132620500,6.24562060546875,-0.15960153937339783,-0.47267767786979675,-0.29845285415649414
1772701998142669600,6.255669677734375,-0.09795666486024857,-0.3700098991394043,-0.28748902678489685
1772701998152718800,6.26571875,-0.05535780265927315,-0.26159578561782837,-0.27569812536239624
1772701998162767600,6.275767578125,-0.03135136142373085,-0.16261515021324158,-0.25589093565940857
1772701998172816600,6.285816650390625,-0.003783115651458502,-0.1020391434431076,-0.21907061338424683
1772701998182865700,6.29586572265625,0.018182892352342606,-0.07930680364370346,-0.1701688915491104
1772701998192915700,6.305915771484375,0.013945269398391247,-0.029754964634776115,-0.10702666640281677
1772701998202964700,6.31596484375,-0.0016119549982249737,0.014090390875935555,-0.04194498807191849
1772701998213013800,6.326013671875,-0.014873698353767395,0.06422386318445206,0.018642188981175423
1772701998223062800,6.336062744140625,-0.027258921414613724,0.10085311532020569,0.08474911749362946
1772701998233111600,6.346111572265625,-0.047123175114393234,0.12751027941703796,0.14059187471866608
1772701998243160800,6.356160888671875,-0.07998554408550262,0.15964825451374054,0.16876807808876038
1772701998253209600,6.366209716796875,-0.11991964280605316,0.17450231313705444,0.18429510295391083
1772701998263259600,6.376259765625,-0.14715029299259186,0.17013338208198547,0.18759548664093018
1772701998273308700,6.38630859375,-0.16471943259239197,0.13653573393821716,0.18275012075901031
1772701998283357700,6.396357666015625,-0.1650710552930832,0.09041698276996613,0.1724041998386383
1772701998293406700,6.40640673828125,-0.16152797639369965,0.0726688802242279,0.15245500206947327
1772701998303455500,6.41645556640625,-0.15632300078868866,0.05961952358484268,0.11178092658519745
1772701998313504800,6.4265048828125,-0.15271228551864624,0.053688663989305496,0.07587752491235733
1772701998323553500,6.436553466796875,-0.14044959843158722,0.05071564391255379,0.04694348946213722
1772701998333603600,6.446603515625,-0.12119627743959427,0.040714409202337265,0.024138309061527252
1772701998343652600,6.456652587890625,-0.10522453486919403,0.03933488950133324,0.006935581564903259
1772701998353701600,6.46670166015625,-0.09522063285112381,0.048353418707847595,-0.022439084947109222
1772701998363750700,6.476750732421875,-0.08575356751680374,0.06656251847743988,-0.04911349341273308
1772701998373799700,6.486799560546875,-0.07146970182657242,0.09109901636838913,-0.06652843207120895
1772701998383848700,6.4968486328125,-0.05591174215078354,0.10672631114721298,-0.07678476721048355
1772701998393898800,6.506898681640625,-0.042246263474226,0.1181294396519661,-0.08159177005290985
1772701998403947500,6.516947509765625,-0.03424789756536484,0.12200753390789032,-0.07936849445104599
1772701998413996000,6.52699609375,-0.027438461780548096,0.12671014666557312,-0.07827872782945633
1772701998424045000,6.537045166015625,-0.027950026094913483,0.13974419236183167,-0.061894383281469345
1772701998434094000,6.547093994140625,-0.018261445686221123,0.14272479712963104,-0.029179049655795097
1772701998444143000,6.55714306640625,-0.015243775211274624,0.1515362560749054,0.005576304160058498
1772701998454192000,6.567192138671875,-0.011173399165272713,0.15094716846942902,0.03595178574323654
1772701998464242000,6.577241943359375,-0.0072086770087480545,0.15367650985717773,0.07505638897418976
1772701998474291200,6.587291259765625,-0.0039343200623989105,0.15815168619155884,0.11832663416862488
1772701998484340000,6.597340087890625,0.004869971424341202,0.15726405382156372,0.1691790372133255
1772701998494389000,6.607388916015625,0.021481173112988472,0.16013175249099731,0.23105652630329132
1772701998504438300,6.617438232421875,0.04403938353061676,0.14841625094413757,0.28814932703971863
1772701998514487000,6.627487060546875,0.062310002744197845,0.1333046704530716,0.3399917483329773
1772701998524536000,6.6375361328125,0.07429153472185135,0.12622305750846863,0.36902785301208496
1772701998534585900,6.6475859375,0.07175727188587189,0.1326545923948288,0.38584384322166443
1772701998544635100,6.65763525390625,0.05871345102787018,0.1232159361243248,0.3797279894351959
1772701998554684200,6.66768408203125,0.03684384003281593,0.10473573207855225,0.3536045253276825
1772701998564733000,6.67773291015625,0.0377388671040535,0.0911908969283104,0.30913522839546204
1772701998574782200,6.6877822265625,0.043144818395376205,0.08244640380144119,0.2537260353565216
1772701998584831000,6.6978310546875,0.054333485662937164,0.08952975273132324,0.1942588984966278
1772701998594880000,6.7078798828125,0.07804574072360992,0.10162822902202606,0.14596274495124817
1772701998604930000,6.717929931640625,0.10837651789188385,0.0794713944196701,0.09861528873443604
1772701998614979000,6.72797900390625,0.12533234059810638,0.0414142906665802,0.050597961992025375
1772701998625028000,6.738028076171875,0.13737905025482178,0.016640763729810715,-0.003369253594428301
1772701998635077000,6.7480771484375,0.16395100951194763,0.011586349457502365,-0.057957131415605545
1772701998645126100,6.758126220703125,0.19701215624809265,0.008345158770680428,-0.10490082949399948
1772701998655175000,6.7681748046875,0.2162494957447052,-0.010384054854512215,-0.14555664360523224
1772701998665224200,6.77822412109375,0.22776855528354645,-0.038632214069366455,-0.17776985466480255
1772701998675274200,6.788274169921875,0.22759997844696045,-0.06605131924152374,-0.197627454996109
1772701998685323000,6.798322998046875,0.2301008105278015,-0.08624100685119629,-0.20424768328666687
1772701998695372000,6.8083720703125,0.22739823162555695,-0.07462722808122635,-0.19912615418434143
1772701998705421000,6.818421142578125,0.22469846904277802,-0.04417691379785538,-0.17289121448993683
1772701998715470000,6.828469970703125,0.22426356375217438,-0.040972866117954254,-0.13443809747695923
1772701998725518800,6.838518798828125,0.22138990461826324,-0.05543088540434837,-0.1011897474527359
1772701998735569000,6.84856884765625,0.22430872917175293,-0.06926494091749191,-0.07668573409318924
1772701998745618200,6.8586181640625,0.2268649935722351,-0.06953353434801102,-0.07184764742851257
1772701998755667000,6.8686669921875,0.2289412021636963,-0.06378883123397827,-0.06396175920963287
1772701998765716000,6.878716064453125,0.2348594218492508,-0.05483289062976837,-0.06157195195555687
1772701998775765000,6.888764892578125,0.2414478063583374,-0.034035198390483856,-0.06594513356685638
1772701998785814000,6.89881396484375,0.24773886799812317,-0.018565554171800613,-0.07119570672512054
1772701998795863000,6.908863037109375,0.24794261157512665,-0.01460729818791151,-0.07909464091062546
1772701998805913000,6.9189130859375,0.24256305396556854,-0.021128453314304352,-0.07735844701528549
1772701998815962000,6.928962158203125,0.23361404240131378,-0.02574131265282631,-0.08130791038274765
1772701998826011000,6.939010986328125,0.22171539068222046,-0.003384589683264494,-0.07182516157627106
1772701998836060200,6.94906005859375,0.22802574932575226,0.059473469853401184,0.03172599896788597
1772701998846109200,6.959109130859375,0.28074911236763,-0.18739598989486694,0.18902453780174255
1772701998856158000,6.969157958984375,0.27499109506607056,-0.31053870916366577,0.13353677093982697
1772701998866207200,6.979207275390625,0.18679498136043549,-0.20753639936447144,-0.019006120041012764
1772701998876257000,6.989257080078125,0.15879078209400177,-0.05292604863643646,-0.16814447939395905
1772701998886306000,6.99930615234375,0.1771361082792282,-0.05496324971318245,-0.21558374166488647
1772701998896355000,7.00935498046875,0.14763547480106354,-0.04389435052871704,-0.18631534278392792
1772701998906404000,7.019404052734375,0.12231599539518356,-0.05303698405623436,-0.11163177341222763
1772701998916453000,7.029453125,0.11228466778993607,-0.08025555312633514,-0.023085130378603935
1772701998926502000,7.039501953125,0.0998867005109787,-0.06339588016271591,0.05119267851114273
