time,seconds_elapsed,z,y,x
1772701991948639000,0.061638916015625,0.0412350557744503,0.010948254726827145,-0.22498491406440735
1772701991958688000,0.07168798828125,0.04133465513586998,0.017798705026507378,-0.2024977058172226
1772701991968736800,0.08173681640625,0.039575107395648956,0.03116218000650406,-0.1871994435787201
1772701991978786000,0.0917861328125,0.030950991436839104,0.045047637075185776,-0.17916496098041534
1772701991988834800,0.101834716796875,0.017299894243478775,0.07199563086032867,-0.17103245854377747
1772701991998883800,0.1118837890625,0.004333495628088713,0.11182107031345367,-0.17709462344646454
1772701992008932900,0.121932861328125,-0.0068091703578829765,0.15444469451904297,-0.1797039806842804
1772701992018982000,0.13198193359375,-0.018672220408916473,0.1758280247449875,-0.18379725515842438
1772701992029032000,0.142031982421875,-0.02009967528283596,0.17429722845554352,-0.1704425811767578
1772701992039081000,0.1520810546875,-0.021693311631679535,0.15369448065757751,-0.15386413037776947
1772701992049130000,0.1621298828125,-0.021757492795586586,0.13077186048030853,-0.14780783653259277
1772701992059178800,0.1721787109375,-0.025733059272170067,0.11606641858816147,-0.15007232129573822
1772701992069228000,0.18222802734375,-0.019235746935009956,0.10950012505054474,-0.14817962050437927
1772701992079277000,0.192277099609375,-0.012656140141189098,0.11789307743310928,-0.14843794703483582
1772701992089325800,0.202325927734375,-0.0003992078418377787,0.140413299202919,-0.15818031132221222
1772701992099375000,0.212375,0.018141454085707664,0.15338902175426483,-0.1507338583469391
1772701992109423900,0.222423828125,0.03124021179974079,0.15623514354228973,-0.1499175876379013
1772701992119474000,0.232473876953125,0.047866858541965485,0.17743417620658875,-0.1516353338956833
1772701992129522700,0.242522705078125,0.07009413093328476,0.19243016839027405,-0.14750024676322937
1772701992139572000,0.252572021484375,0.09352941811084747,0.1972222626209259,-0.13761885464191437
1772701992149621000,0.26262109375,0.10988255590200424,0.19118833541870117,-0.1312490999698639
1772701992159669800,0.272669677734375,0.12408093363046646,0.19023758172988892,-0.12786954641342163
1772701992169719000,0.282718994140625,0.1379951536655426,0.20105400681495667,-0.12571825087070465
1772701992179767800,0.292767822265625,0.15139031410217285,0.21200013160705566,-0.12159301340579987
1772701992189816800,0.30281689453125,0.16504940390586853,0.2248711884021759,-0.12519866228103638
1772701992199867100,0.3128671875,0.17601177096366882,0.24510322511196136,-0.14125272631645203
1772701992209916000,0.322916015625,0.18069520592689514,0.26745912432670593,-0.17996950447559357
1772701992219965000,0.33296484375,0.18396849930286407,0.3041636347770691,-0.21780183911323547
1772701992230014000,0.343013916015625,0.16645076870918274,0.34352460503578186,-0.25798413157463074
1772701992240063000,0.35306298828125,0.1288762241601944,0.37876808643341064,-0.2963525652885437
1772701992250111700,0.36311181640625,0.08511489629745483,0.4169466197490692,-0.3279570937156677
1772701992260161000,0.3731611328125,0.03849785774946213,0.4624755084514618,-0.34637364745140076
1772701992270210000,0.3832099609375,0.005027781706303358,0.5002255439758301,-0.33952879905700684
1772701992280258800,0.3932587890625,-0.017945710569620132,0.5673406720161438,-0.32372668385505676
1772701992290308900,0.403308837890625,-0.010160758160054684,0.6403602957725525,-0.296141117811203
1772701992300358000,0.41335791015625,0.00944969430565834,0.7066798806190491,-0.2683566212654114
1772701992310407000,0.423406982421875,0.025671541690826416,0.7633706331253052,-0.2685805857181549
1772701992320456000,0.4334560546875,0.03545546159148216,0.8149776458740234,-0.29221296310424805
1772701992330505000,0.4435048828125,0.024944497272372246,0.8600942492485046,-0.33005860447883606
1772701992340554000,0.453553955078125,0.019223496317863464,0.8860341906547546,-0.36504852771759033
1772701992350602800,0.463602783203125,0.016589628532528877,0.9122620820999146,-0.3907325863838196
1772701992360652000,0.473652099609375,0.020128171890974045,0.9711887836456299,-0.3995319604873657
1772701992370702000,0.4837021484375,0.02678554132580757,1.0297576189041138,-0.3933701813220978
1772701992380750800,0.493750732421875,0.03133555129170418,1.0858386754989624,-0.38720443844795227
1772701992390800000,0.5037998046875,0.03129667043685913,1.1381189823150635,-0.36705923080444336
1772701992400849000,0.513848876953125,0.02924816682934761,1.2011069059371948,-0.3440130352973938
1772701992410897200,0.523897216796875,0.020664531737565994,1.2482984066009521,-0.3172762393951416
1772701992420946400,0.533946533203125,-0.005371595732867718,1.2756680250167847,-0.3077056109905243
1772701992430995200,0.5439951171875,-0.047327302396297455,1.2659727334976196,-0.30640146136283875
1772701992441044200,0.554044189453125,-0.08417133241891861,1.2310928106307983,-0.30493035912513733
1772701992451093200,0.56409326171875,-0.09801125526428223,1.187699556350708,-0.2941863536834717
1772701992461143300,0.574143310546875,-0.09889968484640121,1.1524549722671509,-0.2746526002883911
1772701992471192300,0.5841923828125,-0.10551124811172485,1.1275964975357056,-0.2657504379749298
1772701992481241300,0.594241455078125,-0.11488157510757446,1.1066830158233643,-0.2635815739631653
1772701992491290400,0.604290283203125,-0.12501411139965057,1.0912880897521973,-0.2705758213996887
1772701992501339100,0.614339111328125,-0.13157667219638824,1.0836879014968872,-0.27932778000831604
1772701992511388400,0.624388427734375,-0.16001497209072113,1.0759046077728271,-0.3027670681476593
1772701992521437400,0.6344375,-0.20043456554412842,1.0469248294830322,-0.35142621397972107
1772701992531486200,0.644486328125,-0.24573414027690887,0.9703299403190613,-0.4476102590560913
1772701992541536300,0.654536376953125,-0.23345136642456055,0.8582486510276794,-0.509869396686554
1772701992551585300,0.664585205078125,-0.17387405037879944,0.5623512268066406,-0.5019145011901855
1772701992561634300,0.67463427734375,-0.10749264061450958,-0.004822185728698969,-0.4524175226688385
1772701992571683300,0.684683349609375,-0.02852858044207096,-0.5937229990959167,-0.35972994565963745
1772701992581732400,0.694732421875,0.0798807144165039,-1.017935037612915,-0.34411290287971497
1772701992591781400,0.704781494140625,0.1734253168106079,-1.185524582862854,-0.3909001052379608
1772701992601830100,0.714830078125,0.2204761803150177,-1.1561882495880127,-0.4441737234592438
1772701992611879400,0.72487939453125,0.23522396385669708,-1.2112301588058472,-0.4364364445209503
1772701992621928200,0.73492822265625,0.22189991176128387,-1.3845443725585938,-0.34216904640197754
1772701992631978200,0.744978271484375,0.18946473300457,-1.5518561601638794,-0.22518198192119598
1772701992642027300,0.75502734375,0.14042209088802338,-1.6895700693130493,-0.12867727875709534
1772701992652076300,0.765076171875,0.10089146345853806,-1.8091646432876587,0.0011110707418993115
1772701992662125300,0.775125244140625,0.037273600697517395,-2.016212224960327,0.19882947206497192
1772701992672174300,0.78517431640625,-0.0733138918876648,-2.3119168281555176,0.46327683329582214
1772701992682223400,0.795223388671875,-0.17536570131778717,-2.6622519493103027,0.7742940783500671
1772701992692272000,0.805272216796875,-0.24784602224826813,-2.8580667972564697,1.0343680381774902
1772701992702321400,0.8153212890625,-0.2546232342720032,-2.7981951236724854,1.2685909271240234
1772701992712371500,0.825371337890625,-0.22634366154670715,-2.5419211387634277,1.468409538269043
1772701992722420200,0.835420166015625,-0.1828252077102661,-2.2730772495269775,1.6110899448394775
1772701992732469200,0.84546923828125,-0.12501463294029236,-2.0157575607299805,1.6621861457824707
1772701992742518300,0.855518310546875,-0.046730753034353256,-1.7469931840896606,1.632710576057434
1772701992752567300,0.8655673828125,0.04360686615109444,-1.4984171390533447,1.5126731395721436
1772701992762616300,0.8756162109375,0.138246551156044,-1.2598075866699219,1.3207156658172607
1772701992772665300,0.885665283203125,0.27056756615638733,-1.0774822235107422,1.0277029275894165
1772701992782714400,0.89571435546875,0.4013764560222626,-1.0041773319244385,0.6352664232254028
1772701992792763100,0.90576318359375,0.51129549741745,-0.9527440071105957,0.18837310373783112
1772701992802813200,0.915813232421875,0.5617530941963196,-0.9089914560317993,-0.2506926655769348
1772701992812862500,0.925862548828125,0.5593681931495667,-0.857463538646698,-0.6255525946617126
1772701992822911200,0.9359111328125,0.5271309018135071,-0.7779276967048645,-0.9201085567474365
1772701992832960300,0.945960205078125,0.4761050343513489,-0.6659513711929321,-1.0799943208694458
1772701992843009300,0.95600927734375,0.3909358084201813,-0.6181244850158691,-1.1074135303497314
1772701992853058300,0.966058349609375,0.27272874116897583,-0.5941248536109924,-1.0527327060699463
1772701992863107300,0.976107421875,0.12659841775894165,-0.5577127933502197,-0.9448086023330688
1772701992873156400,0.98615625,-0.019847474992275238,-0.5038977861404419,-0.8137238025665283
1772701992883206400,0.996206298828125,-0.17982542514801025,-0.4757484197616577,-0.6921324133872986
1772701992893255200,1.006255126953125,-0.29431071877479553,-0.3609832227230072,-0.5643552541732788
1772701992903304400,1.016304443359375,-0.2900374233722687,-0.16018328070640564,-0.3641476035118103
1772701992913353200,1.026353271484375,-0.17394649982452393,0.09404607117176056,-0.1355903148651123
1772701992923402200,1.03640234375,0.008310394361615181,0.4343935251235962,0.053700514137744904
1772701992933451300,1.046451171875,0.15569159388542175,0.7575209736824036,0.1577073335647583
1772701992943500300,1.056500244140625,0.23375895619392395,1.0004491806030273,0.19463711977005005
1772701992953549300,1.06654931640625,0.2896965444087982,1.1604918241500854,0.23388972878456116
1772701992963598300,1.076598388671875,0.3517468571662903,1.1667473316192627,0.29516321420669556
1772701992973648400,1.0866484375,0.4082775115966797,1.0505342483520508,0.3544241189956665
1772701992983697200,1.096697265625,0.46006694436073303,0.884498655796051,0.40201535820961
1772701992993746200,1.10674609375,0.501125693321228,0.7091651558876038,0.43021929264068604
1772701993003795500,1.11679541015625,0.533561646938324,0.5155158042907715,0.41991180181503296
1772701993013844200,1.12684423828125,0.532281219959259,0.3730878233909607,0.37911587953567505
1772701993023893200,1.136893310546875,0.5188913941383362,0.271638423204422,0.32433652877807617
1772701993033942300,1.1469423828125,0.48605433106422424,0.24720606207847595,0.24181662499904633
1772701993043991300,1.1569912109375,0.44230419397354126,0.2847451865673065,0.14331401884555817
1772701993054041300,1.167041259765625,0.41230419278144836,0.34879180788993835,0.020472517237067223
1772701993064090400,1.17709033203125,0.39427247643470764,0.4015466272830963,-0.10423479229211807
1772701993074139400,1.187139404296875,0.38107970356941223,0.4548484683036804,-0.1916448026895523
1772701993084188200,1.197188232421875,0.3641798198223114,0.5132672786712646,-0.25232067704200745
1772701993094237400,1.207237548828125,0.3234267830848694,0.5013318061828613,-0.2848844528198242
1772701993104286200,1.2172861328125,0.24879437685012817,0.40108776092529297,-0.2925964593887329
1772701993114335200,1.227335205078125,0.1608719676733017,0.2550930082798004,-0.2720107436180115
1772701993124384500,1.237384521484375,0.11530794948339462,0.20571240782737732,-0.2377568930387497
1772701993134433300,1.247433349609375,0.10366061329841614,0.3315419852733612,-0.22502751648426056
1772701993144483300,1.2574833984375,0.13998107612133026,0.6438082456588745,-0.24379748106002808
1772701993154532000,1.267531982421875,0.2130395770072937,1.047176480293274,-0.2877148687839508
1772701993164581400,1.277581298828125,0.2904094457626343,1.3178322315216064,-0.3663678765296936
1772701993174630400,1.28763037109375,0.2818969190120697,1.2145894765853882,-0.44653674960136414
1772701993184679200,1.29767919921875,0.050692204385995865,0.5639200806617737,-0.5772223472595215
1772701993194728400,1.307728515625,-0.019394204020500183,-0.21306060254573822,-0.850054144859314
1772701993204777200,1.317777099609375,0.2006758451461792,0.12701813876628876,-1.2093608379364014
1772701993214826200,1.327826171875,0.27234870195388794,0.6517727375030518,-1.4837794303894043
1772701993224876300,1.337876220703125,0.2366943061351776,0.9212806224822998,-1.5534220933914185
1772701993234925300,1.34792529296875,0.2310127168893814,1.7965106964111328,-1.6806721687316895
1772701993244974300,1.357974365234375,0.37229686975479126,2.08368182182312,-1.818976879119873
1772701993255023400,1.3680234375,0.4845970571041107,1.3528525829315186,-1.7200899124145508
1772701993265072400,1.378072265625,0.3769667148590088,0.5510200262069702,-1.5963884592056274
1772701993275121200,1.38812109375,0.29674032330513,0.08327171951532364,-1.4425773620605469
1772701993285170400,1.39817041015625,0.16131006181240082,-0.11189058423042297,-1.2037978172302246
1772701993295219200,1.40821923828125,0.023248597979545593,-0.17973540723323822,-0.8560510277748108
1772701993305268200,1.418268310546875,-0.05493754893541336,-0.24000141024589539,-0.4208095371723175
1772701993315318300,1.428318359375,-0.025902437046170235,-0.33955010771751404,0.03833726793527603
1772701993325367300,1.4383671875,0.022612635046243668,-0.37140709161758423,0.4695081114768982
1772701993335416300,1.448416259765625,-0.0031971249263733625,-0.3532978892326355,0.8477145433425903
1772701993345465000,1.458465087890625,-0.07671421766281128,-0.3389064073562622,1.165947675704956
1772701993355514400,1.468514404296875,-0.19753144681453705,-0.30448827147483826,1.3974522352218628
1772701993365563400,1.4785634765625,-0.3456548750400543,-0.3261200487613678,1.514825701713562
1772701993375612200,1.488612060546875,-0.47107642889022827,-0.2707265615463257,1.5707893371582031
1772701993385661400,1.498661376953125,-0.5061886310577393,-0.10224754363298416,1.5371084213256836
1772701993395711200,1.508711181640625,-0.5222416520118713,-0.007673365995287895,1.3231862783432007
1772701993405760300,1.51876025390625,-0.5969299674034119,0.19152149558067322,1.0096187591552734
1772701993415809300,1.528809326171875,-0.7208460569381714,0.5517204403877258,0.7007168531417847
1772701993425858300,1.5388583984375,-0.8287104964256287,0.8897187113761902,0.4336068332195282
1772701993435907300,1.5489072265625,-0.9342874884605408,1.2288118600845337,0.2509904205799103
1772701993445956400,1.558956298828125,-1.0154420137405396,1.5653349161148071,0.13490135967731476
1772701993456005400,1.56900537109375,-1.0681257247924805,1.7856497764587402,0.041484858840703964
1772701993466054100,1.57905419921875,-1.088914155960083,1.840306043624878,-0.04842479154467583
1772701993476104200,1.589104248046875,-1.0412334203720093,1.819360613822937,-0.09379679709672928
1772701993486153500,1.599153564453125,-0.932407557964325,1.7532659769058228,-0.06434489786624908
1772701993496202200,1.6092021484375,-0.786247730255127,1.6358588933944702,0.0380893275141716
1772701993506251300,1.619251220703125,-0.6038315296173096,1.4474834203720093,0.19906197488307953
1772701993516300300,1.62930029296875,-0.43113940954208374,1.200170874595642,0.3963814377784729
1772701993526349300,1.639349365234375,-0.30929872393608093,1.017419695854187,0.5823467969894409
1772701993536398300,1.6493984375,-0.24265098571777344,0.9729565978050232,0.702343225479126
1772701993546447400,1.659447265625,-0.22279979288578033,1.0458555221557617,0.7306134700775146
1772701993556496400,1.669496337890625,-0.260986864566803,1.1493545770645142,0.6692209243774414
1772701993566546200,1.679546142578125,-0.33809229731559753,1.2666993141174316,0.5458241701126099
1772701993576595200,1.68959521484375,-0.4380420446395874,1.2854796648025513,0.3623185455799103
1772701993586644500,1.69964453125,-0.5636686682701111,1.1336780786514282,0.1508377194404602
1772701993596693200,1.709693359375,-0.6578226089477539,0.8185603618621826,0.04337836802005768
1772701993606742300,1.7197421875,-0.7234615683555603,0.42177653312683105,0.05046636983752251
1772701993616791300,1.729791259765625,-0.7661251425743103,0.1057373508810997,0.17967654764652252
1772701993626840300,1.73984033203125,-0.7628787159919739,-0.1440274864435196,0.3268739879131317
1772701993636889300,1.749889404296875,-0.7379456758499146,-0.2238709181547165,0.44813036918640137
1772701993646939400,1.759939453125,-0.6768043041229248,-0.19332179427146912,0.5012151598930359
1772701993656988400,1.769988525390625,-0.5856168866157532,-0.22912372648715973,0.5315762758255005
1772701993667037200,1.780037109375,-0.4767098128795624,-0.49200063943862915,0.5902116298675537
1772701993677086500,1.79008642578125,-0.3204967975616455,-1.0429868698120117,0.6767257452011108
1772701993687135200,1.80013525390625,-0.15330485999584198,-1.73054039478302,0.725882351398468
1772701993697184300,1.810184326171875,0.008094677701592445,-2.0890114307403564,0.694508969783783
1772701993707233300,1.8202333984375,0.1313321888446808,-2.1653592586517334,0.6246098279953003
1772701993717282300,1.8302822265625,0.21885643899440765,-2.132488250732422,0.6001135110855103
1772701993727332400,1.840332275390625,0.29179564118385315,-1.999080777168274,0.5904648900032043
1772701993737381000,1.850381103515625,0.40511554479599,-1.9155638217926025,0.5892249345779419
1772701993747430400,1.860430419921875,0.5068546533584595,-1.8696389198303223,0.6325383186340332
1772701993757479200,1.870479248046875,0.5917325615882874,-1.7405182123184204,0.7172715663909912
1772701993767528200,1.880528076171875,0.6726154088973999,-1.5780619382858276,0.8693335652351379
1772701993777577500,1.890577392578125,0.7384463548660278,-1.457138180732727,1.0156265497207642
1772701993787626200,1.900626220703125,0.7378929853439331,-1.392441987991333,1.0990979671478271
1772701993797675300,1.91067529296875,0.6307039260864258,-1.3650844097137451,1.1273515224456787
1772701993807725300,1.920725341796875,0.4747430682182312,-1.3860176801681519,1.0950593948364258
1772701993817774300,1.9307744140625,0.2981147766113281,-1.4913991689682007,0.9766885042190552
1772701993827823400,1.9408232421875,0.17294222116470337,-1.4258811473846436,0.7743551135063171
1772701993837872400,1.950872314453125,0.09560854732990265,-1.2920386791229248,0.5665443539619446
1772701993847921400,1.96092138671875,0.06481761485338211,-1.1574089527130127,0.3907794654369354
1772701993857970200,1.97097021484375,0.07073941826820374,-1.004940390586853,0.2046854943037033
1772701993868019500,1.98101953125,0.09362289309501648,-0.80650395154953,-0.008452607318758965
1772701993878068200,1.991068115234375,0.14063088595867157,-0.6205386519432068,-0.2123253047466278
1772701993888117200,2.0011171875,0.20309746265411377,-0.4797940254211426,-0.3798740804195404
1772701993898167300,2.011167236328125,0.27494102716445923,-0.32742393016815186,-0.5240006446838379
1772701993908216300,2.02121630859375,0.3645976781845093,-0.19586405158042908,-0.6461502313613892
1772701993918265300,2.031265380859375,0.4345959424972534,-0.09340771287679672,-0.7286930680274963
1772701993928314000,2.041314208984375,0.4673863649368286,-0.030483074486255646,-0.7572243213653564
1772701993938363400,2.05136328125,0.48244601488113403,0.013258014805614948,-0.7425106167793274
1772701993948412200,2.061412109375,0.49988943338394165,0.042938146740198135,-0.6810534000396729
1772701993958461200,2.071461181640625,0.5426360964775085,0.05994163081049919,-0.5510567426681519
1772701993968510500,2.081510498046875,0.5708839893341064,0.10173248499631882,-0.3502157926559448
1772701993978560300,2.091560302734375,0.5812772512435913,0.2334068864583969,-0.19637563824653625
1772701993988609300,2.101609375,0.5484705567359924,0.38095295429229736,-0.07180920988321304
1772701993998658300,2.111658203125,0.49898797273635864,0.48094531893730164,0.04248327761888504
1772701994008707300,2.121707275390625,0.45184576511383057,0.5318396687507629,0.14149214327335358
1772701994018756400,2.13175634765625,0.40959256887435913,0.5318660140037537,0.1864556223154068
1772701994028805400,2.141805419921875,0.36030811071395874,0.46987056732177734,0.17404583096504211
1772701994038854400,2.1518544921875,0.3089067041873932,0.3651007413864136,0.11912745237350464
1772701994048903200,2.161903076171875,0.2656601667404175,0.27825719118118286,0.042577821761369705
1772701994058953200,2.171953125,0.25301307439804077,0.20784534513950348,-0.04116048663854599
1772701994069002500,2.18200244140625,0.2664005160331726,0.17652976512908936,-0.12115119397640228
1772701994079051300,2.19205126953125,0.2961736023426056,0.1611766368150711,-0.17577102780342102
1772701994089100300,2.202100341796875,0.33464083075523376,0.12044093012809753,-0.18158496916294098
1772701994099149300,2.2121494140625,0.37906181812286377,0.08113612979650497,-0.11986967921257019
1772701994109198300,2.2221982421875,0.4231073260307312,0.022698387503623962,-0.002751844236627221
1772701994119247000,2.2322470703125,0.4486622214317322,-0.22887392342090607,0.22758601605892181
1772701994129296400,2.24229638671875,0.4734133780002594,-0.5969408750534058,0.5186975002288818
1772701994139346400,2.252346435546875,0.5221803784370422,-1.0329538583755493,0.7989616394042969
1772701994149395200,2.262395263671875,0.46529871225357056,-1.1845484972000122,1.1769704818725586
1772701994159444200,2.2724443359375,0.33037126064300537,-1.079451560974121,1.5477538108825684
1772701994169493200,2.2824931640625,0.1797841489315033,-0.8094707131385803,1.7053961753845215
1772701994179542300,2.292542236328125,0.02135455794632435,-0.3027462959289551,1.584617018699646
1772701994189591300,2.30259130859375,-0.13520681858062744,0.4051669239997864,1.3509787321090698
1772701994199640300,2.312640380859375,-0.3495398759841919,1.3104286193847656,0.9516696929931641
1772701994209689300,2.322689453125,-0.6810573935508728,2.2974791526794434,0.2459445297718048
1772701994219739100,2.3327392578125,-1.2476518154144287,2.864171028137207,-0.5555583238601685
1772701994229788400,2.342788330078125,-1.442860722541809,2.6758902072906494,-1.0555939674377441
1772701994239837400,2.35283740234375,-1.5242950916290283,1.8147099018096924,-1.518190622329712
1772701994249886200,2.36288623046875,-0.9258742928504944,1.1079250574111938,-1.8147528171539307
1772701994259935500,2.372935546875,-0.169683575630188,0.09268732368946075,-1.9100148677825928
1772701994269984300,2.382984375,0.23148782551288605,-0.3244830071926117,-1.7442584037780762
1772701994280033300,2.393033203125,0.6774432063102722,-0.3616301119327545,-1.4665958881378174
1772701994290082300,2.403082275390625,1.0307613611221313,-0.31431320309638977,-1.1203809976577759
1772701994300132400,2.41313232421875,1.1652714014053345,-0.19745208323001862,-0.7718101739883423
1772701994310181400,2.423181396484375,1.1616005897521973,-0.14913834631443024,-0.35747265815734863
1772701994320230100,2.433230224609375,1.1255840063095093,-0.15013277530670166,0.07295197248458862
1772701994330279400,2.443279541015625,1.0055558681488037,-0.13254952430725098,0.45750072598457336
1772701994340328200,2.453328125,0.8287733197212219,-0.1782778650522232,0.7701483368873596
1772701994350377200,2.463377197265625,0.642943799495697,-0.31603625416755676,1.0005728006362915
1772701994360426200,2.47342626953125,0.4462067782878876,-0.5215443968772888,1.1514440774917603
1772701994370475300,2.483475341796875,0.2375427782535553,-0.6645758748054504,1.2145553827285767
1772701994380524300,2.493524169921875,0.007201720029115677,-0.6237645149230957,1.1945233345031738
1772701994390574300,2.50357421875,-0.17927227914333344,-0.5149131417274475,1.0715627670288086
1772701994400623400,2.513623291015625,-0.2792782485485077,-0.32273438572883606,0.902363657951355
1772701994410671900,2.523671875,-0.30511170625686646,-0.047743819653987885,0.6887872219085693
1772701994420721200,2.53372119140625,-0.2947394847869873,0.21676959097385406,0.44403016567230225
1772701994430770200,2.543770263671875,-0.25890401005744934,0.37226012349128723,0.1699317842721939
1772701994440819000,2.55381884765625,-0.21512135863304138,0.4582831561565399,-0.08742012828588486
1772701994450868200,2.5638681640625,-0.2320934236049652,0.557105302810669,-0.29757043719291687
1772701994460917000,2.5739169921875,-0.3111453652381897,0.8091152310371399,-0.4311215579509735
1772701994470967000,2.583967041015625,-0.42974817752838135,1.2074474096298218,-0.5142074227333069
1772701994481016000,2.59401611328125,-0.5416467189788818,1.6090366840362549,-0.5909786224365234
1772701994491065000,2.604065185546875,-0.6357833743095398,1.901036024093628,-0.6632815599441528
1772701994501114000,2.614114013671875,-0.692938506603241,2.1539034843444824,-0.7005999088287354
1772701994511163000,2.624162841796875,-0.7343067526817322,2.3540151119232178,-0.7096317410469055
1772701994521212200,2.634212158203125,-0.7960768938064575,2.405424118041992,-0.7165623903274536
1772701994531261000,2.644260986328125,-0.8424814343452454,2.3319053649902344,-0.7074801921844482
1772701994541310000,2.65431005859375,-0.8412560820579529,2.0485000610351562,-0.7258331179618835
1772701994551360300,2.6643603515625,-0.8895280361175537,1.5925698280334473,-0.7921831011772156
1772701994561409000,2.674408935546875,-0.9637263417243958,1.2373251914978027,-0.8743836879730225
1772701994571458000,2.6844580078125,-1.013169288635254,1.0738896131515503,-0.9354297518730164
1772701994581507000,2.694507080078125,-1.0054237842559814,0.9967045187950134,-0.9907755255699158
1772701994591556000,2.70455615234375,-0.9144493341445923,1.059632420539856,-1.046794056892395
1772701994601604900,2.71460498046875,-0.7889705300331116,1.2987083196640015,-1.090350866317749
1772701994611654100,2.724654052734375,-0.666400134563446,1.6696842908859253,-1.1285659074783325
1772701994621703200,2.734703125,-0.530267596244812,1.9972858428955078,-1.1051570177078247
1772701994631753000,2.7447529296875,-0.40483802556991577,2.084484338760376,-0.9824689030647278
1772701994641802000,2.754802001953125,-0.30933892726898193,1.9147390127182007,-0.820764422416687
1772701994651851000,2.76485107421875,-0.2343938648700714,1.6160844564437866,-0.7020614743232727
1772701994661900000,2.774900146484375,-0.17214034497737885,1.194274663925171,-0.6706358790397644
1772701994671949000,2.784948974609375,-0.09121699631214142,0.5701428651809692,-0.6456112265586853
1772701994681998000,2.794998046875,0.05751975253224373,-0.016019713133573532,-0.5384376645088196
1772701994692047000,2.805047119140625,0.2029922604560852,-0.5766681432723999,-0.40160122513771057
1772701994702097000,2.815096923828125,0.29873156547546387,-1.1580952405929565,-0.22720572352409363
1772701994712146000,2.82514599609375,0.41335082054138184,-1.5130767822265625,0.0344005823135376
1772701994722195200,2.8351953125,0.5522759556770325,-1.5889129638671875,0.35339027643203735
1772701994732244000,2.845243896484375,0.6514411568641663,-1.4034494161605835,0.6999937891960144
1772701994742293000,2.85529296875,0.6574721336364746,-1.168219804763794,0.957727313041687
1772701994752342000,2.865342041015625,0.5992860794067383,-1.0897223949432373,1.058390498161316
1772701994762391000,2.87539111328125,0.4653131067752838,-0.9797497987747192,0.9376785159111023
1772701994772440000,2.885440185546875,0.2453508973121643,-0.8388754725456238,0.6369069814682007
1772701994782490000,2.895489990234375,-0.023843280971050262,-0.8391966819763184,0.2615644931793213
1772701994792539100,2.9055390625,-0.2973443269729614,-1.0491772890090942,-0.11269831657409668
1772701994802588000,2.915587890625,-0.4623852074146271,-1.2553534507751465,-0.2964862585067749
1772701994812637200,2.92563720703125,-0.539466142654419,-1.4416189193725586,-0.16197851300239563
1772701994822686000,2.93568603515625,-0.6081352233886719,-1.6363353729248047,0.22911041975021362
1772701994832735000,2.94573486328125,-0.689120888710022,-1.7819188833236694,0.7084029912948608
1772701994842784000,2.955783935546875,-0.7344444394111633,-1.734408974647522,1.0880069732666016
1772701994852833000,2.9658330078125,-0.7466318607330322,-1.525120496749878,1.2817528247833252
1772701994862883000,2.975883056640625,-0.726027250289917,-1.2405105829238892,1.3528709411621094
1772701994872931800,2.985931884765625,-0.6268357038497925,-1.209903359413147,1.3689191341400146
1772701994882981000,2.995981201171875,-0.499223917722702,-1.4774572849273682,1.3435388803482056
1772701994893030000,3.00602978515625,-0.3774048089981079,-1.7794816493988037,1.2788782119750977
1772701994903079000,3.016078857421875,-0.2522764503955841,-1.8607690334320068,1.1645593643188477
1772701994913128200,3.026128173828125,-0.13770699501037598,-1.826621651649475,1.0414615869522095
1772701994923177000,3.036177001953125,-0.0060086240991950035,-1.7629367113113403,0.9559025168418884
1772701994933226000,3.04622607421875,0.12561865150928497,-1.6804343461990356,0.9057874083518982
1772701994943276000,3.056276123046875,0.23124253749847412,-1.5594578981399536,0.8507806062698364
1772701994953325000,3.066324951171875,0.30203601717948914,-1.3739413022994995,0.7770323753356934
1772701994963374000,3.0763740234375,0.32768359780311584,-1.2352393865585327,0.6656765341758728
1772701994973423000,3.086423095703125,0.31751272082328796,-1.1369775533676147,0.5097969174385071
1772701994983472000,3.09647216796875,0.30286478996276855,-1.0147285461425781,0.3081202805042267
1772701994993521000,3.10652099609375,0.3343167304992676,-0.922753632068634,0.08008391410112381
1772701995003570200,3.116570068359375,0.29718586802482605,-0.8264111280441284,-0.153598353266716
1772701995013619000,3.126618896484375,0.27070021629333496,-0.7152332067489624,-0.375602662563324
1772701995023669000,3.1366689453125,0.10505051910877228,-0.6061602234840393,-0.6012866497039795
1772701995033718000,3.146718017578125,-0.09450306743383408,-0.4072180986404419,-0.8224696516990662
1772701995043767000,3.15676708984375,-0.1892721951007843,-0.16366828978061676,-0.9661359786987305
1772701995053816000,3.166816162109375,-0.26428624987602234,-0.054908521473407745,-1.0415254831314087
1772701995063864800,3.17686474609375,-0.2875574827194214,0.1234380453824997,-1.0289140939712524
1772701995073914000,3.1869140625,-0.21358631551265717,0.36944061517715454,-0.9272469282150269
1772701995083963100,3.196963134765625,-0.053404636681079865,0.5329192876815796,-0.7305269241333008
1772701995094012000,3.207011962890625,0.17234593629837036,0.6455739736557007,-0.4881182610988617
1772701995104062200,3.217062255859375,0.40194717049598694,0.7827237844467163,-0.2953735888004303
1772701995114111000,3.227111083984375,0.5383297801017761,0.8356200456619263,-0.17558221518993378
1772701995124160000,3.237159912109375,0.5266520977020264,0.8651068210601807,-0.09615689516067505
1772701995134209300,3.247209228515625,0.4170273244380951,0.8771973252296448,-0.05613544210791588
1772701995144258000,3.257258056640625,0.3168405294418335,0.8654309511184692,-0.03700116276741028
1772701995154307000,3.26730712890625,0.29803675413131714,0.8083604574203491,-0.03154567629098892
1772701995164356000,3.277356201171875,0.35487100481987,0.6612913608551025,-0.0232912078499794
1772701995174406100,3.28740625,0.4175863265991211,0.5217028856277466,-0.02943538688123226
1772701995184455200,3.297455078125,0.448456346988678,0.4337967038154602,-0.06567461788654327
1772701995194504000,3.30750390625,0.420547217130661,0.39480164647102356,-0.1613401621580124
1772701995204553200,3.31755322265625,0.34980061650276184,0.4415736794471741,-0.3696587383747101
1772701995214602000,3.32760205078125,0.2871566712856293,0.5659505128860474,-0.6742050647735596
1772701995224651000,3.337651123046875,0.23891937732696533,0.7403481006622314,-1.0424270629882812
1772701995234700000,3.347699951171875,0.21143367886543274,0.8749722242355347,-1.4058784246444702
1772701995244749000,3.3577490234375,0.21519353985786438,0.8450796008110046,-1.6757413148880005
1772701995254799000,3.367799072265625,0.222862109541893,0.7287759184837341,-1.8402535915374756
1772701995264848000,3.377847900390625,0.24384382367134094,0.8005001544952393,-1.8146246671676636
1772701995274897200,3.387897216796875,0.38122883439064026,1.2384878396987915,-1.5411875247955322
1772701995284946000,3.39794580078125,0.874126136302948,2.218045234680176,-1.0646353960037231
1772701995294995000,3.407994873046875,1.1284124851226807,2.125758409500122,-1.0201566219329834
1772701995305044000,3.4180439453125,0.8412800431251526,0.9049748778343201,-1.640740990638733
1772701995315093000,3.428093017578125,0.3559003174304962,1.200879454612732,-2.1502416133880615
1772701995325142300,3.438142333984375,0.347212016582489,1.3403329849243164,-2.5475869178771973
1772701995335192000,3.448192138671875,0.6224342584609985,0.34495100378990173,-2.573193073272705
1772701995345241000,3.458240966796875,0.6910181045532227,-0.15022198855876923,-2.2561380863189697
1772701995355289900,3.468289794921875,0.6719440221786499,-0.115811288356781,-1.8743308782577515
1772701995365339100,3.478339111328125,0.5838953852653503,-0.07807882130146027,-1.3505123853683472
1772701995375388200,3.48838818359375,0.378252238035202,-0.06920703500509262,-0.6491305828094482
1772701995385437000,3.49843701171875,0.14012914896011353,-0.07721170037984848,0.0864747017621994
1772701995395486200,3.508486328125,0.056957293301820755,-0.0567045584321022,0.6745214462280273
1772701995405535700,3.51853564453125,0.07935287803411484,-0.060456421226263046,1.0143564939498901
1772701995415585500,3.52858544921875,0.01992443948984146,-0.19628961384296417,1.1335548162460327
1772701995425634600,3.538634521484375,-0.0717756524682045,-0.31442025303840637,1.1482919454574585
1772701995435683600,3.54868359375,-0.10210053622722626,-0.44597935676574707,1.0619410276412964
1772701995445732600,3.558732666015625,-0.12323617935180664,-0.6903424859046936,0.9092205166816711
1772701995455781600,3.56878173828125,-0.10534213483333588,-0.8274111151695251,0.7703611254692078
1772701995465830700,3.57883056640625,-0.08987529575824738,-0.8770694732666016,0.653482973575592
1772701995475879700,3.588879638671875,-0.07503536343574524,-0.8573988676071167,0.5763280391693115
1772701995485929500,3.598929443359375,-0.03670954331755638,-0.8066318035125732,0.5249069333076477
1772701995495978500,3.608978515625,0.0065471152774989605,-0.7320816516876221,0.48444363474845886
1772701995506027800,3.61902783203125,0.06844590604305267,-0.5853337645530701,0.44767525792121887
1772701995516076500,3.62907666015625,0.14827841520309448,-0.30299609899520874,0.4223099648952484
1772701995526125600,3.63912548828125,0.24916481971740723,0.06217815354466438,0.3882550597190857
1772701995536174600,3.649174560546875,0.36790797114372253,0.44175317883491516,0.30417799949645996
1772701995546223600,3.6592236328125,0.5001499056816101,0.8733956813812256,0.20874202251434326
1772701995556272400,3.6692724609375,0.617169201374054,1.4263651371002197,0.10598821938037872
1772701995566322700,3.67932275390625,0.7198934555053711,1.8485286235809326,-0.027541080489754677
1772701995576371700,3.689371826171875,0.8260984420776367,1.904239535331726,-0.1910053789615631
1772701995586420500,3.69942041015625,0.8360613584518433,1.703407883644104,-0.355430543422699
1772701995596469800,3.7094697265625,0.665286660194397,1.5626145601272583,-0.47077125310897827
1772701995606518500,3.7195185546875,0.30136942863464355,1.4750005006790161,-0.5796799063682556
1772701995616567600,3.729567626953125,-0.08192043006420135,1.4096425771713257,-0.704584538936615
1772701995626616600,3.739616455078125,-0.25170814990997314,1.3946048021316528,-0.7679347395896912
1772701995636665600,3.74966552734375,-0.24178120493888855,1.32542884349823,-0.8281493782997131
1772701995646715600,3.759715576171875,-0.18198658525943756,1.2614246606826782,-0.8571458458900452
1772701995656764400,3.769764404296875,-0.10762446373701096,1.3046737909317017,-0.844539225101471
1772701995666813700,3.779813720703125,-0.0277437474578619,1.3181339502334595,-0.8219399452209473
1772701995676862500,3.789862548828125,0.059666793793439865,1.259421944618225,-0.7511986494064331
1772701995686911500,3.799911376953125,0.15222229063510895,1.1519343852996826,-0.6222726106643677
1772701995696960800,3.809960693359375,0.21214048564434052,0.9868900179862976,-0.4479583501815796
1772701995707009500,3.820009521484375,0.22634445130825043,0.6827551126480103,-0.2050892412662506
1772701995717059600,3.8300595703125,0.21418499946594238,0.161537766456604,0.10285580903291702
1772701995727108400,3.8401083984375,0.22837644815444946,-0.4549211859703064,0.4204614758491516
1772701995737157600,3.85015771484375,0.22887791693210602,-0.945851743221283,0.6995282769203186
1772701995747206700,3.86020654296875,0.21306008100509644,-1.1634671688079834,0.9232929348945618
1772701995757255700,3.870255615234375,0.20613107085227966,-1.1423310041427612,1.0894808769226074
1772701995767304700,3.8803046875,0.20976094901561737,-0.971258819103241,1.1855828762054443
1772701995777353500,3.890353515625,0.21880237758159637,-0.6898772120475769,1.1617469787597656
1772701995787402800,3.90040283203125,0.20425646007061005,-0.29419752955436707,1.0152251720428467
1772701995797452800,3.910452880859375,0.17965897917747498,0.04820268228650093,0.7869459986686707
1772701995807501600,3.92050146484375,0.09582985937595367,0.1282290816307068,0.608945906162262
1772701995817550600,3.930550537109375,0.05781536176800728,-0.06741046905517578,0.4653583765029907
1772701995827599600,3.940599609375,0.06051447615027428,-0.3473132252693176,0.29109442234039307
1772701995837648600,3.950648681640625,0.1285603791475296,-0.6198206543922424,0.18651315569877625
1772701995847697400,3.960697509765625,0.23476137220859528,-0.9887467622756958,0.2160113900899887
1772701995857746700,3.97074658203125,0.39785388112068176,-1.2470147609710693,0.37750574946403503
1772701995867795500,3.98079541015625,0.5675294995307922,-1.337672233581543,0.6328498721122742
1772701995877845500,3.990845458984375,0.6819884181022644,-1.4531508684158325,0.9020960330963135
1772701995887894500,4.00089453125,0.6445624828338623,-1.406704306602478,1.157071590423584
1772701995897943600,4.010943603515625,0.5330168008804321,-1.1733522415161133,1.2801746129989624
1772701995907992600,4.02099267578125,0.35839784145355225,-0.8898478746414185,1.2193211317062378
1772701995918041300,4.031041259765625,0.051170509308576584,-0.6248492002487183,1.0036559104919434
1772701995928090600,4.041090576171875,-0.2011972963809967,-0.37873318791389465,0.7029056549072266
1772701995938139600,4.0511396484375,-0.29408755898475647,-0.2125585973262787,0.3942602276802063
1772701995948189400,4.061189453125,-0.19606991112232208,-0.32300788164138794,0.24066773056983948
1772701995958238700,4.07123876953125,0.04001452773809433,-0.8085655570030212,0.18496373295783997
1772701995968287500,4.08128759765625,0.30884358286857605,-1.5374476909637451,-0.06751832365989685
1772701995978336500,4.09133642578125,0.48994308710098267,-2.2901501655578613,-0.4571875333786011
1772701995988385800,4.1013857421875,0.4037162959575653,-2.6916236877441406,-0.7243579626083374
1772701995998434600,4.1114345703125,0.12885890901088715,-2.7990150451660156,-0.8191891312599182
1772701996008483600,4.121483642578125,-0.1472613513469696,-2.6597347259521484,-0.7205483317375183
1772701996018532600,4.13153271484375,-0.33796367049217224,-2.434631824493408,-0.4811285436153412
1772701996028582700,4.141582763671875,-0.4519754648208618,-2.1818788051605225,-0.17633402347564697
1772701996038631700,4.151631591796875,-0.4633636474609375,-1.9821958541870117,0.04340153560042381
1772701996048680400,4.161680419921875,-0.40717095136642456,-1.7604948282241821,0.09496459364891052
1772701996058729700,4.171729736328125,-0.35269492864608765,-1.4665074348449707,-0.014036989770829678
1772701996068778500,4.181778564453125,-0.31054002046585083,-1.149229645729065,-0.14923928678035736
1772701996078827500,4.19182763671875,-0.28794658184051514,-0.8840624094009399,-0.18623006343841553
1772701996088876500,4.20187646484375,-0.2831273078918457,-0.6911371946334839,-0.11283014714717865
1772701996098926600,4.211926513671875,-0.28460484743118286,-0.6034017205238342,0.03599581867456436
1772701996108975600,4.2219755859375,-0.2813323438167572,-0.6070505380630493,0.16763214766979218
1772701996119024600,4.232024658203125,-0.3265232443809509,-0.5628923773765564,0.24951103329658508
1772701996129073700,4.24207373046875,-0.31727835536003113,-0.45490387082099915,0.32027468085289
1772701996139122400,4.252122314453125,-0.2496607005596161,-0.4021889865398407,0.32304224371910095
1772701996149171700,4.262171630859375,-0.17057573795318604,-0.3380025327205658,0.2634129822254181
1772701996159220700,4.272220703125,-0.13342677056789398,-0.23865970969200134,0.15677043795585632
1772701996169269500,4.28226953125,-0.13662149012088776,-0.009128783829510212,0.07132211327552795
1772701996179319600,4.292319580078125,-0.150441974401474,0.21285101771354675,0.018636533990502357
1772701996189368600,4.30236865234375,-0.15056420862674713,0.4183807373046875,0.006922620814293623
1772701996199417600,4.31241748046875,-0.14658358693122864,0.616642951965332,-0.0029915287159383297
1772701996209466600,4.322466552734375,-0.12545885145664215,0.8453682661056519,-0.011068363673985004
1772701996219515600,4.332515625,-0.07879547774791718,1.0390565395355225,-0.035346806049346924
1772701996229564700,4.342564697265625,-0.006815827917307615,1.161710500717163,-0.07356157153844833
1772701996239613400,4.352613525390625,0.0725431740283966,1.2313165664672852,-0.10002220422029495
1772701996249663500,4.36266357421875,0.1631614863872528,1.231124758720398,-0.1297239065170288
1772701996259712800,4.372712646484375,0.24938026070594788,1.1710928678512573,-0.1418388932943344
1772701996269761500,4.382761474609375,0.34155601263046265,1.0802963972091675,-0.13604731857776642
1772701996279810600,4.392810546875,0.44605204463005066,1.0248522758483887,-0.10270188003778458
1772701996289859600,4.402859619140625,0.5520849823951721,1.0394728183746338,-0.05722174420952797
1772701996299908600,4.41290869140625,0.664171576499939,1.0956921577453613,-0.019148394465446472
1772701996309957600,4.42295751953125,0.7896035313606262,1.1387628316879272,-0.01672784797847271
1772701996320007700,4.433007568359375,0.9246686697006226,1.0813333988189697,-0.029266275465488434
1772701996330056700,4.443056640625,1.0921962261199951,0.8992086052894592,0.040168192237615585
1772701996340105500,4.45310546875,1.2983744144439697,0.5766380429267883,0.22024528682231903
1772701996350154800,4.46315478515625,1.5517739057540894,0.21366621553897858,0.4938177168369293
1772701996360203500,4.47320361328125,1.750095248222351,-0.11836179345846176,0.7672852277755737
1772701996370252500,4.48325244140625,1.7251273393630981,-0.2759908437728882,0.9033415913581848
1772701996380301600,4.493301513671875,1.4643141031265259,-0.15221057832241058,0.7345799803733826
1772701996390350600,4.5033505859375,1.1414140462875366,0.36445093154907227,0.18999949097633362
1772701996400400600,4.513400634765625,0.9006105065345764,1.3351470232009888,-0.5442720651626587
1772701996410449700,4.52344970703125,0.7455682158470154,2.549497127532959,-1.128007411956787
1772701996420499000,4.5334990234375,0.43580207228660583,3.4275403022766113,-1.5074037313461304
1772701996430548000,4.5435478515625,-0.06900516897439957,3.462289333343506,-1.6798650026321411
1772701996440596700,4.5535966796875,-0.15738029778003693,2.6528520584106445,-1.6320420503616333
1772701996450646000,4.56364599609375,-0.03423972800374031,0.8604097962379456,-1.4234342575073242
1772701996460694800,4.57369482421875,-0.1849866360425949,-0.44924038648605347,-1.2160091400146484
1772701996470743800,4.583743896484375,-0.3966059386730194,-0.8866315484046936,-0.9819122552871704
1772701996480793900,4.5937939453125,-0.5366040468215942,-0.754054605960846,-0.6796030402183533
1772701996490843000,4.6038427734375,-0.6523817777633667,-0.4614211618900299,-0.33334892988204956
1772701996500892000,4.613891845703125,-0.7407614588737488,-0.4026497006416321,0.02744467370212078
1772701996510940700,4.623940673828125,-0.7526013255119324,-0.46113884449005127,0.44197529554367065
1772701996520990000,4.633989990234375,-0.6929417252540588,-0.5462734699249268,0.8538576364517212
1772701996531038700,4.644038818359375,-0.5678152441978455,-0.6943002343177795,1.1842126846313477
1772701996541087700,4.654087646484375,-0.4021996259689331,-0.8337662220001221,1.3623195886611938
1772701996551138000,4.664137939453125,-0.22881506383419037,-0.9283390641212463,1.397079348564148
1772701996561186800,4.674186767578125,0.017580591142177582,-0.9189037680625916,1.3872640132904053
1772701996571235800,4.68423583984375,0.24469523131847382,-0.9711698889732361,1.3217217922210693
1772701996581284900,4.694284912109375,0.3609568476676941,-1.1269296407699585,1.1421715021133423
1772701996591334000,4.704333984375,0.3506365716457367,-1.1181327104568481,0.8804327845573425
1772701996601382700,4.714382568359375,0.28732073307037354,-0.9007740020751953,0.6162347197532654
1772701996611432000,4.724431884765625,0.2325648069381714,-0.4946906864643097,0.36532071232795715
1772701996621482000,4.73448193359375,0.20276616513729095,-0.02281050756573677,0.13866254687309265
1772701996631530800,4.74453076171875,0.18151946365833282,0.4423976540565491,-0.054730623960494995
1772701996641579800,4.754579833984375,0.11259205639362335,0.8997958302497864,-0.2521105408668518
1772701996651628800,4.76462890625,0.10562815517187119,1.4611172676086426,-0.4797373116016388
1772701996661677800,4.774677734375,0.2667451500892639,2.0148282051086426,-0.765190601348877
1772701996671726800,4.784726806640625,0.37037432193756104,2.4118716716766357,-1.078155755996704
1772701996681775900,4.79477587890625,0.2837238609790802,2.6890337467193604,-1.4216307401657104
1772701996691825000,4.804824951171875,-0.08254946768283844,2.8957290649414062,-1.780371069908142
1772701996701874700,4.814874755859375,-0.5545423030853271,3.1556849479675293,-2.051449775695801
1772701996711923700,4.824923828125,-0.8718597888946533,3.117591142654419,-2.2209885120391846
1772701996721973000,4.834972900390625,-0.9718649983406067,2.532716989517212,-2.322545051574707
1772701996732021800,4.845021728515625,-0.9405115842819214,1.7573517560958862,-2.3766517639160156
1772701996742071000,4.855071044921875,-0.8806428909301758,1.2409616708755493,-2.2912094593048096
1772701996752119800,4.865119873046875,-0.7838684320449829,1.033852458000183,-2.0511176586151123
1772701996762168800,4.8751689453125,-0.6174046397209167,1.116339087486267,-1.702223539352417
1772701996772219000,4.885218994140625,-0.439042866230011,1.1126742362976074,-1.286853551864624
1772701996782268000,4.895267822265625,-0.29164090752601624,1.25301194190979,-0.7887068390846252
1772701996792317000,4.90531689453125,-0.2381739467382431,1.2953524589538574,-0.28508472442626953
1772701996802365700,4.91536572265625,-0.2320564091205597,0.9072822332382202,0.13312582671642303
1772701996812415000,4.9254150390625,-0.20528444647789001,0.3464985489845276,0.3904154300689697
1772701996822463700,4.935463623046875,-0.16529256105422974,-0.04683674871921539,0.4698449969291687
1772701996832512800,4.9455126953125,-0.15687189996242523,-0.21041209995746613,0.4321804344654083
1772701996842562800,4.955562744140625,-0.1964414119720459,-0.26201269030570984,0.35548514127731323
1772701996852611800,4.96561181640625,-0.27633997797966003,-0.2989795207977295,0.26642876863479614
1772701996862660900,4.975660888671875,-0.3409607708454132,-0.3922830820083618,0.1717320829629898
1772701996872709600,4.985709716796875,-0.37458717823028564,-0.5076555013656616,0.06347804516553879
1772701996882759000,4.995759033203125,-0.36716362833976746,-0.5808383822441101,-0.05705929175019264
1772701996892807700,5.0058076171875,-0.33297210931777954,-0.5931301712989807,-0.19137422740459442
1772701996902856700,5.015856689453125,-0.29360949993133545,-0.5741069316864014,-0.32747453451156616
1772701996912906000,5.025906005859375,-0.3003332018852234,-0.5381433367729187,-0.44044262170791626
1772701996922955800,5.035955810546875,-0.3530246317386627,-0.552753746509552,-0.4863502085208893
1772701996933004800,5.0460048828125,-0.41625261306762695,-0.6518161296844482,-0.46378496289253235
1772701996943053800,5.0560537109375,-0.46936774253845215,-0.7600848078727722,-0.3855021595954895
1772701996953102800,5.066102783203125,-0.5045840740203857,-0.8036853075027466,-0.28364503383636475
1772701996963152000,5.07615185546875,-0.5430435538291931,-0.7234516739845276,-0.19088180363178253
1772701996973201000,5.086200927734375,-0.595493495464325,-0.38214337825775146,-0.15800108015537262
1772701996983250000,5.09625,-0.6250633597373962,0.22623606026172638,-0.13164670765399933
1772701996993299700,5.1062998046875,-0.5422382354736328,0.9594647884368896,0.016378173604607582
1772701997003348700,5.1163486328125,-0.3824043571949005,1.7391842603683472,0.3395056426525116
1772701997013398000,5.12639794921875,-0.35133326053619385,2.481262683868408,0.9596059322357178
1772701997023446800,5.13644677734375,-0.4527648091316223,2.475611448287964,1.895729899406433
1772701997033495800,5.146495849609375,0.059904877096414566,1.464619755744934,2.9273757934570312
1772701997043544800,5.156544921875,0.25796231627464294,-0.06971676647663116,3.609586477279663
1772701997053593900,5.16659375,0.22315585613250732,-1.1288812160491943,3.5095858573913574
1772701997063644000,5.176643798828125,0.20527619123458862,-1.892673373222351,2.6678221225738525
1772701997073692700,5.186692626953125,-0.12083800137042999,-1.926227331161499,1.6244350671768188
1772701997083742000,5.196741943359375,-0.41198381781578064,-2.3276724815368652,0.8654895424842834
1772701997093790700,5.206790771484375,-0.46533626317977905,-2.666705846786499,0.4162241220474243
1772701997103840000,5.216840087890625,-0.4145977199077606,-2.596061944961548,0.11318008601665497
1772701997113888800,5.226888671875,-0.43644389510154724,-2.230534553527832,-0.11366211622953415
1772701997123937800,5.236937744140625,-0.4935380816459656,-1.9058574438095093,-0.3358222246170044
1772701997133987800,5.24698779296875,-0.5219933986663818,-1.6896904706954956,-0.5919631719589233
1772701997144036900,5.257036865234375,-0.508223295211792,-1.4581811428070068,-0.8394880294799805
1772701997154086000,5.2670859375,-0.4900464117527008,-1.183907151222229,-1.0607106685638428
1772701997164134700,5.277134765625,-0.44650799036026,-0.927471935749054,-1.2022545337677002
1772701997174184000,5.287183837890625,-0.3729325532913208,-0.7665690779685974,-1.2256940603256226
1772701997184233000,5.29723291015625,-0.2930377423763275,-0.683225691318512,-1.0777709484100342
1772701997194281700,5.30728173828125,-0.2203073352575302,-0.7141671180725098,-0.8228078484535217
1772701997204331000,5.3173310546875,-0.18188084661960602,-0.7688814997673035,-0.5325533747673035
1772701997214379800,5.3273798828125,-0.1785268634557724,-0.8393340706825256,-0.2834516763687134
1772701997224428800,5.3374287109375,-0.18543989956378937,-0.8331171870231628,-0.051247209310531616
1772701997234477800,5.347477783203125,-0.21615493297576904,-0.7535760402679443,0.16109035909175873
1772701997244527900,5.35752783203125,-0.2265724241733551,-0.6520107984542847,0.35919252038002014
1772701997254577000,5.367576904296875,-0.17888213694095612,-0.5472284555435181,0.524296224117279
1772701997264625700,5.377625732421875,-0.06835908442735672,-0.4722335934638977,0.6397219300270081
1772701997274675000,5.387675048828125,0.03430071473121643,-0.4358111321926117,0.7096242904663086
1772701997284723700,5.3977236328125,0.12197490781545639,-0.399364173412323,0.7315464019775391
1772701997294772700,5.407772705078125,0.1393405795097351,-0.37514644861221313,0.7103881239891052
1772701997304821800,5.41782177734375,0.12463753670454025,-0.28132861852645874,0.6607726216316223
1772701997314871800,5.427871826171875,0.10396421700716019,-0.1130479946732521,0.5925719738006592
1772701997324920800,5.4379208984375,0.08660785853862762,0.07011197507381439,0.535426676273346
1772701997334969900,5.447969970703125,0.09012749791145325,0.14659610390663147,0.5051023364067078
1772701997345019000,5.458018798828125,0.08901722729206085,0.15765726566314697,0.4994417726993561
1772701997355067600,5.468067626953125,0.06937721371650696,0.1663639396429062,0.49015799164772034
1772701997365117000,5.478116943359375,0.05330663174390793,0.1461590677499771,0.4328736662864685
1772701997375166000,5.488166015625,0.035406459122896194,0.14765070378780365,0.3429291248321533
1772701997385215700,5.4982158203125,0.0033483924344182014,0.21660074591636658,0.2693246901035309
1772701997395264800,5.5082646484375,-0.004295945167541504,0.30696871876716614,0.21297378838062286
1772701997405313800,5.518313720703125,0.03374677896499634,0.3176373541355133,0.1869800090789795
1772701997415362600,5.528362548828125,0.0906529352068901,0.17132674157619476,0.2514127790927887
1772701997425411600,5.53841162109375,0.15558746457099915,-0.11485814303159714,0.3776639401912689
1772701997435460600,5.548460693359375,0.23672784864902496,-0.3595685660839081,0.4956560730934143
1772701997445509600,5.558509521484375,0.35162249207496643,-0.414456307888031,0.59415602684021
1772701997455559700,5.5685595703125,0.5113248229026794,-0.24327470362186432,0.6721640229225159
1772701997465608700,5.578608642578125,0.817773163318634,0.2958761155605316,0.8126707673072815
1772701997475657700,5.58865771484375,1.493308186531067,1.8369134664535522,1.4769864082336426
1772701997485706500,5.59870654296875,2.029756784439087,2.439549446105957,1.760948896408081
1772701997495755800,5.608755859375,1.6116050481796265,1.371745228767395,0.9986749887466431
1772701997505804800,5.6188046875,0.7506995797157288,1.821988821029663,0.5507262349128723
1772701997515853600,5.628853515625,0.2811344563961029,2.184051275253296,0.03816363215446472
1772701997525903600,5.638903564453125,0.48551928997039795,1.0077273845672607,-0.29717788100242615
1772701997535952600,5.64895263671875,0.6480647921562195,-0.7698226571083069,-0.653619647026062
1772701997546001700,5.659001708984375,0.7313247919082642,-1.8942888975143433,-1.0231558084487915
1772701997556050700,5.66905078125,0.8576973676681519,-1.8694533109664917,-1.2372045516967773
1772701997566099700,5.679099609375,1.0291836261749268,-1.271178126335144,-1.294191837310791
1772701997576148700,5.689148681640625,1.1808682680130005,-0.6944485306739807,-1.1930980682373047
1772701997586197500,5.699197509765625,1.1343101263046265,-0.3083306550979614,-0.9380226135253906
1772701997596246800,5.709246826171875,0.972294270992279,-0.2620481252670288,-0.5690791606903076
1772701997606296800,5.719296875,0.7804060578346252,-0.5489469766616821,-0.16852429509162903
1772701997616345600,5.729345703125,0.5492780208587646,-1.0209680795669556,0.22238726913928986
1772701997626394600,5.73939453125,0.29521727561950684,-1.4710454940795898,0.5941240787506104
1772701997636443600,5.749443603515625,0.03099546581506729,-1.6860206127166748,0.8615531325340271
1772701997646492700,5.75949267578125,-0.24217109382152557,-1.57966947555542,0.9860982298851013
1772701997656541700,5.769541748046875,-0.4287351071834564,-1.2056114673614502,0.9677618145942688
1772701997666591700,5.779591796875,-0.4413355886936188,-0.7442659139633179,0.8367015719413757
1772701997676640800,5.789640869140625,-0.3912050426006317,-0.35053643584251404,0.5541720986366272
1772701997686689500,5.799689453125,-0.39065083861351013,0.005560946650803089,0.26585590839385986
1772701997696738800,5.80973876953125,-0.436801552772522,0.33574312925338745,0.06300053745508194
1772701997706787600,5.81978759765625,-0.4644169509410858,0.5214881896972656,0.004025368019938469
1772701997716836600,5.829836669921875,-0.44152069091796875,0.574498176574707,0.04631822928786278
1772701997726885600,5.8398857421875,-0.39788317680358887,0.5319973230361938,0.0782652422785759
1772701997736934700,5.8499345703125,-0.3502597510814667,0.4624115824699402,0.01660587452352047
1772701997746984700,5.859984619140625,-0.341683030128479,0.40838536620140076,-0.1145569384098053
1772701997757033500,5.870033447265625,-0.376644492149353,0.3442303538322449,-0.25412416458129883
1772701997767082800,5.880082763671875,-0.43016231060028076,0.25238803029060364,-0.3397868573665619
1772701997777131500,5.890131591796875,-0.47520381212234497,0.20786291360855103,-0.3632775545120239
1772701997787180500,5.9001806640625,-0.5304140448570251,0.2796095311641693,-0.41648563742637634
1772701997797229800,5.910229736328125,-0.5726571083068848,0.5048391819000244,-0.5397942662239075
1772701997807279600,5.920279541015625,-0.5739381313323975,0.764290452003479,-0.6540627479553223
1772701997817328600,5.93032861328125,-0.495937317609787,0.8249332904815674,-0.7087454795837402
1772701997827377700,5.940377685546875,-0.3390851318836212,0.5785546898841858,-0.6773902177810669
1772701997837426700,5.9504267578125,-0.1592349261045456,0.06282103806734085,-0.5530086159706116
1772701997847475700,5.960475830078125,-0.028354143723845482,-0.42257869243621826,-0.3591965138912201
1772701997857524700,5.970524658203125,0.07064221054315567,-0.7987448573112488,-0.1640922725200653
1772701997867573800,5.98057373046875,0.1499551385641098,-0.9969945549964905,-0.002743588527664542
1772701997877622500,5.99062255859375,0.20812258124351501,-0.9912520051002502,0.09327401965856552
1772701997887672600,6.000672607421875,0.2609173357486725,-0.9239587187767029,0.1443217545747757
1772701997897721900,6.010721923828125,0.3065713942050934,-0.8412257432937622,0.19389277696609497
1772701997907770600,6.0207705078125,0.3446689546108246,-0.7866045832633972,0.25494974851608276
1772701997917819600,6.030819580078125,0.3645840883255005,-0.764363169670105,0.28494465351104736
1772701997927868700,6.04086865234375,0.36210307478904724,-0.6770018935203552,0.2542535960674286
1772701997937917700,6.050917724609375,0.34991273283958435,-0.559785008430481,0.19642597436904907
1772701997947966500,6.060966552734375,0.28859105706214905,-0.47320857644081116,0.12832601368427277
1772701997958016500,6.0710166015625,0.19524352252483368,-0.4184851348400116,0.05312926322221756
1772701997968065800,6.081065673828125,0.12097648531198502,-0.4276679754257202,-0.0016982977977022529
1772701997978114600,6.091114501953125,0.075006864964962,-0.474044531583786,-0.03214595094323158
1772701997988163600,6.10116357421875,0.024764735251665115,-0.5497307777404785,-0.0309296865016222
1772701997998212600,6.111212646484375,-0.045459095388650894,-0.6649665236473083,0.02244165912270546
1772701998008261600,6.12126171875,-0.11138777434825897,-0.7350228428840637,0.09718460589647293
1772701998018311700,6.131311767578125,-0.1495886892080307,-0.7257660031318665,0.17248894274234772
1772701998028360700,6.141360595703125,-0.17306286096572876,-0.690318763256073,0.22471220791339874
1772701998038409700,6.15140966796875,-0.19826914370059967,-0.6735773682594299,0.2379201501607895
1772701998048458500,6.16145849609375,-0.23316720128059387,-0.6641758680343628,0.2102709412574768
1772701998058507800,6.1715078125,-0.2841923236846924,-0.6618043184280396,0.13703322410583496
1772701998068556800,6.181556884765625,-0.30257824063301086,-0.7000763416290283,0.05091085284948349
1772701998078605600,6.19160546875,-0.31312835216522217,-0.719533383846283,-0.05056384205818176
1772701998088655600,6.201655517578125,-0.30806034803390503,-0.7223025560379028,-0.15973374247550964
1772701998098704600,6.21170458984375,-0.2982439398765564,-0.6947675943374634,-0.24731898307800293
1772701998108753700,6.221753662109375,-0.2801640033721924,-0.6547836661338806,-0.2966463267803192
1772701998118802700,6.231802734375,-0.24328508973121643,-0.5919930338859558,-0.31216961145401
1772701998128851700,6.241851806640625,-0.18856245279312134,-0.5013967752456665,-0.30639001727104187
1772701998138900700,6.251900634765625,-0.11724619567394257,-0.4051229953765869,-0.29418662190437317
1772701998148949500,6.261949462890625,-0.07263798266649246,-0.2936452031135559,-0.2838234603404999
1772701998158999800,6.271999755859375,-0.03861184045672417,-0.1918967366218567,-0.2635384202003479
1772701998169048800,6.282048828125,-0.016443155705928802,-0.1083134263753891,-0.23675954341888428
1772701998179097600,6.29209765625,0.010960505343973637,-0.08462274074554443,-0.1933622658252716
1772701998189147000,6.30214697265625,0.018854115158319473,-0.04206063598394394,-0.13219425082206726
1772701998199195600,6.312195556640625,0.0012993563432246447,0.00523683987557888,-0.06685386598110199
1772701998209244700,6.32224462890625,-0.011798868887126446,0.05277905985713005,-0.004526042379438877
1772701998219293700,6.332293701171875,-0.026163693517446518,0.0983143225312233,0.058037202805280685
1772701998229343700,6.34234375,-0.03862116113305092,0.12364470958709717,0.11807497590780258
1772701998239392800,6.352392822265625,-0.06764908134937286,0.15580317378044128,0.15968473255634308
1772701998249441500,6.362441650390625,-0.10774430632591248,0.18183185160160065,0.17708688974380493
1772701998259490800,6.37249072265625,-0.1374710500240326,0.18434667587280273,0.18509262800216675
1772701998269539600,6.38253955078125,-0.1619068831205368,0.16213777661323547,0.18283586204051971
1772701998279588600,6.392588623046875,-0.16681961715221405,0.11596442013978958,0.17838092148303986
1772701998289637600,6.4026376953125,-0.1622522920370102,0.08627070486545563,0.16083335876464844
1772701998299687700,6.412687744140625,-0.15799815952777863,0.07209470123052597,0.1258213073015213
1772701998309736700,6.42273681640625,-0.15645591914653778,0.06383144110441208,0.08986597508192062
1772701998319785500,6.432785400390625,-0.14575959742069244,0.061095576733350754,0.05446324124932289
1772701998329834800,6.442834716796875,-0.12935052812099457,0.050040531903505325,0.033060748130083084
1772701998339883500,6.452883544921875,-0.1109616681933403,0.045826345682144165,0.01637284830212593
1772701998349932500,6.4629326171875,-0.10042887181043625,0.04956755414605141,-0.012435364536941051
1772701998359981800,6.47298193359375,-0.08911629021167755,0.0662919357419014,-0.040473923087120056
1772701998370031600,6.483031494140625,-0.07990308851003647,0.08403658121824265,-0.06048358231782913
1772701998380080600,6.49308056640625,-0.06280452758073807,0.1094476655125618,-0.0730755403637886
1772701998390129700,6.503129638671875,-0.046367231756448746,0.1195564940571785,-0.08065223693847656
1772701998400178700,6.5131787109375,-0.03869333490729332,0.12569081783294678,-0.08195239305496216
1772701998410227700,6.523227783203125,-0.027393274009227753,0.1292828917503357,-0.07854993641376495
1772701998420276000,6.53327587890625,-0.026066754013299942,0.14195100963115692,-0.06496435403823853
1772701998430326000,6.543325927734375,-0.024888304993510246,0.14943982660770416,-0.04096660763025284
1772701998440375000,6.553375,-0.01570838876068592,0.15843437612056732,-0.007151918951421976
1772701998450424000,6.563424072265625,-0.012748286128044128,0.1522206962108612,0.021994514390826225
1772701998460473000,6.57347314453125,-0.008511463180184364,0.1589004397392273,0.05843614414334297
1772701998470521900,6.58352197265625,-0.006676012184470892,0.16657540202140808,0.09951859712600708
1772701998480571100,6.593571044921875,-0.0006657902849838138,0.16621720790863037,0.14951492846012115
1772701998490620200,6.6036201171875,0.01233656145632267,0.16825824975967407,0.20634491741657257
1772701998500670000,6.613669921875,0.03476863354444504,0.16092443466186523,0.2639293968677521
1772701998510719000,6.623718994140625,0.053099703043699265,0.1440003216266632,0.3209492564201355
1772701998520768000,6.63376806640625,0.06988933682441711,0.13657355308532715,0.35862740874290466
1772701998530817000,6.643817138671875,0.07008587568998337,0.14077149331569672,0.38061150908470154
1772701998540866000,6.653865966796875,0.06263754516839981,0.13705718517303467,0.38396552205085754
1772701998550915000,6.6639150390625,0.0441107340157032,0.11981135606765747,0.36648133397102356
1772701998560964000,6.673964111328125,0.03459952399134636,0.10387872904539108,0.3310069441795349
1772701998571014000,6.684013916015625,0.03629995137453079,0.09168864041566849,0.2750992178916931
1772701998581063000,6.69406298828125,0.04633181169629097,0.09056079387664795,0.21652324497699738
1772701998591112200,6.7041123046875,0.06691751629114151,0.10619887709617615,0.16421078145503998
1772701998601161000,6.714160888671875,0.09567086398601532,0.09809167683124542,0.11590156704187393
1772701998611210000,6.7242099609375,0.11935701966285706,0.06397738307714462,0.06835402548313141
1772701998621259000,6.734259033203125,0.1311100870370865,0.030431674793362617,0.0158881526440382
1772701998631308000,6.74430810546875,0.1513865888118744,0.021645907312631607,-0.036620061844587326
1772701998641358000,6.754358154296875,0.18300524353981018,0.016387496143579483,-0.08822014182806015
1772701998651407000,6.764406982421875,0.21036416292190552,0.008831574581563473,-0.1301598697900772
1772701998661456100,6.7744560546875,0.2227659672498703,-0.020120181143283844,-0.16993631422519684
1772701998671505000,6.7845048828125,0.22611142694950104,-0.04812997952103615,-0.18880480527877808
1772701998681554200,6.79455419921875,0.22574470937252045,-0.07329259067773819,-0.20547938346862793
1772701998691603000,6.80460302734375,0.22670051455497742,-0.07923489809036255,-0.20508231222629547
1772701998701652000,6.81465185546875,0.2228700965642929,-0.045038048177957535,-0.18537145853042603
1772701998711702000,6.824701904296875,0.2246360331773758,-0.03209295496344566,-0.14782966673374176
1772701998721751000,6.8347509765625,0.22245091199874878,-0.042759448289871216,-0.11072571575641632
1772701998731800000,6.844800048828125,0.22153984010219574,-0.06077013909816742,-0.08467520773410797
1772701998741848800,6.854848876953125,0.22447651624679565,-0.06233900785446167,-0.07317327708005905
1772701998751898000,6.864898193359375,0.22480382025241852,-0.058521632105112076,-0.06701552122831345
1772701998761947100,6.874947021484375,0.22972187399864197,-0.05097370222210884,-0.06743017584085464
1772701998771997000,6.884996826171875,0.2417721450328827,-0.03353159502148628,-0.06439203768968582
1772701998782046000,6.8950458984375,0.2462334781885147,-0.014605041593313217,-0.06890503317117691
1772701998792095000,6.905094970703125,0.24842073023319244,-0.005399292800575495,-0.07559888809919357
1772701998802144000,6.91514404296875,0.2420315444469452,-0.00944782979786396,-0.07726762443780899
1772701998812193300,6.925193359375,0.23781202733516693,-0.02107119746506214,-0.08185092359781265
1772701998822242000,6.935241943359375,0.22527094185352325,-0.006652043666690588,-0.07805139571428299
1772701998832291000,6.945291015625,0.21867401897907257,0.018684737384319305,-0.052147090435028076
1772701998842340900,6.9553408203125,0.2539140284061432,0.016862336546182632,0.21425743401050568
1772701998852390100,6.96539013671875,0.29450300335884094,-0.34496405720710754,0.14521072804927826
1772701998862439200,6.975439208984375,0.21625827252864838,-0.23234190046787262,0.0504077784717083
1772701998872488000,6.985488037109375,0.15561409294605255,-0.10406754910945892,-0.1274394541978836
1772701998882537200,6.995537109375,0.16922923922538757,-0.03145992010831833,-0.20389427244663239
1772701998892586000,7.0055859375,0.16189728677272797,-0.051540423184633255,-0.20505061745643616
1772701998902635000,7.015635009765625,0.1258854866027832,-0.03693804517388344,-0.14877669513225555
1772701998912685000,7.02568505859375,0.11454015970230103,-0.06382425129413605,-0.055688563734292984
1772701998922734000,7.035734130859375,0.10273516923189163,-0.06827306002378464,0.02647661417722702
1772701998932783000,7.045783203125,0.09317761659622192,-0.026206037029623985,0.07443854957818985
