time,seconds_elapsed,z,y,x
1772702164000531700,0.05953173828125,0.0010426276130601764,0.010524812154471874,-0.0005036037764512002
1772702164010580700,0.069580810546875,-0.0019736685790121555,0.007437676191329956,-0.0041068606078624725
1772702164020630500,0.079630615234375,-0.001389371114782989,0.010398845188319683,0.0006058691651560366
1772702164030679800,0.0896796875,-0.0019241338595747948,0.0067870658822357655,-0.0007723167072981596
1772702164040729900,0.099729736328125,-0.0022471752017736435,0.00914556160569191,0.0004295678809285164
1772702164050778600,0.109778564453125,-0.0007693872321397066,0.00637933611869812,-0.0007424892974086106
1772702164060828700,0.11982861328125,-0.0036189695820212364,0.00800253264605999,-0.0041010016575455666
1772702164070877700,0.129877685546875,0.0006559365428984165,0.007506652269512415,0.0009741843095980585
1772702164080927500,0.139927490234375,-0.0015683355741202831,0.009815879166126251,0.0024881914723664522
1772702164090976800,0.149976806640625,-0.0026873957831412554,0.007648066151887178,-0.0018855180824175477
1772702164101026800,0.16002685546875,-0.0009435579413548112,0.008712797425687313,0.0001400822657160461
1772702164111075600,0.17007568359375,-0.0013646037550643086,0.008442220278084278,-0.000618918624240905
1772702164121125600,0.180125732421875,0.001463673310354352,0.006994526367634535,0.0002836266648955643
1772702164131175000,0.1901748046875,-0.0020937772933393717,0.006000102031975985,0.00038695731200277805
1772702164141224700,0.200224609375,-0.00035952674807049334,0.006470948923379183,0.00005752427750849165
1772702164151273700,0.210273681640625,-0.0015017564874142408,0.008942095562815666,-0.0026695525739341974
1772702164161323800,0.22032373046875,-0.0009651295840740204,0.00680171325802803,-0.0006114617572166026
1772702164171372500,0.23037255859375,-0.00021012341312598437,0.0070587084628641605,-0.00019441076437942684
1772702164181422600,0.240422607421875,0.00006178533658385277,0.00720438314601779,-0.0005174521938897669
1772702164191471900,0.250471923828125,-0.0011608719360083342,0.0059806606732308865,-0.001172323478385806
1772702164201521700,0.260521728515625,0.002516687149181962,0.008417719043791294,-0.00021012341312598437
1772702164211570700,0.27057080078125,-0.00023196132679004222,0.005917810369282961,-0.0036043222062289715
1772702164221620700,0.280620849609375,-0.0005488775204867125,0.005194761790335178,-0.0023907197173684835
1772702164231669800,0.290669677734375,-0.0013515542959794402,0.01022973470389843,0.0004266384057700634
1772702164241719800,0.3007197265625,-0.0007009439868852496,0.0075633772648870945,-0.0006820355774834752
1772702164251768800,0.310768798828125,-0.002829608740285039,0.0068387314677238464,0.0007094661123119295
1772702164261818600,0.320818603515625,0.00032916670897975564,0.007954329252243042,-0.0006918892613612115
1772702164271867600,0.33086767578125,-0.0014405038673430681,0.006896521896123886,0.0023912524338811636
1772702164281917700,0.340917724609375,-0.00007190534961409867,0.007604922633618116,0.0009672601008787751
1772702164291966700,0.350966796875,0.001800030586309731,0.00839854497462511,-0.00015579492901451886
1772702164302016800,0.361016845703125,-0.0009534116834402084,0.008156197145581245,0.00012250541476532817
1772702164312065500,0.3710654296875,0.0007816377910785377,0.0072837453335523605,0.0002460760879330337
1772702164322115600,0.381115478515625,-0.00021118867152836174,0.0064776064828038216,0.001582716591656208
1772702164332164900,0.391164794921875,-0.0015765913994982839,0.006893858779221773,-0.0008878979133442044
1772702164342215000,0.40121484375,0.0017933726776391268,0.008401473984122276,-0.002514024032279849
1772702164352263700,0.411263671875,-0.0015656723408028483,0.007893609814345837,-0.00006285060226218775
1772702164362313700,0.421313720703125,0.0011531487107276917,0.0054967645555734634,-0.0022916500456631184
1772702164372362500,0.431362548828125,0.0015723302494734526,0.008327438496053219,0.00047164582065306604
1772702164382412800,0.441412841796875,-0.004278368316590786,0.007237672805786133,-0.0015214639715850353
1772702164392461800,0.4514619140625,-0.0007142598042264581,0.010097641497850418,-0.0014181332662701607
1772702164402511600,0.46151171875,-0.00034434671397320926,0.004805407952517271,0.0016327840276062489
1772702164412560600,0.471560546875,-0.0027891285717487335,0.008552742190659046,0.0021760689560323954
1772702164422610700,0.481610595703125,-0.0017251957906410098,0.005380650516599417,-0.0010010822443291545
1772702164432659700,0.49165966796875,-0.0032735576387494802,0.00887871254235506,-0.0028911277186125517
1772702164442709800,0.501709716796875,-0.0019086875254288316,0.007900533266365528,0.0009928264189511538
1772702164452758800,0.5117587890625,-0.0003603257064241916,0.007458715233951807,-0.000395745737478137
1772702164462808600,0.52180859375,-0.0022186795249581337,0.00649784691631794,-0.0011084076249971986
1772702164472857600,0.531857666015625,-0.0019462381023913622,0.008071241900324821,-0.00008255799184553325
1772702164482907600,0.54190771484375,0.0002596582053229213,0.007053914945572615,-0.00044847631943412125
1772702164492956700,0.551956787109375,0.000818123109638691,0.007422496099025011,0.0004215783847030252
1772702164503006700,0.5620068359375,-0.001547030289657414,0.008221711032092571,-0.0008162588928826153
1772702164513055700,0.5720556640625,-0.0026082999538630247,0.0063063655979931355,-0.002621349412947893
1772702164523105500,0.58210546875,-0.0007936219917610288,0.009814547374844551,0.0016077503096312284
1772702164533154800,0.59215478515625,-0.002439455594867468,0.008141815662384033,0.00043063313933089375
1772702164543204900,0.602204833984375,0.0016077503096312284,0.005077849142253399,0.0011733887949958444
1772702164553253600,0.612253662109375,0.0012897689593955874,0.0079708406701684,0.0008990831556729972
1772702164563304400,0.622304443359375,0.0003225088003091514,0.007282414007931948,0.00038828887045383453
1772702164573353500,0.632353515625,0.0015608787070959806,0.007681355345994234,0.000075101139373146
1772702164583403300,0.6424033203125,-0.0008074704091995955,0.008857407607138157,0.00031638352083973587
1772702164593452500,0.65245263671875,-0.0014950985787436366,0.007889081723988056,-0.0002825613773893565
1772702164603502600,0.662502685546875,-0.0016737966798245907,0.0075945365242660046,0.0009922938188537955
1772702164613551400,0.67255126953125,-0.0027534421533346176,0.00830639898777008,-0.001865544356405735
1772702164623601400,0.682601318359375,-0.0013590110465884209,0.00729466462507844,-0.0006503439508378506
1772702164633650400,0.692650390625,0.002124137245118618,0.006901049055159092,0.0016684704460203648
1772702164643700500,0.702700439453125,-0.0037265613209456205,0.007987619377672672,0.0026546388398855925
1772702164653749500,0.71274951171875,-0.0023672839161008596,0.006357231643050909,0.0000250337143370416
1772702164663799600,0.722799560546875,0.00018429075134918094,0.0037910097744315863,0.00088976213010028
1772702164673848300,0.732848388671875,-0.0021544971968978643,0.004808337427675724,-0.001567802974022925
1772702164683898400,0.7428984375,-0.0006032059900462627,0.006690925918519497,-0.0006138586322776973
1772702164693947600,0.75294775390625,0.0023616913240402937,0.0038088529836386442,0.0002796319022309035
1772702164703997400,0.76299755859375,-0.003870105603709817,0.007444600574672222,0.0005518069956451654
1772702164714046500,0.77304638671875,-0.001279382617212832,0.0068331388756632805,-0.00040852889651432633
1772702164724096500,0.783096435546875,0.0001483380765421316,0.008898153901100159,-0.0025939189363271
1772702164734145300,0.793145263671875,-0.0009390306076966226,0.0070091737434268,-0.00019121496006846428
1772702164744195600,0.803195556640625,-0.0012990899849683046,0.008873919025063515,-0.0002868224401026964
1772702164754244600,0.81324462890625,-0.0004037352045997977,0.005989449098706245,0.0015078817959874868
1772702164764294400,0.82329443359375,-0.00019574233738239855,0.00848616287112236,-0.0026471822056919336
1772702164774343400,0.833343505859375,0.0011084076249971986,0.006601443514227867,-0.0013920343481004238
1772702164784393500,0.8433935546875,0.000577107013668865,0.007060306146740913,0.00045060686534270644
1772702164794442500,0.8534423828125,0.0005227785441093147,0.006049636751413345,-0.0005062668933533132
1772702164804492500,0.863492431640625,0.0005992112564854324,0.008837699890136719,0.00038509309524670243
1772702164814541600,0.87354150390625,0.000675111310556531,0.004728975240141153,-0.000609863898716867
1772702164824591400,0.88359130859375,-0.0010780475568026304,0.0070914654061198235,-0.000055926382628967986
1772702164834640400,0.893640380859375,-0.001612011343240738,0.007158044259995222,-0.001969673903658986
1772702164844690700,0.903690673828125,-0.0020034960471093655,0.006840595509856939,-0.0009797769598662853
1772702164854739500,0.913739501953125,-0.00027750138542614877,0.006710633169859648,-0.00007004113285802305
1772702164864789500,0.92378955078125,-0.00041278995922766626,0.009269664995372295,-0.0006223807577043772
1772702164874838300,0.93383837890625,-0.0015755260828882456,0.008389223366975784,0.0004569984448608011
1772702164884888300,0.943888427734375,0.0014892396284267306,0.007534082513302565,-0.0028791434597223997
1772702164894937600,0.9539375,-0.0005400890368036926,0.009007343091070652,-0.00045034053619019687
1772702164904987600,0.963987548828125,-0.0008620652370154858,0.009678459726274014,-0.0015547533985227346
1772702164915036400,0.974036376953125,-0.00017204020696226507,0.006464557256549597,0.0013552826130762696
1772702164925086500,0.98408642578125,0.0012668657582253218,0.007437942549586296,0.0000655137628200464
1772702164935135500,0.994135498046875,-0.0035574506036937237,0.007921306416392326,-0.003441869281232357
1772702164945185500,1.004185546875,-0.0019329222850501537,0.008609733544290066,-0.00029587719473056495
1772702164955234600,1.014234619140625,-0.0012069445801898837,0.008718922734260559,0.00020532972121145576
1772702164965284400,1.024284423828125,-0.0025566346012055874,0.010901915840804577,-0.0006841660942882299
1772702164975333400,1.03433349609375,0.0004271710349712521,0.007422229740768671,-0.000824248360004276
1772702164985383400,1.044383544921875,0.00020266656065359712,0.006880809087306261,0.002299106912687421
1772702164995432400,1.054432373046875,-0.003204049076884985,0.005973204039037228,-0.00030652983696199954
1772702165005482500,1.064482421875,-0.0024644893128424883,0.008914398960769176,0.0022240057587623596
1772702165015531500,1.074531494140625,-0.0008069378091022372,0.00717482203617692,-0.00015579492901451886
1772702165025581300,1.084581298828125,0.0012290488230064511,0.00720518222078681,0.0008215851848945022
1772702165035630600,1.094630615234375,-0.00290364446118474,0.00746111199259758,0.001255414099432528
1772702165045680600,1.1046806640625,-0.001198688754811883,0.005632319487631321,0.0028067054226994514
1772702165055729400,1.1147294921875,-0.0010910971323028207,0.009734652936458588,-0.0002378202771069482
1772702165065779500,1.124779541015625,-0.0005097290268167853,0.006743123754858971,0.0017449031583964825
1772702165075828500,1.134828369140625,0.0010301107540726662,0.005815810989588499,-0.002469815546646714
1772702165085878300,1.144878173828125,-0.00002902845517382957,0.007774832658469677,0.0004852279380429536
1772702165095927600,1.154927490234375,-0.0020216056145727634,0.005958823021501303,-0.0022152173332870007
1772702165105977600,1.1649775390625,-0.0024655545130372047,0.008046208880841732,-0.0018578211311250925
1772702165116026400,1.1750263671875,-0.0021078919526189566,0.0076001291163265705,-0.00023542344570159912
1772702165126076400,1.185076416015625,-0.0017172062071040273,0.008448878303170204,-0.0007155913626775146
1772702165136125400,1.19512548828125,0.0006250438746064901,0.008522382006049156,-0.002427204977720976
1772702165146175500,1.205175537109375,-0.001797101111151278,0.007894141599535942,0.0009246495319530368
1772702165156224500,1.215224609375,-0.00010492854926269501,0.006147374864667654,-0.00015046859334688634
1772702165166274600,1.225274658203125,0.0015137407463043928,0.008900550194084644,-0.00034647725988179445
1772702165176323300,1.2353232421875,0.003254915354773402,0.00720464950427413,0.0023310647811740637
1772702165186373400,1.245373291015625,-0.0022415826097130775,0.006677876226603985,-0.000811997801065445
1772702165196422700,1.255422607421875,0.00020186760229989886,0.006398244295269251,0.000838895735796541
1772702165206472400,1.265472412109375,-0.0009246495319530368,0.009078183211386204,-0.0010253170039504766
1772702165216521500,1.275521484375,-0.0019230686593800783,0.008885636925697327,0.000782436749432236
1772702165226571500,1.285571533203125,-0.0013904364313930273,0.0078073227778077126,-0.0007771103992126882
1772702165236620500,1.29562060546875,-0.0018628811230883002,0.004993427079170942,-0.0022897860035300255
1772702165246670600,1.305670654296875,-0.0005094627267681062,0.007601460441946983,0.0007068029372021556
1772702165256719400,1.31571923828125,-0.002855441300198436,0.005536711774766445,-0.00022530343267135322
1772702165266769400,1.325769287109375,0.001377919572405517,0.007635815534740686,0.0023547669406980276
1772702165276818400,1.335818359375,-0.00019574233738239855,0.008102933876216412,-0.002379800658673048
1772702165286868500,1.345868408203125,-0.0032317459117621183,0.008142348378896713,-0.001055943313986063
1772702165296917500,1.35591748046875,-0.0016418388113379478,0.008871788159012794,-0.002100967802107334
1772702165306967600,1.365967529296875,0.00005885586142539978,0.0067841364070773125,0.00042344260145910084
1772702165317016300,1.376016357421875,-0.002584597794339061,0.007256048731505871,0.0005691175465472043
1772702165327066400,1.38606640625,0.0005957491230219603,0.009035838767886162,0.0007821703911758959
1772702165337115600,1.39611572265625,-0.0012607404496520758,0.005943376570940018,-0.0023880566004663706
1772702165347165400,1.40616552734375,-0.00096113485051319,0.010875551030039787,0.000070307454734575
1772702165357214500,1.41621435546875,0.000290018244413659,0.00512871565297246,-0.001514273346401751
1772702165367264500,1.426264404296875,0.0021702100057154894,0.008521050214767456,-0.0026114957872778177
1772702165377313300,1.436313232421875,-0.0011656655697152019,0.006725813262164593,-0.001755023142322898
1772702165387363300,1.44636328125,-0.00042317630141042173,0.009738647378981113,-0.00256409146822989
1772702165397412600,1.45641259765625,-0.0021497036796063185,0.004878644831478596,-0.0000045273736759554595
1772702165407462400,1.46646240234375,0.0004820321628358215,0.0073508573696017265,-0.00044048685231246054
1772702165417511400,1.476511474609375,-0.0005054679932072759,0.007426757365465164,-0.0029196233954280615
1772702165427561500,1.4865615234375,-0.0035473306197673082,0.010575945489108562,0.0005099953268654644
1772702165437610500,1.496610595703125,-0.00017017599020618945,0.006311425473541021,-0.0018631474813446403
1772702165447660500,1.50666064453125,-0.0009523464250378311,0.007583351340144873,0.001537709147669375
1772702165457709600,1.51670947265625,-0.0006325007416307926,0.008702144958078861,-0.002171275205910206
1772702165467759400,1.52675927734375,0.0004905542591586709,0.008229433558881283,-0.0013491574209183455
1772702165477808400,1.536808349609375,-0.0022892532870173454,0.00692155584692955,-0.002665291540324688
1772702165487858400,1.5468583984375,-0.0005816344055347145,0.00643845833837986,0.0007006776868365705
1772702165497907500,1.556907470703125,-0.0016146745765581727,0.007473628968000412,0.001110005541704595
1772702165507957500,1.56695751953125,-0.0010335728293284774,0.009573797695338726,0.0006207828409969807
1772702165518006500,1.577006591796875,-0.0014799186028540134,0.008449144661426544,0.001603222917765379
1772702165528056300,1.587056396484375,-0.0012708604335784912,0.007198257837444544,-0.0015041533624753356
1772702165538105600,1.597105712890625,-0.0024671524297446012,0.006947122048586607,0.0004577973741106689
1772702165548155600,1.60715576171875,-0.002329733222723007,0.008528240956366062,-0.0011020160745829344
1772702165558204400,1.617204345703125,0.00020133497309871018,0.008159925229847431,-0.002263953210785985
1772702165568253400,1.62725341796875,-0.0001030643325066194,0.006128732580691576,-0.00022663500567432493
1772702165578302500,1.637302490234375,-0.0012399677652865648,0.00723580876365304,-0.0046272422187030315
1772702165588352500,1.6473525390625,-0.00011611382069531828,0.008816394954919815,-0.002073803450912237
1772702165598401500,1.657401611328125,-0.0010551444720476866,0.006007558666169643,-0.001592037733644247
1772702165608451300,1.667451416015625,-0.002567553659901023,0.008742358535528183,0.0009068063227459788
1772702165618500400,1.677500244140625,-0.0006865629111416638,0.0076512619853019714,-0.00023382554354611784
1772702165628550700,1.687550537109375,-0.001633316627703607,0.009698700159788132,-0.0010721886064857244
1772702165638599400,1.697599365234375,-0.00034594463068060577,0.00833835732191801,0.0029411951545625925
1772702165648649500,1.7076494140625,-0.0011970909545198083,0.0065252771601080894,0.0012114719720557332
1772702165658698500,1.717698486328125,-0.0006532734259963036,0.00833702553063631,0.0014511564513668418
1772702165668748300,1.727748291015625,-0.0014618091518059373,0.005934055428951979,0.0011116034584119916
1772702165678797600,1.737797607421875,-0.001888980157673359,0.0089391665533185,0.0007526093395426869
1772702165688847600,1.74784765625,-0.001184307737275958,0.007279750891029835,-0.0007315703551284969
1772702165698896400,1.757896484375,-0.0024253407027572393,0.006554571911692619,0.0013100089272484183
1772702165708946400,1.767946533203125,0.00013209278404247016,0.006167082116007805,-0.0010522148804739118
1772702165718995500,1.777995361328125,-0.0005416869535110891,0.007296528667211533,0.0004511394945438951
1772702165729045500,1.78804541015625,-0.00026072346372529864,0.007548197638243437,-0.0016298545524477959
1772702165739094500,1.798094482421875,0.002354234457015991,0.007891212590038776,0.0002460760879330337
1772702165749144600,1.80814453125,-0.00007004113285802305,0.007421164773404598,-0.001985120354220271
1772702165759193300,1.818193359375,-0.00023196132679004222,0.007170028518885374,-0.0017006946727633476
1772702165769243400,1.828243408203125,-0.0007651261985301971,0.008782572112977505,0.0011558119440451264
1772702165779292400,1.83829248046875,0.0014029532903805375,0.00899908784776926,-0.0006151901907287538
1772702165789342500,1.848342529296875,0.00018189390539191663,0.006934338714927435,-0.00023968449386302382
1772702165799391500,1.8583916015625,0.0008886968716979027,0.00999004952609539,-0.0025537051260471344
1772702165809441500,1.868441650390625,-0.0003424825263209641,0.0067934575490653515,0.0001805623178370297
1772702165819490600,1.878490478515625,0.0001102548703784123,0.006847519893199205,0.0016354472609236836
1772702165829540600,1.88854052734375,0.0007880293414928019,0.006015548016875982,-0.0029949909076094627
1772702165839589400,1.89858935546875,0.0030450583435595036,0.004991828929632902,0.0024828650057315826
1772702165849639400,1.908639404296875,-0.00003808320252574049,0.01022494025528431,0.0002860235108528286
1772702165859688400,1.9186884765625,0.00019627496658358723,0.009194829501211643,-0.0013339773286134005
1772702165869738500,1.928738525390625,0.0014298511669039726,0.006054962985217571,-0.0009930927772074938
1772702165879787500,1.93878759765625,0.00040320257539860904,0.009238772094249725,-0.00023568976030219346
1772702165889837600,1.948837646484375,-0.0011848403373733163,0.007782555650919676,-0.0008492820779792964
1772702165899886300,1.95888623046875,0.0022088258992880583,0.007829693146049976,0.0002258360618725419
1772702165909936400,1.968936279296875,-0.0008356999605894089,0.005948170088231564,0.0007864314829930663
1772702165919985400,1.9789853515625,-0.0017571536591276526,0.008441155776381493,-0.00003728425508597866
1772702165930034400,1.989034423828125,0.00021385183208622038,0.007922638207674026,-0.00023622238950338215
1772702165940084500,1.99908447265625,-0.0024588967207819223,0.005901831202208996,-0.00038962045800872147
1772702165950133500,2.009133544921875,0.0003486077766865492,0.009397230111062527,-0.004311125259846449
1772702165960183300,2.019183349609375,-0.0025398568250238895,0.004739094991236925,0.0003206445835530758
1772702165970232600,2.029232666015625,-0.0024770060554146767,0.006304501090198755,0.000028762138754245825
1772702165980282600,2.03928271484375,-0.0009701895760372281,0.007327155210077763,-0.002624545246362686
1772702165990331400,2.049331298828125,0.0003608583356253803,0.006392918061465025,-0.00001304948909819359
1772702166000381400,2.05938134765625,-0.0020564929582178593,0.009227586910128593,-0.0014919028617441654
1772702166010430500,2.069430419921875,-0.0009057410643436015,0.009393502026796341,-0.0009126652730628848
1772702166020480500,2.07948046875,0.000734766130335629,0.006903179921209812,-0.0014215953415259719
1772702166030529500,2.089529541015625,0.0013129384024068713,0.007735417690128088,0.002341983839869499
1772702166040579600,2.09957958984375,-0.00013555490295402706,0.007719704881310463,0.00011930961773032323
1772702166050628400,2.10962841796875,-0.0024836640805006027,0.00862970668822527,0.00008016114588826895
1772702166060678400,2.119678466796875,-0.002027997048571706,0.006788664031773806,0.0031292142812162638
1772702166070727400,2.1297275390625,0.0017427726415917277,0.007149522192776203,0.0010639328975230455
1772702166080777500,2.139777587890625,-0.0013800500892102718,0.008627310395240784,-0.0012144014472141862
1772702166090826500,2.149826416015625,-0.0011230550007894635,0.00657454552128911,0.0036639769095927477
1772702166100876500,2.15987646484375,-0.0016026903176680207,0.010174873284995556,-0.0009672601008787751
1772702166110925300,2.16992529296875,-0.0017331852577626705,0.008520251139998436,0.00043516053119674325
1772702166120975600,2.1799755859375,-0.002787264296784997,0.008264321833848953,-0.0022325278259813786
1772702166131024400,2.1900244140625,0.001535312389023602,0.006293582264333963,-0.0005874933558516204
1772702166141074400,2.200074462890625,-0.0015238607302308083,0.005079713650047779,0.0006791060441173613
1772702166151123500,2.21012353515625,-0.001371794263832271,0.00678227236494422,0.0005033374181948602
1772702166161173200,2.22017333984375,-0.0008980178972706199,0.005341236013919115,0.0008402272942475975
1772702166171222500,2.230222412109375,-0.0018154769204556942,0.008792426437139511,0.00011877698125317693
1772702166181272600,2.2402724609375,-0.0010460896883159876,0.007414506748318672,-0.00042024682625196874
1772702166191321300,2.2503212890625,-0.0016072177095338702,0.008012652397155762,0.00008388957212446257
1772702166201371400,2.260371337890625,0.0004575310740619898,0.007099721115082502,0.0014266553334891796
1772702166211420400,2.27042041015625,-0.002118011936545372,0.00954050850123167,-0.0002282329078298062
1772702166221470500,2.280470458984375,-0.0008932242053560913,0.007846471853554249,0.00010759170982055366
1772702166231519500,2.29051953125,-0.002225070958957076,0.0068240840919315815,-0.0009350358741357923
1772702166241569500,2.300569580078125,-0.0027569043450057507,0.0078102522529661655,0.00004447478931979276
1772702166251618300,2.310618408203125,-0.0028762139845639467,0.007837949320673943,-0.0013185309944674373
1772702166261668400,2.32066845703125,0.00010679275874281302,0.009266735054552555,0.000150202278746292
1772702166271717600,2.330717529296875,-0.00003861583536490798,0.007573231123387814,-0.0013795174891129136
1772702166281767400,2.340767333984375,0.0003038666909560561,0.00839668046683073,-0.004298608284443617
1772702166291816400,2.35081640625,-0.0009882990270853043,0.006851780693978071,0.0001483380765421316
1772702166301866500,2.360866455078125,-0.002359294332563877,0.006795854307711124,0.0003920173039659858
1772702166311915500,2.37091552734375,-0.0036360137164592743,0.00817883387207985,-0.004509530495852232
1772702166321965600,2.380965576171875,-0.0016769925132393837,0.006040049251168966,0.001418932224623859
1772702166332014600,2.3910146484375,-0.0010237190872430801,0.00771650904789567,0.0012815131340175867
1772702166342064400,2.401064453125,-0.0019294602097943425,0.009010273031890392,0.00024048343766480684
1772702166352113400,2.411113525390625,0.000016777914424892515,0.008326106704771519,0.002046106616035104
1772702166362163500,2.42116357421875,-0.003061836352571845,0.005242698825895786,-0.0017475662752985954
1772702166372212500,2.43121240234375,-0.000037017940485384315,0.009948770515620708,-0.0005933523061685264
1772702166382262500,2.441262451171875,-0.0019920445047318935,0.006160424090921879,-0.002264485927298665
1772702166392311600,2.4513115234375,0.0001179780374513939,0.007863782346248627,0.003549993736669421
1772702166402361300,2.461361328125,-0.002496180823072791,0.004890096373856068,0.0013249226612970233
1772702166412410600,2.47141064453125,-0.0009989517275243998,0.008827313780784607,-0.0015606123488396406
1772702166422460700,2.481460693359375,-0.0009065400226972997,0.00732395937666297,-0.0020727382507175207
1772702166432509400,2.491509521484375,0.00031798143754713237,0.007842476479709148,-0.0002085255109705031
1772702166442559500,2.5015595703125,-0.0022503710351884365,0.007604656275361776,0.001156877144239843
1772702166452608300,2.511608154296875,-0.0008428904693573713,0.009733321145176888,-0.0026754115242511034
1772702166462658300,2.521658203125,-0.0011795139871537685,0.008613994345068932,0.000050600061513250694
1772702166472707600,2.53170751953125,-0.0010695254895836115,0.009168198332190514,-0.0032831449061632156
1772702166482757600,2.541757568359375,0.0029025792609900236,0.006226470693945885,0.001900964416563511
1772702166492806400,2.551806396484375,0.0007520766812376678,0.005398493725806475,0.0006234460161067545
1772702166502856400,2.5618564453125,-0.0006210491410456598,0.007760451175272465,-0.0007129282457754016
1772702166512905500,2.571905517578125,-0.0015672702575102448,0.007702927105128765,0.00048363005043938756
1772702166522955500,2.58195556640625,-0.00021491710504051298,0.004792358260601759,0.0008245146600529552
1772702166533004500,2.592004638671875,0.0004751079250127077,0.007198790553957224,-0.0003336940717417747
1772702166543054600,2.6020546875,-0.0003581951605156064,0.006368150934576988,0.0004135889175813645
1772702166553103400,2.612103271484375,-0.0010327738709747791,0.007364705670624971,-0.0013424995122477412
1772702166563153400,2.6221533203125,-0.0011590076610445976,0.010907242074608803,-0.0019014970166608691
1772702166573203200,2.632203125,-0.0015430354978889227,0.006689860485494137,-0.0002479403046891093
1772702166583253200,2.642253173828125,0.00046365635353140533,0.004870122764259577,0.0008815063047222793
1772702166593302000,2.652302001953125,0.0005448827287182212,0.0062634884379804134,0.0010319749126210809
1772702166603352000,2.66235205078125,0.0031425300985574722,0.0070794811472296715,-0.0018309232546016574
1772702166613401000,2.672401123046875,-0.0011137339752167463,0.004763596225529909,0.0025659557431936264
1772702166623451000,2.682450927734375,-0.0006082659820094705,0.0075817531906068325,-0.0015899071004241705
1772702166633500200,2.692500244140625,-0.002310824813321233,0.007998005487024784,-0.0005291700945235789
1772702166643549200,2.702549072265625,0.0003043993201572448,0.008709069341421127,-0.00008175904804375023
1772702166653599000,2.712598876953125,-0.0007331682136282325,0.005892776418477297,0.00043302998528815806
1772702166663649000,2.72264892578125,-0.00199337606318295,0.007791876792907715,-0.0033073797821998596
1772702166673698300,2.7326982421875,-0.0022652847692370415,0.005846437532454729,-0.0026106967125087976
1772702166683748000,2.742748046875,0.00018375810759607702,0.00708693778142333,0.000901480030734092
1772702166693797000,2.752797119140625,-0.0011653993278741837,0.006653375457972288,0.001377653214149177
1772702166703846000,2.762845947265625,-0.0009813748765736818,0.005981726106256247,-0.00015233281010296196
1772702166713896000,2.77289599609375,-0.0025246767327189445,0.0089391665533185,-0.002344646956771612
1772702166723946000,2.782946044921875,-0.0018546254141256213,0.008171376772224903,-0.0010801780736073852
1772702166733995300,2.792995361328125,-0.0025992451701313257,0.007604922633618116,-0.0015390408225357533
1772702166744044000,2.8030439453125,-0.0006852313526906073,0.0070584421046078205,-0.0020714066922664642
1772702166754094000,2.813093994140625,-0.0012519520241767168,0.007112504448741674,0.0037649108562618494
1772702166764143000,2.82314306640625,-0.0024567660875618458,0.0068094367161393166,-0.0013483584625646472
1772702166774193200,2.833193115234375,-0.0019473034190014005,0.0076086511835455894,0.0010418286547064781
1772702166784242200,2.8432421875,-0.0025987126864492893,0.009241169318556786,0.00019094864546786994
1772702166794292000,2.8532919921875,-0.0017710020765662193,0.005036570131778717,-0.00045806370326317847
1772702166804341000,2.863341064453125,0.0010833739070221782,0.006776147056370974,-0.002679938916116953
1772702166814391000,2.87339111328125,-0.002403769176453352,0.00863530021160841,-0.0006705839768983424
1772702166824440000,2.883440185546875,-0.0004964132094755769,0.007261907681822777,-0.0026732811238616705
1772702166834490000,2.893489990234375,0.000059388490626588464,0.00996341835707426,-0.0014543522847816348
1772702166844539100,2.9035390625,-0.002344646956771612,0.005946572404354811,0.0002002697146963328
1772702166854589000,2.9135888671875,0.0003656520275399089,0.007551925722509623,-0.002627474721521139
1772702166864638200,2.92363818359375,0.001505751279182732,0.0060299295000731945,-0.0006522081675939262
1772702166874688300,2.933688232421875,-0.0015584818320348859,0.010194048285484314,0.0012751214671880007
1772702166884737000,2.943737060546875,0.0002031991898547858,0.005173723213374615,0.0007819040911272168
1772702166894787000,2.953787109375,-0.0002793656021822244,0.00660570478066802,0.0009270463488064706
1772702166904836000,2.963836181640625,-0.002627474721521139,0.0074017234146595,-0.002472745021805167
1772702166914886000,2.973885986328125,-0.00009028115891851485,0.008560997433960438,-0.0008908273885026574
1772702166924935200,2.98393505859375,-0.0025033713318407536,0.007358047645539045,0.0010721886064857244
1772702166934985200,2.993985107421875,0.0011353056179359555,0.008926915936172009,-0.0016937704058364034
1772702166945034000,3.004033935546875,-0.000303334032651037,0.00808881875127554,-0.0013992248568683863
1772702166955084000,3.014083984375,-0.0016682040877640247,0.010009757243096828,0.0021816615480929613
1772702166965133300,3.02413330078125,-0.00028389296494424343,0.006539658177644014,0.0010657970560714602
1772702166975183000,3.03418310546875,-0.0014732606941834092,0.009519202634692192,-0.00239258399233222
1772702166985232100,3.044232177734375,0.0004093278548680246,0.007104248274117708,-0.0013800500892102718
1772702166995282200,3.0542822265625,0.001216265605762601,0.004881840664893389,-0.00011717908637365326
1772702167005331000,3.0643310546875,-0.002728142309933901,0.006132727488875389,-0.0015853798249736428
1772702167015381000,3.074381103515625,-0.0025249430909752846,0.00848589651286602,0.0005198490689508617
1772702167025430300,3.08443017578125,0.00006604639202123508,0.007279750891029835,0.0011997540714219213
1772702167035480000,3.09447998046875,-0.0035872780717909336,0.0073532541282474995,0.0015840481501072645
1772702167045529000,3.104529052734375,-0.00006604639202123508,0.006451507564634085,-0.0022916500456631184
1772702167055579100,3.1145791015625,-0.0007949535502120852,0.006010488141328096,0.0006402239087037742
1772702167065628200,3.124628173828125,-0.0027952538803219795,0.00811944529414177,0.0007193197961896658
1772702167075678200,3.13467822265625,-0.002826412906870246,0.005476790945976973,0.0010042780777439475
1772702167085727000,3.14472705078125,-0.0007060039788484573,0.008112787269055843,-0.0011659319279715419
1772702167095777000,3.154777099609375,-0.0015883093001320958,0.00911493506282568,0.0018530274974182248
1772702167105826000,3.164825927734375,0.00021544973424170166,0.007027016952633858,-0.0013590110465884209
1772702167115876000,3.1748759765625,0.0006106628570705652,0.007795604877173901,0.000919323181733489
1772702167125925000,3.184925048828125,0.0010841728653758764,0.005016330163925886,0.0015869776252657175
1772702167135975200,3.19497509765625,-0.002388855442404747,0.006968693342059851,0.0014682007022202015
1772702167146024000,3.20502392578125,-0.0031851406674832106,0.005588377360254526,0.0023963123094290495
1772702167156074000,3.215073974609375,-0.002638659905642271,0.005795837379992008,-0.0009496832499280572
1772702167166123300,3.225123291015625,-0.0015747271245345473,0.00830746442079544,-0.0007632619817741215
1772702167176173000,3.235173095703125,-0.00253399764187634,0.008528773672878742,0.0008559399866499007
1772702167186222000,3.24522216796875,-0.002570749493315816,0.007948736660182476,0.0005475459038279951
1772702167196272000,3.255272216796875,-0.0011643340112641454,0.005921272095292807,0.0010215885704383254
1772702167206321000,3.26532080078125,-0.0032810145057737827,0.009167132899165154,-0.0032447953708469868
1772702167216371000,3.275370849609375,-0.0011739213950932026,0.004565723240375519,-0.00002450108149787411
1772702167226420200,3.285420166015625,-0.002508964156731963,0.009859554469585419,-0.0008719189208932221
1772702167236470000,3.295469970703125,-0.0006559365428984165,0.009259277954697609,-0.0011012171162292361
1772702167246519000,3.30551904296875,0.000290018244413659,0.005791043862700462,0.001529187080450356
1772702167256569000,3.315569091796875,-0.0002085255109705031,0.007947937585413456,0.0007592672482132912
1772702167266618000,3.3256181640625,-0.0004135889175813645,0.006600112188607454,-0.000005326322025211994
1772702167276668200,3.335668212890625,-0.0010213222121819854,0.006826480850577354,-0.00013156015484128147
1772702167286717200,3.34571728515625,-0.002651443239301443,0.006217948626726866,-0.00155288923997432
1772702167296767000,3.35576708984375,0.0004894890007562935,0.0049074068665504456,-0.0017113472567871213
1772702167306816000,3.36581591796875,0.0005195827106945217,0.007840612903237343,-0.0022333269007503986
1772702167316866000,3.375865966796875,-0.003291134489700198,0.005948170088231564,0.0006447513005696237
1772702167326915000,3.3859150390625,-0.002373675350099802,0.007132478058338165,0.00013448962999973446
1772702167336965000,3.395965087890625,-0.001874332781881094,0.00812104344367981,-0.0012492889072746038
1772702167347014100,3.40601416015625,0.0003677825443446636,0.007895739749073982,-0.0006271744496189058
1772702167357063200,3.416063232421875,-0.0003230414295103401,0.005935653578490019,0.0022280006669461727
1772702167367113200,3.42611328125,-0.001315335277467966,0.010802047327160835,-0.0002663161139935255
1772702167377162000,3.436161865234375,0.0013973605819046497,0.007458182517439127,-0.00044528054422698915
1772702167387212000,3.4462119140625,-0.0028474517166614532,0.004060521721839905,-0.0017688715597614646
1772702167397261000,3.456260986328125,-0.0010122675448656082,0.0065407236106693745,-0.001823732745833695
1772702167407311000,3.46631103515625,-0.001975799212232232,0.007257646415382624,0.0021968416403979063
1772702167417360100,3.476360107421875,-0.001415736391209066,0.006975085008889437,0.0006290386663749814
1772702167427410200,3.48641015625,-0.001110005541704595,0.008951683528721333,-0.0007097324123606086
1772702167437459000,3.496458984375,-0.0015081481542438269,0.005832589231431484,-0.0009361011325381696
1772702167447509000,3.506509033203125,0.002356631215661764,0.008686698973178864,0.0006727144937030971
1772702167457558300,3.516558349609375,0.0006815029191784561,0.007395331747829914,-0.000434361572843045
1772702167467608000,3.526608154296875,-0.002296177437528968,0.007685083895921707,-0.000032490566809428856
1772702167477657000,3.536656982421875,-0.0011653993278741837,0.00592633243650198,0.0009179916232824326
1772702167487707100,3.54670703125,-0.002944657113403082,0.008084557950496674,0.000553404854144901
1772702167497756000,3.556755859375,-0.0013970943400636315,0.006618221756070852,-0.0004394215648062527
1772702167507806000,3.566805908203125,-0.0005360943032428622,0.007984156720340252,-0.000702009245287627
1772702167517855200,3.576855224609375,-0.0013323795283213258,0.01013945322483778,0.000045806369598722085
1772702167527905000,3.586905029296875,-0.0018381137633696198,0.007190268486738205,-0.0036602485924959183
1772702167537954000,3.5969541015625,-0.0026168220210820436,0.00523577444255352,-0.0012652678415179253
1772702167548004000,3.607004150390625,0.0003014698449987918,0.008011853322386742,-0.000050333743274677545
1772702167558053000,3.61705322265625,0.0013819142477586865,0.008263789117336273,-0.0031188279390335083
1772702167568103400,3.627103515625,0.0009403621661476791,0.005607285536825657,-0.0015984292840585113
1772702167578152700,3.637152587890625,-0.002695651724934578,0.008297877386212349,-0.0013081447687000036
1772702167588202500,3.647202392578125,-0.0014173343079164624,0.00762889115139842,0.00041199102997779846
1772702167598251500,3.65725146484375,-0.0010189254535362124,0.007213171571493149,-0.0006474144756793976
1772702167608301600,3.667301513671875,0.0004772384709212929,0.007214503362774849,0.0009888317435979843
1772702167618350600,3.6773505859375,0.00044075315236113966,0.008588960394263268,0.0014570154016837478
1772702167628400600,3.687400634765625,0.00027616979787126184,0.00811837986111641,-0.0049071405082941055
1772702167638449700,3.69744970703125,0.0013409015955403447,0.006690659560263157,-0.0004511394945438951
1772702167648499500,3.70749951171875,-0.0018370485631749034,0.006552175153046846,-0.0027244137600064278
1772702167658548500,3.717548583984375,-0.001980859087780118,0.007517571095377207,0.0026458504144102335
1772702167668598500,3.7275986328125,-0.0026578346733003855,0.0073351445607841015,-0.00019734023953787982
1772702167678647600,3.7376474609375,-0.0011025486746802926,0.006417152937501669,-0.00023329291434492916
1772702167688697600,3.747697509765625,-0.004483431577682495,0.006130330264568329,-0.0003635214816313237
1772702167698746600,3.75774658203125,-0.0019433086272329092,0.008184692822396755,-0.002153165638446808
1772702167708796400,3.76779638671875,-0.0008641957538202405,0.007710117381066084,-0.0002490055630914867
1772702167718845700,3.777845703125,-0.00029534456552937627,0.007861118763685226,-0.0012841762509196997
1772702167728895700,3.787895751953125,0.00030546457855962217,0.009463543072342873,0.0008143946761265397
1772702167738944500,3.797944580078125,0.000355532014509663,0.0075601814314723015,0.0005382248782552779
1772702167748994600,3.80799462890625,-0.0016282566357403994,0.006051234435290098,-0.00014887070574332029
1772702167759043600,3.818043701171875,-0.0022029669489711523,0.0076209018006920815,0.00008202536264434457
1772702167769093600,3.82809375,-0.0005789712304249406,0.008853678591549397,-0.0002884203568100929
1772702167779142700,3.838142578125,-0.0008386294357478619,0.007216101046651602,0.0015667376574128866
1772702167789192700,3.848192626953125,0.0016229304019361734,0.007676029112190008,0.00034647725988179445
1772702167799241500,3.858241455078125,-0.0019531622529029846,0.008411061950027943,0.0011797803454101086
1772702167809291500,3.86829150390625,0.0013709953054785728,0.008066448383033276,0.0004572647449094802
1772702167819340800,3.8783408203125,-0.000036218989407643676,0.007811850402504206,-0.0014378406340256333
1772702167829390600,3.888390625,-0.0008503473363816738,0.005815810989588499,-0.002388589084148407
1772702167839439600,3.898439697265625,-0.0025156219489872456,0.008072840049862862,0.0023212111555039883
1772702167849489700,3.90848974609375,-0.0009129316313192248,0.006989998742938042,0.002573412610217929
1772702167859538400,3.918538330078125,-0.0031827439088374376,0.00879002921283245,-0.0009297095239162445
1772702167869588700,3.928588623046875,-0.0033542513847351074,0.007334079127758741,0.0014929680619388819
1772702167879637500,3.938637451171875,-0.002898051869124174,0.007649397477507591,0.0009384979493916035
1772702167889687600,3.9486875,-0.0037736992817372084,0.006000368390232325,-0.0008596684201620519
1772702167899736600,3.958736572265625,-0.0013339773286134005,0.006072539836168289,-0.002180596347898245
1772702167909786600,3.96878662109375,-0.0015004249289631844,0.00914609432220459,-0.0004791026876773685
1772702167919835600,3.978835693359375,0.00017124126316048205,0.006313555873930454,-0.00065460498444736
1772702167929885700,3.9888857421875,-0.001704689348116517,0.007192665245383978,0.0018461032304912806
1772702167939934500,3.9989345703125,-0.0037031255196779966,0.00917672086507082,-0.0018724685069173574
1772702167949984500,4.008984619140625,-0.001540904981084168,0.006902114488184452,-0.001454884884878993
1772702167960033500,4.019033447265625,-0.00022503710351884365,0.00899722333997488,-0.0009704558760859072
1772702167970082600,4.02908251953125,-0.003430151380598545,0.006572415120899677,-0.0015307849971577525
1772702167980132600,4.039132568359375,-0.002153165638446808,0.008650746196508408,0.000011451592399680521
1772702167990181600,4.049181640625,-0.0011257182341068983,0.00890960544347763,0.00040746363811194897
1772702168000231400,4.0592314453125,-0.0014700648607686162,0.008299475535750389,0.00038163099088706076
1772702168010280700,4.06928076171875,-0.0023521038237959146,0.008687498047947884,-0.0028367992490530014
1772702168020330800,4.079330810546875,-0.004800081718713045,0.008249673992395401,-0.0014002900570631027
1772702168030379500,4.089379638671875,-0.0018168084789067507,0.006971356924623251,-0.00047936898772604764
1772702168040429600,4.0994296875,-0.001181111903861165,0.005344697739928961,-0.0005219795857556164
1772702168050478600,4.109478515625,-0.0025893915444612503,0.006631803698837757,0.0012130698887631297
1772702168060528600,4.119528564453125,-0.0017592841759324074,0.006569219287484884,0.0012159993639215827
1772702168070577700,4.12957763671875,-0.0004572647449094802,0.008672583848237991,-0.0008655273704789579
1772702168080627700,4.139627685546875,-0.001979261403903365,0.006837399676442146,0.00040506679215468466
1772702168090676500,4.149676513671875,-0.0013411679537966847,0.00700864102691412,-0.003829892026260495
1772702168100726500,4.1597265625,-0.0006072007236070931,0.0068302094005048275,-0.003049319377169013
1772702168110775600,4.169775634765625,-0.0010013486025854945,0.008548214100301266,-0.00030067088664509356
1772702168120825600,4.17982568359375,-0.002442651428282261,0.0072943982668221,-0.001446362817659974
1772702168130874600,4.18987451171875,-0.0004498079069890082,0.00863423477858305,-0.0018825886072590947
1772702168140924700,4.199924560546875,0.0004340952436905354,0.007444334216415882,-0.00019760655413847417
1772702168150973400,4.209973388671875,0.0010295780375599861,0.007352455053478479,-0.002341983839869499
1772702168161023700,4.220023681640625,-0.00123783724848181,0.008822520263493061,-0.0036967338528484106
1772702168171072500,4.230072509765625,0.000007723167072981596,0.0041121868416666985,0.00048123320448212326
1772702168181122600,4.24012255859375,-0.0022037657909095287,0.00791677925735712,-0.0002609897928778082
1772702168191171600,4.250171630859375,0.0004569984448608011,0.005228051450103521,0.0028719529509544373
1772702168201221600,4.2602216796875,-0.0001739044237183407,0.008745022118091583,-0.0038221688009798527
1772702168211270700,4.270270751953125,-0.0023574302904307842,0.0059598879888653755,-0.0014120079576969147
1772702168221320700,4.28032080078125,-0.0036535905674099922,0.008856342174112797,0.0011747203534469008
1772702168231369500,4.290369384765625,-0.0024469124618917704,0.00875061471015215,-0.00005672533006872982
1772702168241419500,4.30041943359375,-0.001731587341055274,0.006397445686161518,-0.001967277145013213
1772702168251468500,4.310468505859375,0.00028043086058460176,0.006326605565845966,-0.002168079372495413
1772702168261518600,4.3205185546875,-0.0014080132823437452,0.006419283337891102,0.0002263686910737306
1772702168271567600,4.330567626953125,0.000025832661776803434,0.00749147217720747,0.00049082055920735
1772702168281617700,4.34061767578125,-0.0012897689593955874,0.006167348474264145,-0.0015121428295969963
1772702168291666400,4.35066650390625,-0.0027864654548466206,0.004276504274457693,0.0023491743486374617
1772702168301716500,4.360716552734375,-0.0012937636347487569,0.006626477465033531,0.000508663768414408
1772702168311765800,4.370765869140625,-0.0005262406193651259,0.005541505757719278,0.0006383596919476986
1772702168321815600,4.380815673828125,-0.000978711643256247,0.008695753291249275,0.0007574030314572155
1772702168331864600,4.390864501953125,-0.0008311725687235594,0.0065196845680475235,0.0006266417913138866
1772702168341914600,4.40091455078125,0.00011851066665258259,0.006684534251689911,0.0011108045000582933
1772702168351963600,4.410963623046875,-0.0007203850545920432,0.00851652305573225,0.0014117417158558965
1772702168362013700,4.421013671875,-0.0014740596525371075,0.007671235594898462,0.000713993504177779
1772702168372062700,4.431062744140625,-0.002654372714459896,0.00863237027078867,-0.0008239820599555969
1772702168382112500,4.441112548828125,0.0011054781498387456,0.0062123560346663,-0.0008098672842606902
1772702168392161500,4.45116162109375,-0.0007363640470430255,0.007222226355224848,-0.0008524778531864285
1772702168402211600,4.461211669921875,-0.0018671422731131315,0.005872802808880806,-0.0020969731267541647
1772702168412260600,4.471260498046875,-0.0009376989910379052,0.0067452541552484035,-0.0012988236267119646
1772702168422310700,4.481310546875,-0.0016207997687160969,0.007816644385457039,0.0018698053900152445
1772702168432359700,4.491359619140625,-0.0012796488590538502,0.007543670013546944,-0.0005049353349022567
1772702168442409500,4.501409423828125,0.0008426241693086922,0.010772486217319965,-0.002579537918791175
1772702168452458500,4.51145849609375,-0.0003486077766865492,0.006555370986461639,-0.0008751147543080151
1772702168462508800,4.5215087890625,-0.002097771968692541,0.005822469014674425,0.00041199102997779846
1772702168472557600,4.5315576171875,0.002298840554431081,0.008380435407161713,0.002560895634815097
1772702168482607600,4.541607666015625,-0.0026410568971186876,0.005381449591368437,0.000005858954409632133
1772702168492656400,4.551656494140625,-0.0023587618488818407,0.007131146267056465,-0.00019760655413847417
1772702168502705700,4.56170556640625,-0.003376888344064355,0.006895989179611206,-0.00009800432599149644
1772702168512755700,4.571755615234375,-0.002180063631385565,0.007200388703495264,-0.0016330503858625889
1772702168522804500,4.581804443359375,-0.0009629990672692657,0.005938316695392132,-0.0015909724170342088
1772702168532854500,4.5918544921875,-0.0033992587123066187,0.00917512271553278,-0.0014383733505383134
1772702168542903600,4.601903564453125,-0.003150519449263811,0.007534082513302565,-0.00010253170330543071
1772702168552953600,4.61195361328125,-0.0006743124104104936,0.00788775086402893,0.0019358517602086067
1772702168563002600,4.622002685546875,-0.0021435783710330725,0.00879002921283245,-0.0007046724203974009
1772702168573052200,4.63205224609375,-0.00555242458358407,0.01056316215544939,0.00014034859486855567
1772702168583101200,4.64210107421875,-0.0013946974650025368,0.006444583646953106,-0.0007635282818228006
1772702168593151200,4.652151123046875,-0.0007187871960923076,0.006001166999340057,0.00256409146822989
1772702168603200300,4.6622001953125,-0.001353152096271515,0.007721569389104843,0.0025806031189858913
1772702168613250300,4.672250244140625,-0.0009158611064776778,0.00974397361278534,-0.001919073867611587
1772702168623299000,4.682299072265625,-0.0015419702976942062,0.004819522611796856,0.0004873584839515388
1772702168633349000,4.69234912109375,-0.0026431872975081205,0.007683486212044954,-0.0004527373821474612
1772702168643398400,4.7023984375,0.001698830397799611,0.004536961205303669,0.00022929816623218358
1772702168653448200,4.7124482421875,-0.0012069445801898837,0.007964981719851494,0.002305498579517007
1772702168663497200,4.722497314453125,-0.0005390237784013152,0.008872320875525475,-0.0004316983977332711
1772702168673547300,4.73254736328125,-0.0007941546500660479,0.004914064891636372,0.00017550231132190675
1772702168683596000,4.742595947265625,-0.0009629990672692657,0.005801429972052574,0.0009086705395020545
1772702168693646000,4.75264599609375,-0.0006846986943855882,0.007739944849163294,-0.0008093346259556711
1772702168703695400,4.7626953125,0.0002918824611697346,0.007546865846961737,-0.0025395904667675495
1772702168713745200,4.7727451171875,-0.0010777813149616122,0.008723716251552105,-0.002749181119725108
1772702168723794200,4.782794189453125,-0.000857005245052278,0.0059969061985611916,0.0035393410362303257
1772702168733844200,4.79284423828125,0.0001954760227818042,0.006943659856915474,-0.00013369068619795144
1772702168743893200,4.802893310546875,-0.0032948628067970276,0.006750314496457577,-0.0012237224727869034
1772702168753943300,4.812943359375,-0.0021076255943626165,0.006450176239013672,0.0016178702935576439
1772702168763992300,4.822992431640625,-0.0010639328975230455,0.005934055428951979,-0.0009709885343909264
1772702168774042000,4.8330419921875,-0.0005930859479121864,0.0065377941355109215,0.0014508900931105018
1772702168784091100,4.843091064453125,-0.0018495653057470918,0.005875732284039259,-0.00005193164179218002
1772702168794141200,4.85314111328125,-0.00044900894863530993,0.006136721931397915,0.0012966931099072099
1772702168804190200,4.863190185546875,-0.0007906925166025758,0.006941263098269701,-0.0006585997180081904
1772702168814240300,4.873240234375,-0.0036570527590811253,0.007896006107330322,-0.001261273049749434
1772702168824289300,4.883289306640625,0.0001478054327890277,0.005848834291100502,-0.0024650217965245247
1772702168834339000,4.893339111328125,-0.0006570018595084548,0.00734313391149044,0.001341700553894043
1772702168844388400,4.903388427734375,0.0014751249691471457,0.00754979532212019,0.000018109494703821838
1772702168854438400,4.9134384765625,0.0005619269795715809,0.007286142557859421,-0.0001573928166180849
1772702168864487200,4.923487060546875,0.0002146507758880034,0.00830746442079544,-0.0020120181143283844
1772702168874537200,4.933537109375,-0.002083390951156616,0.008298143744468689,0.0007187871960923076
1772702168884586000,4.9435859375,-0.0023009711876511574,0.007315703667700291,-0.0007877630414441228
1772702168894636000,4.953635986328125,0.0004370247188489884,0.0068113007582724094,0.0007539408979937434
1772702168904685300,4.963685302734375,0.0015315839555114508,0.010011089034378529,0.000467118457891047
1772702168914735400,4.9737353515625,-0.0013651363551616669,0.005878395400941372,0.0025992451701313257
1772702168924784000,4.9837841796875,-0.00043329631444066763,0.006072539836168289,-0.00046578687033616006
1772702168934834200,4.993834228515625,0.00015153386630117893,0.007759652566164732,-0.0003278351214248687
1772702168944883200,5.00388330078125,0.0005518069956451654,0.007703992538154125,0.0015638081822544336
1772702168954933200,5.013933349609375,-0.0016319850692525506,0.007666441611945629,-0.0010985539993271232
1772702168964982300,5.023982177734375,-0.0022053637076169252,0.007214237004518509,-0.0025278725661337376
1772702168975032300,5.0340322265625,-0.0003563309437595308,0.0070919981226325035,-0.002243713242933154
1772702168985081000,5.0440810546875,-0.0011014834744855762,0.00606295233592391,0.0015366439474746585
1772702168995131100,5.054131103515625,0.0018738001817837358,0.00612180819734931,0.0031883365008980036
1772702169005180200,5.06418017578125,-0.0022032330743968487,0.008038485422730446,0.00236275652423501
1772702169015230200,5.074230224609375,0.0011528824688866735,0.007158843334764242,0.000589091214351356
1772702169025279200,5.084279296875,-0.0008311725687235594,0.008013717830181122,0.0003347593592479825
1772702169035328300,5.094328369140625,-0.0011345066595822573,0.006869357544928789,-0.000645550258923322
1772702169045378300,5.10437841796875,-0.0021435783710330725,0.008273908868432045,-0.0010519486386328936
1772702169055427300,5.11442724609375,0.002156361471861601,0.007836351171135902,0.0005637911963276565
1772702169065477000,5.12447705078125,-0.00004820321555598639,0.010933341458439827,-0.0022450448013842106
1772702169075526100,5.134526123046875,-0.0013243899447843432,0.007978297770023346,0.001059139147400856
1772702169085576200,5.144576171875,-0.0015962987672537565,0.006113286130130291,0.0010381002211943269
1772702169095625200,5.154625244140625,0.0005179848521947861,0.0065460498444736,-0.00004740426811622456
1772702169105675300,5.16467529296875,-0.0006980145117267966,0.00666322885081172,-0.0031097731553018093
1772702169115724300,5.174724365234375,-0.0005904228310100734,0.007597732357680798,-0.0018346516881138086
1772702169125774000,5.184774169921875,-0.0006849650526419282,0.009316270239651203,0.00015206649550236762
1772702169135823400,5.1948232421875,-0.002579005202278495,0.006197175942361355,0.0021318604703992605
1772702169145873400,5.204873291015625,-0.0009760485263541341,0.007690676487982273,-0.0036306874826550484
1772702169155922200,5.214922119140625,-0.001264202524907887,0.006931675598025322,0.0006500775925815105
1772702169165972200,5.22497216796875,-0.00018988338706549257,0.00896739587187767,0.0004996090428903699
1772702169176021000,5.23502099609375,-0.0026493126060813665,0.007245662156492472,-0.002484196564182639
1772702169186071000,5.245071044921875,-0.0008516788948327303,0.006355101242661476,0.00017310546536464244
1772702169196120300,5.255120361328125,0.0018130800453945994,0.007397728972136974,-0.002769421087577939
1772702169206170400,5.26517041015625,-0.0015326491557061672,0.0075937374494969845,0.0015214639715850353
1772702169216219100,5.27521923828125,-0.0010388991795480251,0.007744738832116127,0.0004189152386970818
1772702169226269200,5.285269287109375,-0.0024679512716829777,0.009327988140285015,-0.0007368966471403837
1772702169236318200,5.295318115234375,0.0007848335662856698,0.00848456472158432,-0.001285241567529738
1772702169246368300,5.3053681640625,-0.0035571842454373837,0.009829993359744549,-0.0007097324123606086
1772702169256417300,5.315417236328125,-0.000877511571161449,0.006706904619932175,0.0007041397620923817
1772702169266466000,5.325466064453125,-0.002975283656269312,0.005804093088954687,0.00020479709201026708
1772702169276516000,5.33551611328125,-0.00276063266210258,0.009107477962970734,-0.0012628709664568305
1772702169286565400,5.3455654296875,-0.0014879080699756742,0.006581469904631376,-0.0016740630380809307
1772702169296615200,5.355615234375,-0.000322775129461661,0.007733020931482315,0.0007424892974086106
1772702169306664200,5.365664306640625,-0.0006383596919476986,0.008972189389169216,-0.0036764938849955797
1772702169316714200,5.37571435546875,-0.0017323862994089723,0.010294449515640736,-0.0009060074225999415
1772702169326763300,5.38576318359375,0.0010002832859754562,0.005635781679302454,0.0018666095566004515
1772702169336813300,5.395813232421875,-0.001389637473039329,0.00806272029876709,-0.0011464908020570874
1772702169346862300,5.4058623046875,-0.0006838997360318899,0.008346080780029297,0.00021784658019896597
1772702169356912000,5.415912109375,-0.0012338425731286407,0.006923952605575323,-0.0005515406373888254
1772702169366961200,5.425961181640625,0.0017233315156772733,0.00854182243347168,-0.0010162622202187777
1772702169377011200,5.43601123046875,-0.0001246359315700829,0.005435511935502291,-0.0009139968897216022
1772702169387060200,5.446060302734375,0.0005661880713887513,0.009150355122983456,-0.0015315839555114508
1772702169397110300,5.4561103515625,-0.0014168017078191042,0.006653375457972288,-0.0008207862265408039
1772702169407159300,5.4661591796875,-0.0006274407496675849,0.008732771500945091,-0.0023068301379680634
1772702169417209000,5.476208984375,-0.0012958941515535116,0.008187889121472836,0.00036938043194822967
1772702169427258400,5.48625830078125,-0.002403236459940672,0.0070802802219986916,0.0024919197894632816
1772702169437307100,5.49630712890625,0.00040080572944134474,0.0071095749735832214,0.00010972223390126601
1772702169447357200,5.506357177734375,-0.000687361869495362,0.006101834587752819,0.0008490157779306173
1772702169457406200,5.51640625,-0.0013883059145882726,0.0065508438274264336,-0.0008471515611745417
1772702169467456000,5.5264560546875,-0.0012487561907619238,0.007016630377620459,-0.0017070862231776118
1772702169477505300,5.53650537109375,-0.0008143946761265397,0.006234992761164904,-0.0004886900424025953
1772702169487555300,5.546555419921875,0.0008333030855283141,0.006833404768258333,-0.00003968110104324296
1772702169497604000,5.55660400390625,-0.0014146711910143495,0.007477357517927885,-0.0023755396250635386
1772702169507654100,5.566654052734375,-0.0011877698125317693,0.008616391569375992,-0.0019350528018549085
1772702169517703200,5.576703125,-0.0011504855938255787,0.008257131092250347,-0.0009725864510983229
1772702169527753200,5.586753173828125,-0.001586178783327341,0.008157795295119286,-0.0013965616235509515
1772702169537802200,5.59680224609375,-0.002526541007682681,0.008096808567643166,0.0015659386990591884
1772702169547852300,5.606852294921875,-0.002263953210785985,0.009063802659511566,-0.0012535499408841133
1772702169557901000,5.616901123046875,-0.0013827132061123848,0.005889047868549824,-0.0020959076937288046
1772702169567951000,5.626951171875,-0.001561677665449679,0.00541314110159874,-0.0009086705395020545
1772702169578000100,5.637000244140625,-0.0024522386956959963,0.007710383739322424,0.0013520868960767984
1772702169588050000,5.6470498046875,-0.0003382214636076242,0.006042179651558399,0.000016777914424892515
1772702169598099000,5.657098876953125,-0.00043276368523947895,0.008194014430046082,-0.00022903185163158923
1772702169608149000,5.66714892578125,-0.004303401801735163,0.0065170214511454105,-0.002055161399766803
1772702169618198000,5.677197998046875,-0.0011627360945567489,0.004786499310284853,-0.001743038883432746
1772702169628248000,5.687248046875,-0.0012610068079084158,0.00894076470285654,0.0007219829712994397
1772702169638297000,5.697297119140625,-0.001064731739461422,0.00771757448092103,-0.0026674221735447645
1772702169648347000,5.707346923828125,-0.002147839404642582,0.007640342693775892,-0.0030746194534003735
1772702169658396000,5.71739599609375,-0.0027571707032620907,0.008870723657310009,-0.003841343568637967
1772702169668446000,5.727446044921875,-0.003936418332159519,0.00968724861741066,-0.003282079705968499
1772702169678495000,5.737494873046875,-0.000755805114749819,0.007648598402738571,-0.00026525085559114814
1772702169688545000,5.747544921875,0.0010402307379990816,0.008711732923984528,-0.003751328680664301
1772702169698593800,5.75759375,-0.0005675196298398077,0.00857431348413229,-0.00009187905379803851
1772702169708643800,5.767643798828125,0.0013486248208209872,0.007757521700114012,-0.0011768508702516556
1772702169718693000,5.777693115234375,0.0003515372518450022,0.007480553351342678,-0.00185063062235713
1772702169728743200,5.7877431640625,0.0004338289436418563,0.005849367007613182,-0.0013584784464910626
1772702169738792000,5.7977919921875,-0.0010418286547064781,0.004542820155620575,-0.000009321063771494664
1772702169748842000,5.807842041015625,-0.0023933828342705965,0.005905559752136469,-0.0003025351034011692
1772702169758890800,5.817890869140625,-0.002240251051262021,0.0086014773696661,-0.0013166668359190226
1772702169768940800,5.82794091796875,-0.0001978728687390685,0.00851412583142519,0.0007483482477255166
1772702169778990000,5.837989990234375,-0.0007041397620923817,0.01094798929989338,-0.001998968655243516
1772702169789039900,5.848039794921875,-0.001955292886123061,0.008739429526031017,0.0001608549355296418
1772702169799089000,5.8580888671875,-0.0026873957831412554,0.0060203419998288155,-0.0013608753215521574
1772702169809139000,5.868138916015625,0.0004122573300264776,0.008421181701123714,-0.00002157160452043172
1772702169819188000,5.87818798828125,-0.0009784454014152288,0.005565740168094635,-0.0002748382103163749
1772702169829238000,5.888238037109375,-0.002974484581500292,0.010193515568971634,-0.004511128645390272
1772702169839287000,5.898287109375,-0.00020453077740967274,0.006046973634511232,0.002624012529850006
1772702169849336800,5.9083369140625,-0.00023755396250635386,0.008607336319983006,0.001859685406088829
1772702169859385900,5.9183857421875,-0.0007241134881041944,0.009321862831711769,-0.004382497631013393
1772702169869436000,5.928435791015625,-0.001076715998351574,0.009814547374844551,-0.00020772656716872007
1772702169879485000,5.93848486328125,0.0012277172645553946,0.0049225869588553905,-0.000877511571161449
1772702169889535000,5.948534912109375,-0.0022533005103468895,0.0062187472358345985,-0.0001584580895723775
1772702169899584000,5.958583984375,-0.002951048780232668,0.007918909192085266,-0.00242081331089139
1772702169909633800,5.9686337890625,-0.0017174725653603673,0.006797452457249165,-0.001359277404844761
1772702169919683000,5.97868310546875,-0.0023310647811740637,0.006897587329149246,0.000972852751147002
1772702169929733000,5.988733154296875,-0.003162503708153963,0.007383081596344709,-0.003060770919546485
1772702169939782000,5.998781982421875,-0.0011230550007894635,0.007349525578320026,-0.001580319833010435
1772702169949831000,6.008830810546875,-0.0032629049383103848,0.009195628575980663,0.002170742489397526
1772702169959881000,6.018880859375,-0.0025952504947781563,0.006999053526669741,0.000639424950350076
1772702169969930000,6.028929931640625,0.0005067995516583323,0.005927131045609713,0.000898550555575639
1772702169979980000,6.03897998046875,0.000040746363083599135,0.008478173054754734,-0.0007715177489444613
1772702169990030000,6.049030029296875,-0.002499110298231244,0.00902731716632843,-0.00010439591278554872
1772702170000078800,6.059078857421875,-0.00020240024605300277,0.007501325570046902,0.0022335932590067387
1772702170010128100,6.069128173828125,-0.001996305538341403,0.009726663120090961,-0.0015563513152301311
1772702170020178200,6.07917822265625,-0.0023177489638328552,0.007553790230304003,-0.002441585995256901
1772702170030227000,6.08922705078125,-0.0031348068732768297,0.00765818590298295,0.000013582121027866378
1772702170040277000,6.099277099609375,-0.0013696637470275164,0.0060056946240365505,0.0000476705827168189
1772702170050325800,6.10932568359375,-0.0002889529860112816,0.009308813139796257,-0.0002860235108528286
1772702170060375800,6.119375732421875,-0.0014058827655389905,0.005819006823003292,0.002079928759485483
1772702170070425000,6.129425048828125,-0.0012269183062016964,0.006018743850290775,-0.0006138586322776973
1772702170080475000,6.139474853515625,-0.00013768543431069702,0.007552458439022303,-0.0005416869535110891
1772702170090524000,6.14952392578125,-0.000835966260638088,0.008201204240322113,-0.001517202821560204
1772702170100574000,6.159573974609375,0.0000021305288555595325,0.007500260602682829,-0.0010966897243633866
1772702170110623000,6.169623046875,-0.002516687149181962,0.007141266483813524,-0.002670884132385254
1772702170120673000,6.179673095703125,-0.002320412313565612,0.009959423914551735,0.0015161376213654876
1772702170130722000,6.18972216796875,-0.0007147924043238163,0.009928797371685505,-0.0003515372518450022
1772702170140771800,6.199771728515625,0.0009920274605974555,0.006488792132586241,0.0014897723449394107
1772702170150820900,6.20982080078125,-0.0033302828669548035,0.004779841285198927,-0.0009701895760372281
1772702170160871000,6.219870849609375,0.0006386260502040386,0.007448595017194748,-0.00040746363811194897
1772702170170920000,6.229919921875,-0.0011859056539833546,0.005412076134234667,-0.0009957558941096067
1772702170180970000,6.239969970703125,-0.0005579322460107505,0.006972421891987324,-0.0012506204657256603
1772702170191019000,6.25001904296875,-0.0023273364640772343,0.008280833251774311,0.0012114719720557332
1772702170201068800,6.26006884765625,0.0014005564153194427,0.007531952112913132,-0.0014444985426962376
1772702170211118000,6.2701181640625,0.00010892329009948298,0.006213421002030373,-0.0013696637470275164
1772702170221168000,6.280168212890625,-0.0015472965314984322,0.008927448652684689,-0.0015214639715850353
1772702170231217000,6.290216796875,-0.001130245509557426,0.005766542628407478,-0.0012327772565186024
1772702170241267000,6.300266845703125,-0.0017409083666279912,0.006772951222956181,0.001014664419926703
1772702170251316000,6.31031591796875,-0.002043709857389331,0.008971390314400196,0.0008753810543566942
1772702170261366000,6.320365966796875,-0.00010626012954162434,0.0078059914521873,0.0013994910987094045
1772702170271415000,6.3304150390625,-0.0013305152533575892,0.007869108580052853,-0.0002769687562249601
1772702170281465000,6.340465087890625,-0.0013014868600293994,0.007580954115837812,-0.0004511394945438951
1772702170291513900,6.350513916015625,-0.0014495585346594453,0.005495432764291763,0.00020639497961383313
1772702170301564000,6.36056396484375,-0.0011297129094600677,0.006968693342059851,-0.0005858954391442239
1772702170311613000,6.370613037109375,0.0004905542591586709,0.006275472696870565,0.0013859090395271778
1772702170321663000,6.3806630859375,-0.0005118595436215401,0.005944442003965378,-0.0022098910994827747
1772702170331712000,6.3907119140625,-0.0008522115531377494,0.00618279492482543,0.0011086739832535386
1772702170341762000,6.400761962890625,-0.0007084008539095521,0.005870406050235033,-0.0011837751371785998
1772702170351810800,6.410810791015625,-0.0014825817197561264,0.006302370689809322,0.0010381002211943269
1772702170361860900,6.42086083984375,0.002377670258283615,0.008927715010941029,0.001264735241420567
1772702170371910000,6.430909912109375,-0.0006002765148878098,0.007322094868868589,-0.0014793860027566552
1772702170381960000,6.4409599609375,-0.0018258632626384497,0.0063124909065663815,0.0007414240390062332
1772702170392009000,6.451009033203125,-0.0023342606145888567,0.00866326317191124,0.00007456851017195731
1772702170402059000,6.46105908203125,0.0012034825049340725,0.006709301844239235,-0.0003379551344551146
1772702170412108000,6.47110791015625,-0.002541188383474946,0.004997687879949808,0.0023515713401138783
1772702170422158000,6.481157958984375,-0.0009275790071114898,0.007249657064676285,-0.0005893575726076961
1772702170432206800,6.491206787109375,-0.00031079089967533946,0.0067809405736625195,-0.0013904364313930273
1772702170442257000,6.5012568359375,-0.0011281149927526712,0.007327953819185495,0.0010764497565105557
1772702170452306000,6.511305908203125,-0.0020184097811579704,0.007925034500658512,-0.0009203884401358664
1772702170462356000,6.52135595703125,-0.0027025758754462004,0.006342850625514984,-0.00009693906031316146
1772702170472405000,6.531405029296875,-0.001910285442136228,0.007246727589517832,-0.0014583469601348042
1772702170482454000,6.5414541015625,-0.003412840887904167,0.007899735122919083,-0.0015480954898521304
1772702170492503800,6.55150390625,-0.0010950918076559901,0.009121593087911606,-0.0008564725867472589
1772702170502553000,6.561552978515625,-0.001076982356607914,0.0073194317519664764,-0.0024956483393907547
1772702170512603100,6.57160302734375,-0.000603738590143621,0.006585997529327869,-0.0024290692526847124
1772702170522652000,6.58165185546875,-0.000538491178303957,0.009731722995638847,0.0003051982494071126
1772702170532702000,6.591701904296875,0.00021784658019896597,0.00875061471015215,0.002686064224690199
1772702170542751000,6.6017509765625,-0.001826395862735808,0.007084807381033897,-0.005567338317632675
1772702170552800800,6.61180078125,-0.002508697798475623,0.006988667417317629,-0.0003632551815826446
1772702170562850000,6.62185009765625,-0.003734018187969923,0.009702960960566998,0.00040666470886208117
1772702170572900000,6.631900146484375,0.0014828480780124664,0.007792941760271788,-0.0023441144730895758
1772702170582948900,6.641948974609375,-0.002924417145550251,0.00933144986629486,-0.0012072109384462237
1772702170592999000,6.6519990234375,-0.0033838124945759773,0.007749798707664013,-0.002448510378599167
1772702170603048000,6.6620478515625,-0.002086054068058729,0.00791171845048666,0.00009800432599149644
1772702170613098000,6.672097900390625,-0.003638144349679351,0.00842810608446598,-0.0003406183095648885
1772702170623147000,6.68214697265625,-0.00041039311327040195,0.008275240659713745,-0.002317482838407159
1772702170633197000,6.692197021484375,-0.001568069215863943,0.006197974551469088,-0.0014799186028540134
1772702170643245800,6.702245849609375,-0.001243962557055056,0.004235757514834404,-0.00043595946044661105
1772702170653295900,6.7122958984375,0.001520132296718657,0.006479204632341862,-0.0016080166678875685
1772702170663345000,6.722344970703125,-0.0010303769959136844,0.008040349930524826,-0.0010271812789142132
1772702170673395000,6.73239501953125,-0.0041151163168251514,0.007830492220818996,-0.0019094864837825298
1772702170683444000,6.74244384765625,-0.0018032263033092022,0.007131678983569145,0.0006982808117754757
1772702170693493800,6.75249365234375,-0.00028868665685877204,0.005104214418679476,0.000003728425554072601
1772702170703543000,6.76254296875,-0.0011803129455074668,0.005067729391157627,0.0021888520568609238
1772702170713593000,6.772593017578125,-0.002549177734181285,0.008478705771267414,-0.0005808354471810162
1772702170723641900,6.782641845703125,-0.0013616742799058557,0.009678459726274014,-0.00035739620216190815
1772702170733692000,6.79269189453125,-0.0016767261549830437,0.006256298162043095,0.001466336427256465
1772702170743741000,6.802740966796875,-0.0018104169284924865,0.003952929750084877,-0.0005824333056807518
1772702170753791000,6.812791015625,0.0010080065112560987,0.005904494319111109,0.001633316627703607
1772702170763840000,6.822840087890625,-0.0009526127250865102,0.006325007416307926,0.0016951019642874599
1772702170773890000,6.83289013671875,-0.0014788532862439752,0.007538610137999058,0.00003009372085216455
1772702170783938800,6.842938720703125,-0.0021901836153119802,0.008696818724274635,-0.002350239548832178
1772702170793988900,6.85298876953125,-0.001580053474754095,0.00595482811331749,-0.0007866977830417454
1772702170804038100,6.8630380859375,0.00105328019708395,0.006196110509335995,-0.0011150655336678028
1772702170814088000,6.873087890625,-0.0018024274613708258,0.007725031115114689,-0.0018972359830513597
1772702170824137000,6.883136962890625,-0.0021078919526189566,0.0070488546043634415,-0.0018522285390645266
1772702170834187000,6.89318701171875,-0.0006980145117267966,0.007291735149919987,0.00025060345069505274
1772702170844235800,6.90323583984375,-0.0003507383225951344,0.009986321441829205,0.0011374361347407103
1772702170854286000,6.9132861328125,-0.00006258428766159341,0.009394832886755466,0.0024053670931607485
1772702170864335000,6.923335205078125,-0.0006431533838622272,0.005928995553404093,-0.002235191175714135
1772702170874385000,6.933385009765625,-0.0006492786924354732,0.01055996585637331,-0.000862864195369184
1772702170884434000,6.943433837890625,-0.0010367685463279486,0.007786550559103489,0.0002133192028850317
1772702170894484000,6.95348388671875,-0.00285011506639421,0.008467254228889942,-0.0035870117135345936
1772702170904533000,6.963532958984375,-0.0016442356863990426,0.006313289515674114,-0.00036671728594228625
1772702170914583000,6.9735830078125,-0.0036487970501184464,0.009671801701188087,-0.0026399914640933275
1772702170924632000,6.983632080078125,-0.0010673949727788568,0.006733536254614592,0.000045806369598722085
1772702170934681900,6.993681884765625,-0.001047154888510704,0.008804144337773323,0.0013334447285160422
1772702170944731000,7.00373095703125,-0.00023169501218944788,0.005979062989354134,0.0011265170760452747
1772702170954781000,7.013781005859375,0.000018908443962573074,0.008477373979985714,-0.0015108112711459398
1772702170964830000,7.023829833984375,-0.001023452845402062,0.00794367678463459,-0.0014050838071852922
1772702170974879000,7.03387890625,-0.002659166231751442,0.007151386234909296,-0.0017496967921033502
1772702170984928800,7.0439287109375,0.0012357067316770554,0.007725563831627369,-0.0012604740913957357
1772702170994978000,7.05397802734375,-0.002281530061736703,0.007711182814091444,-0.001764344167895615
1772702171005028000,7.064028076171875,-0.0013986921403557062,0.0059654805809259415,0.0015161376213654876
1772702171015076900,7.074076904296875,-0.0000857537888805382,0.008655273355543613,0.0012314456980675459
1772702171025127000,7.084126953125,0.0004724447790067643,0.006940730381757021,-0.003227218519896269
1772702171035176000,7.094176025390625,-0.001606152392923832,0.005362274590879679,0.0005083974683657289
1772702171045226000,7.10422607421875,-0.0013251889031380415,0.00851226132363081,-0.002257561543956399
1772702171055275000,7.11427490234375,-0.001142229768447578,0.00484295841306448,0.00333267985843122
1772702171065325000,7.124324951171875,-0.0010008158860728145,0.008588960394263268,0.00020373181905597448
1772702171075373800,7.134373779296875,0.00027297402266412973,0.00746271014213562,-0.0010434264549985528
1772702171085423900,7.144423828125,0.0003145193331874907,0.0059774648398160934,-0.0009651295840740204
1772702171095473200,7.15447314453125,0.0008700547041371465,0.004790227860212326,-0.00023968449386302382
1772702171105523000,7.16452294921875,-0.0013203952694311738,0.005350556690245867,0.0001954760227818042
1772702171115572000,7.174572021484375,0.00018322547839488834,0.0073468624614179134,-0.0012511530658230186
1772702171125622000,7.1846220703125,-0.0007076018955558538,0.007638478651642799,-0.002651176881045103
1772702171135670800,7.1946708984375,-0.00005699164830730297,0.005638711154460907,0.0001536643976578489
1772702171145720800,7.204720947265625,0.0003049319493584335,0.007442736066877842,-0.0017174725653603673
1772702171155770000,7.21477001953125,-0.0014586133183911443,0.007243531756103039,0.0009590042755007744
1772702171165820000,7.22481982421875,-0.0024442493449896574,0.004957740660756826,0.000391218374716118
1772702171175869000,7.234868896484375,-0.0012239888310432434,0.008587629534304142,-0.0017744642682373524
1772702171185919000,7.2449189453125,-0.0031489215325564146,0.0065106297843158245,0.002092179376631975
1772702171195968000,7.254968017578125,-0.0021734058391302824,0.007742607966065407,-0.0003182477375958115
1772702171206018000,7.26501806640625,-0.002026133006438613,0.007297327741980553,-0.0005382248782552779
1772702171216067000,7.275067138671875,-0.0029409287963062525,0.006777212489396334,-0.0026205505710095167
1772702171226116900,7.285116943359375,-0.00011984224693151191,0.006391054019331932,0.0002932140196207911
1772702171236166000,7.295165771484375,-0.0010165285784751177,0.006717024836689234,-0.0013643373968079686
1772702171246216000,7.3052158203125,-0.0038866172544658184,0.00746031291782856,-0.0018671422731131315
1772702171256265000,7.315264892578125,-0.001213336130604148,0.008445949293673038,0.0015531554818153381
1772702171266315000,7.32531494140625,0.00005299690383253619,0.008025702089071274,0.000928111607208848
1772702171276363800,7.33536376953125,0.00003488740912871435,0.004291683901101351,-0.0034964641090482473
1772702171286413800,7.345413818359375,-0.00019121496006846428,0.00686190091073513,-0.0005227785441093147
1772702171296463000,7.355463134765625,-0.00250550196506083,0.007285343483090401,-0.0002996056282427162
1772702171306513200,7.36551318359375,-0.0010551444720476866,0.0075607141479849815,0.0010258496040478349
1772702171316562000,7.37556201171875,-0.0012218583142384887,0.006046973634511232,0.0004117247008252889
1772702171326612000,7.385612060546875,-0.0020961740519851446,0.004806739278137684,-0.0014215953415259719
1772702171336660700,7.39566064453125,-0.0007462177309207618,0.006934871431440115,0.00020000340009573847
1772702171346711000,7.4057109375,-0.00247540813870728,0.01489159744232893,0.003900465788319707
1772702171356760000,7.415760009765625,-0.001692705205641687,0.004489823244512081,-0.001534779672510922
1772702171366809900,7.425809814453125,-0.00250523560680449,0.00999244675040245,0.001998968655243516
1772702171376859000,7.43585888671875,-0.0008934905636124313,0.003611512714996934,-0.0016016251174733043
1772702171386909000,7.445908935546875,-0.0037297571543604136,0.006357764359563589,-0.0004932174342684448
1772702171396958000,7.4559580078125,-0.0022506373934447765,0.006676012184470892,-0.00022024342615623027
1772702171407008000,7.466008056640625,-0.003692206460982561,0.009873935952782631,-0.00021678130724467337
1772702171417057000,7.47605712890625,-0.001300155185163021,0.0067758806981146336,-0.0001549959706608206
1772702171427106800,7.48610693359375,-0.0015358449891209602,0.00854182243347168,0.0000476705827168189
1772702171437155800,7.49615576171875,0.0005030711181461811,0.007416903506964445,-0.000553404854144901
1772702171447205000,7.506205078125,-0.002225337317213416,0.008392686024308205,-0.0009808422764763236
