time,seconds_elapsed,z,y,x
1772701801887879000,0.07287890625,0.04248421998620033,-0.009989479094743728,-0.03589198211431503
1772701801897928000,0.082927978515625,0.03402034302353859,-0.0070996028721332545,-0.08977613251507281
1772701801907977200,0.092977294921875,0.011088380247354507,0.0363083078302443,-0.18089198920130728
1772701801918026000,0.10302587890625,-0.008774842607975005,0.06522212149500846,-0.22269933283925056
1772701801928075000,0.113074951171875,-0.02006722099483013,0.0321612711533904,-0.1541430984854698
1772701801938123000,0.123123046875,-0.01802197890281677,0.036980654133856296,-0.10445523073077201
1772701801948172000,0.133172119140625,-0.02195113504528999,0.04281593615859747,-0.10567629695832728
1772701801958221000,0.143220947265625,-0.009198036456108092,0.057630643452703946,-0.11104571503698825
1772701801968270000,0.15327001953125,0.04031915090680122,0.06566226647794246,-0.0833113204151392
1772701801978318000,0.163318115234375,0.04712064761519432,0.053460225900262594,-0.04282324268221855
1772701801988367000,0.1733671875,0.033870705419778824,0.0592437777377665,-0.03217559193968773
1772701801998416000,0.183415771484375,0.03973462901711464,0.11387231676504016,-0.03596446282863617
1772701802008465200,0.193465087890625,0.06902794351875782,0.08090411314293741,0.0005570493608713149
1772701802018513000,0.203512939453125,0.05715045872032642,0.0189301797889173,0.02239128002822399
1772701802028562200,0.213562255859375,-0.041697453522682185,-0.0740795278199017,0.020485738667845727
1772701802038611000,0.22361083984375,-0.08889291993975638,-0.14339476384744046,-0.03942307884991169
1772701802048660000,0.233659912109375,-0.15658055476546287,-0.21925153047293422,-0.10747253272533416
1772701802058708000,0.2437080078125,-0.156261405813694,-0.2940437366068363,-0.14847265163362025
1772701802068757000,0.253757080078125,-0.1540741249024868,-0.22422084331810474,-0.21490999413728712
1772701802078806000,0.263805908203125,-0.22790274670124053,-0.19173501638546586,-0.2855389431118965
1772701802088855000,0.27385498046875,-0.28294541948735713,-0.23480960348024962,-0.3406207788646221
1772701802098903000,0.283903076171875,-0.34348025994896886,-0.2449991351917386,-0.2815659478276968
1772701802108952000,0.2939521484375,-0.41527240748405453,-0.20596300983279942,-0.1427145264983177
1772701802119000800,0.304000732421875,-0.38162382038235665,-0.21638839612677693,0.004314356067776679
1772701802129050000,0.314050048828125,-0.3075467767804861,-0.22697686402797698,0.08719488385021686
1772701802139097900,0.324097900390625,-0.39587797118425366,-0.271176509629935,0.15401684175729752
1772701802149147100,0.334147216796875,-0.4488233794301748,-0.35651553648039697,0.13878537035584448
1772701802159196000,0.34419580078125,-0.3023351796120405,-0.34256299897357817,0.06348024626374245
1772701802169245000,0.354244873046875,-0.2333247717499733,-0.20223536761179564,-0.09873802212774753
1772701802179293000,0.36429296875,-0.2021270849317312,-0.1658645159393549,-0.21355857952833174
1772701802189342000,0.374342041015625,-0.08616320271492003,-0.10489113793000578,-0.38538229613304137
1772701802199391200,0.38439111328125,-0.017329904985427854,-0.06473945254459977,-0.40804888597130773
1772701802209440000,0.39443994140625,0.04962473939061165,0.035866847673058505,-0.3088438308537006
1772701802219488000,0.404488037109375,0.05334463669657707,0.11426073156073689,-0.245759305909276
1772701802229538000,0.4145380859375,0.1291688162267208,0.09890519538819789,-0.11640694980919361
1772701802239586800,0.4245869140625,0.2564063721299171,0.12736278971806167,0.00398059406876564
1772701802249635800,0.4346357421875,0.3377045991569757,0.20987740679755806,0.03541325868666172
1772701802259684900,0.444684814453125,0.47462826729416846,0.2557387020014226,-0.05146773690879344
1772701802269732900,0.45473291015625,0.6273416252374648,0.2924159892745316,-0.17246844424903393
1772701802279782000,0.464781982421875,0.6960954279899597,0.33827655382603405,-0.3099637747943401
1772701802289831000,0.474830810546875,0.7476987739771604,0.38041312941834327,-0.40518589775562286
1772701802299879700,0.484879638671875,0.806456667894125,0.3857511294454336,-0.47212183743119235
1772701802309928000,0.494927978515625,0.8479963005065917,0.3245435042887926,-0.49089258887469767
1772701802319976700,0.504976806640625,0.7950742731362581,0.25892639212682844,-0.5466302581876517
1772701802330026000,0.51502587890625,0.606578238672018,0.2576451201446354,-0.5085656082093716
1772701802340074800,0.52507470703125,0.5547486827135085,0.22885960903465746,-0.4046861315399408
1772701802350123000,0.535123046875,0.4369236827999353,0.13205796179696916,-0.30471652179062364
1772701802360171800,0.545171875,0.1569791986942291,0.08254384317398071,-0.19700199700295923
1772701802370220800,0.555220703125,-0.2650052736490965,0.10020692563652991,-0.11577800425589084
1772701802380269800,0.565269775390625,-0.699763302847743,0.05847776180133223,-0.1615203492552042
1772701802390317800,0.57531787109375,-1.149544713655114,0.13504720674082635,-0.25276304719150067
1772701802400366800,0.585366943359375,-1.4813000490188597,0.3238718886375427,-0.39222178676426406
1772701802410415900,0.595415771484375,-1.7817232575297355,0.41960795247033233,-0.3895236337214708
1772701802420464600,0.605464599609375,-1.966546156439185,0.37177769528105853,-0.23009704187512398
1772701802430513000,0.615512939453125,-2.0689958925664422,0.31478432681858537,0.08276362340450287
1772701802440561700,0.625561767578125,-2.156470762401819,0.25203444065600633,0.4651443996340036
1772701802450611000,0.63561083984375,-2.2145593787550926,0.13749649958908558,0.7283125209838152
1772701802460659700,0.64565966796875,-2.1690081724137067,0.01369768596291542,0.7979676564902066
1772701802470708000,0.6557080078125,-2.0475468618243933,-0.15083148971945046,0.7887544224649667
1772701802480756700,0.6657568359375,-1.7525708128035067,-0.2594549460455775,0.8615893570512533
1772701802490805800,0.6758056640625,-1.431425718781352,-0.3301407397739589,0.8863251543790102
1772701802500854800,0.685854736328125,-1.0400362911880017,-0.34752383625134825,0.7604933736205101
1772701802510903800,0.69590380859375,-0.6465951917618513,-0.37797245826795695,0.6483090099424124
1772701802520951800,0.705951904296875,-0.1315565881460905,-0.32568346810415383,0.6167658706873655
1772701802531000800,0.716000732421875,0.40707156537175176,-0.3765598149910569,0.6139817929267883
1772701802541049900,0.7260498046875,0.9259528158903121,-0.3538078849568963,0.5853957499116659
1772701802551099000,0.736098876953125,1.5172452226251363,-0.25955621446296573,0.5658434927016497
1772701802561146600,0.746146728515625,1.8631886578172445,-0.15865414616912601,0.37642742078304287
1772701802571196000,0.75619580078125,1.9164508769273756,-0.2795648371383548,0.045616088271141046
1772701802581245000,0.766244873046875,1.9689929650694131,-0.5038980547897517,-0.07398936531841754
1772701802591293700,0.776293701171875,1.9695085133761165,-0.7670845885790885,-0.14245149164795876
1772701802601342000,0.786342041015625,2.076108354920149,-1.0205588527798652,-0.010104629907011985
1772701802611390700,0.796390625,2.2819576752454043,-0.9653598203882574,0.17224924854040144
1772701802621440000,0.80643994140625,2.273104506704211,-0.7879206019893288,0.09125555741786956
1772701802631488800,0.81648876953125,2.1820395034223794,-0.672901599407196,0.02310673482120037
1772701802641537000,0.826537109375,2.170454864090681,-0.6696703624010085,-0.13344985454678535
1772701802651585800,0.836585693359375,2.2485703694283963,-0.8823587349660694,-0.2982750905662775
1772701802661634800,0.846634765625,2.9275924975425003,-1.265088763024658,-0.41357261782884597
1772701802671683800,0.856683837890625,3.42872006470561,-1.5197126356519757,-0.5251262823879719
1772701802681731800,0.86673193359375,3.5394372784405945,-1.4236035007230936,-0.6915244668126106
1772701802691780900,0.87678076171875,3.5043712257564064,-1.2235483997598289,-1.0968372058182954
1772701802701830000,0.886829833984375,3.390336265775561,-1.0531412719547748,-1.3613970737874508
1772701802711878700,0.896878662109375,3.1402012290000916,-0.9140899441391229,-1.3563900592803955
1772701802721928000,0.906927978515625,3.040281888133287,-0.7543835124380887,-1.2497884641706942
1772701802731975700,0.9169755859375,3.247856132555008,-0.7092005548872053,-1.0712871694982051
1772701802742025000,0.92702490234375,3.703704296055436,-0.6761335670657456,-0.9435019165843724
1772701802752073700,0.93707373046875,3.9664842948704955,-0.6696162941262126,-0.7814157501399517
1772701802762122800,0.947122802734375,3.8485558345824478,-0.6838952871084213,-0.48428223082423205
1772701802772170800,0.957170654296875,3.49142231233418,-0.8297729538127779,-0.13883856184780596
1772701802782219800,0.9672197265625,3.145278386133909,-1.0229457479164004,0.16464228066802025
1772701802792268800,0.977268798828125,2.746764221227169,-0.8365351414240896,0.30585341686606404
1772701802802317800,0.98731787109375,2.2867829034447666,-0.45907165559157725,0.013816343906521797
1772701802812365800,0.99736572265625,1.7231904045403004,-0.03134469407349825,-0.1935714380323887
1772701802822414800,1.007414794921875,1.1427180825054646,0.43470732192471623,-0.202159233635664
1772701802832463600,1.017463623046875,0.34023090276420115,1.0578170086808503,0.06288111132681369
1772701802842513000,1.027512939453125,-0.7589595881819725,1.7357158318534494,0.43113633157014847
1772701802852560600,1.037560546875,-2.3434902945727107,2.028517605575174,1.5545710369348524
1772701802862610000,1.04760986328125,-5.092213833174109,1.9873361387506125,3.0698849992364643
1772701802872658700,1.05765869140625,-8.42686152947545,1.8572925855159759,4.789100654926896
1772701802882707700,1.067707763671875,-10.224756169605255,1.2773166686959565,6.2274517890572545
1772701802892757000,1.077757080078125,-11.417344490695,1.27543596951589,6.927188788419961
1772701802902804700,1.0878046875,-13.92217510178089,2.860102431115508,7.439368495473265
1772701802912854000,1.09785400390625,-16.21110203151703,4.554868997465074,6.553829523035883
1772701802922902800,1.10790283203125,-16.994652455598114,4.959233349704742,5.412394466078281
1772701802932951800,1.117951904296875,-16.524336790806053,4.504057970899344,4.8369174681127065
1772701802942999800,1.127999755859375,-14.959886164891719,3.4478099651008844,4.6239217831641435
1772701802953048800,1.138048828125,-13.02633802269101,1.9529159827545284,5.200733244603872
1772701802963097900,1.148097900390625,-11.089404329705237,1.0068408546812833,6.28551644001305
1772701802973147000,1.15814697265625,-9.521794947499036,1.2519656620793045,7.553358447268605
1772701802983195000,1.16819482421875,-8.372842354518175,1.6029808475777505,8.26557557349801
1772701802993244000,1.178243896484375,-7.509077991515397,2.0423048695176838,8.041163007000089
1772701803003292700,1.188292724609375,-6.7233566531360145,1.9763703619696198,7.010647408351302
1772701803013342000,1.198342041015625,-6.12822276854217,1.7149369554579257,6.030353345942497
1772701803023389700,1.2083896484375,-5.1718397430747745,1.1272875814005732,4.795719780805706
1772701803033439000,1.21843896484375,-3.2773072679668664,0.11216960450038313,2.9926556290835142
1772701803043487700,1.22848779296875,-1.0091384640991687,-1.337939771962911,1.1655050838530063
1772701803053536800,1.238536865234375,1.637033047044277,-2.166569839350879,-0.567566078710556
1772701803063584800,1.248584716796875,4.15883174406588,-2.3661972164213654,-2.01922326913774
1772701803073633800,1.2586337890625,5.945902792364358,-2.366016745287925,-2.949682164275646
1772701803083682800,1.268682861328125,7.79630269575715,-2.3397915861852465,-3.76292922296226
1772701803093731800,1.27873193359375,10.341051475733519,-2.1102685448057947,-4.898692079502344
1772701803103780900,1.28878076171875,12.880730112838744,-2.0960101562201974,-5.824073232984542
1772701803113828900,1.298828857421875,13.953150085759162,-2.204363417302817,-6.029810909628868
1772701803123878000,1.3088779296875,13.980645995450018,-2.496184947815537,-5.893545413139462
1772701803133927000,1.318927001953125,14.337373859506844,-2.7915421051084994,-6.394591147238016
1772701803143975700,1.3289755859375,14.757328287327288,-2.762179817023873,-6.419307070821524
1772701803154024000,1.33902392578125,14.125169032675027,-2.423350451620668,-6.0852878821790215
1772701803164072700,1.34907275390625,13.790702100265026,-2.4847844328790902,-6.356469798636436
1772701803174122000,1.3591220703125,13.532002064239977,-2.170756038994342,-6.661737524569034
1772701803184171000,1.3691708984375,13.490346696293352,-1.6480949776761233,-7.252457684373855
1772701803194218800,1.37921875,12.754734081429243,-1.1710660789810121,-7.037921199724078
1772701803204267800,1.389267822265625,11.124287427037954,-0.8958407323516905,-6.774337483310699
1772701803214316800,1.39931689453125,9.761593883699177,-0.8252645364776253,-6.686051297092438
1772701803224365000,1.409364990234375,9.095919897457957,-0.8297337908461689,-6.510095010727643
1772701803234413000,1.4194130859375,8.55678087180853,-0.9928547071658075,-6.342040291267633
1772701803244462000,1.429462158203125,8.177458314105868,-1.129001253450662,-5.728121042183041
1772701803254511000,1.439510986328125,7.7600103161484,-1.190149257374555,-5.291081039527058
1772701803264559900,1.449559814453125,6.902601459652185,-1.2541674099072813,-5.221483771687746
1772701803274608000,1.459608154296875,6.098107031741738,-1.1653360839616507,-5.070290755179524
1772701803284657000,1.469656982421875,5.295070985946059,-0.898007701127231,-4.723749938616156
1772701803294706200,1.4797060546875,5.07525860671997,-0.5571527481805533,-4.143869152733683
1772701803304755200,1.489755126953125,5.122342429456115,-0.2274543453466147,-2.978610737118125
1772701803314804000,1.499803955078125,4.189162000399827,0.0339860023625195,-1.2373130134791135
1772701803324852000,1.50985205078125,2.1494202593684197,0.18031155896484852,0.22722470130920408
1772701803334901000,1.51990087890625,-0.28436054698228835,0.046532910855114455,1.740804387164116
1772701803344950300,1.5299501953125,-3.335969300293922,-0.3241283476166427,3.0398171932309865
1772701803354999000,1.5399990234375,-6.486857927525043,-0.5175909184470773,4.4250674362927676
1772701803365047000,1.550047119140625,-9.402582292619346,-0.8607397544845938,6.742468765363097
1772701803375096000,1.560095947265625,-12.623399027079342,-0.9104822750359773,10.792207682025431
1772701803385145000,1.57014501953125,-16.906756730002165,0.8637280495803803,14.467571434259414
1772701803395194000,1.580194091796875,-21.110994718980788,3.922930107565224,19.482382294279336
1772701803405242000,1.5902421875,-20.70594910647869,4.57520392948538,19.91124951187372
1772701803415291100,1.600291015625,-18.318602719044684,2.298714748778939,14.778724126577377
1772701803425340200,1.610340087890625,-18.019472472953794,0.471369996150583,10.027896211421488
1772701803435389000,1.620388916015625,-16.151256342363357,0.34665048748292027,4.516833281320333
1772701803445437200,1.630437255859375,-13.036315811347961,0.42467246931828556,0.34639643965661526
1772701803455486000,1.64048583984375,-9.195307323405146,0.011075593831017612,-2.823626511633396
1772701803465535200,1.65053515625,-6.101146545568108,0.2365896918300539,-3.57217634948194
1772701803475584000,1.660583984375,-4.253495064100623,1.2500824786812066,-3.8271588262885805
1772701803485633000,1.670633056640625,-2.649731249451637,1.306924455974251,-3.485618009969592
1772701803495681000,1.680680908203125,-0.5102385098576545,0.66730377940014,-3.0038223352640867
1772701803505730000,1.69072998046875,1.7704209422707557,0.32299050269313156,-2.874412111496925
1772701803515779000,1.700779052734375,3.646521688631177,0.4160642885141074,-2.5980776345819234
1772701803525828000,1.710828125,5.721575566062331,0.6443418598771095,-3.9553731182694434
1772701803535876000,1.7208759765625,8.159813936343788,-0.03726955407783389,-5.10239503544867
1772701803545925000,1.730925048828125,9.129703509116172,-0.5294805686073377,-5.451570292168856
1772701803555974000,1.740973876953125,7.6351202001541845,0.19435279766842722,-4.422886000600457
1772701803566023200,1.751023193359375,6.195636262601614,1.2427999204576015,-3.394249639827013
1772701803576071000,1.76107080078125,6.7086331312567,1.6930942492231726,-2.690983297294378
1772701803586120200,1.7711201171875,7.181445873561501,1.36024205853343,-2.473015084630251
1772701803596169000,1.7811689453125,6.862218011337518,0.6213554634999483,-2.8139333851367234
1772701803606218000,1.791218017578125,6.692814215356111,0.2494507077731192,-3.583472235000133
1772701803616266000,1.801265869140625,6.43425329554081,0.16048198265079408,-4.042799472787976
1772701803626315000,1.81131494140625,6.321779009005427,0.1893630996223539,-3.3241374082028865
1772701803636364000,1.821364013671875,5.870042372477054,0.32882333703245964,-2.029581581544876
1772701803646413000,1.8314130859375,4.944091894674301,0.6720095459382981,-1.2098071669161319
1772701803656462000,1.841462158203125,3.6091964588433503,0.8732783335402607,-0.3117243547260761
1772701803666510000,1.851510009765625,1.9787685091525316,0.9764573337901383,1.1309943269640206
1772701803676559000,1.86155908203125,0.3170265527874231,1.4556332544513046,2.2992338042169806
1772701803686608100,1.871608154296875,-1.8107430157870053,1.8088972417898475,2.621711608147621
1772701803696657200,1.8816572265625,-4.414032832059264,1.820089228542149,2.211046986719966
1772701803706705200,1.891705078125,-5.939179621589184,1.7292364067062735,1.5769178932994603
1772701803716754200,1.901754150390625,-5.803409215140342,1.7810867131918668,0.8395838614702225
1772701803726803000,1.911802978515625,-3.726341075277328,1.7782959134295582,0.5019155026704073
1772701803736852200,1.921852294921875,-1.2242787598609923,1.3679236990772188,0.27332944988012314
1772701803746900000,1.93189990234375,-0.42189562501609323,0.8360711771741509,0.0073942019045352934
1772701803756949200,1.94194921875,-0.9335007470518351,0.8937814617343246,-0.6075713413625955
1772701803766998000,1.951998046875,-1.4551269123643635,1.3501231078401208,-0.7666898901730775
1772701803777047000,1.962047119140625,-1.2833733383864163,1.6994412801623344,-0.6531833379805088
1772701803787095000,1.972094970703125,-0.8934989915311335,1.5531176232561468,-0.6366764398157596
1772701803797144000,1.98214404296875,-0.29899989770948887,1.3135714927732944,-0.6094079091399908
1772701803807193000,1.992193115234375,0.4028939874261617,1.1228459456913173,-0.7128133385568857
1772701803817242000,2.0022421875,1.2055214524209499,0.7762148204959929,-0.8232745317041873
1772701803827291100,2.012291015625,2.1105402013540266,0.408747316564247,-0.9745634098023176
1772701803837339100,2.022339111328125,2.523608961313963,0.20104498878344892,-1.088292664834857
1772701803847388000,2.032387939453125,2.250510397580266,0.2616581551782787,-1.064728249374032
1772701803857437200,2.042437255859375,1.615346700415015,0.3784190329916775,-1.2295470556527375
1772701803867486000,2.05248583984375,0.9021411476701497,0.3860090497292578,-1.687828583779931
1772701803877534200,2.0625341796875,0.3273100463926792,0.38629246978051957,-2.3269167609125376
1772701803887583000,2.0725830078125,-0.15483926405608653,0.2991155599784106,-2.7780846576422453
1772701803897632000,2.082632080078125,-0.25130408055484293,-0.020477701491862534,-3.127786568585038
1772701803907681000,2.092680908203125,-0.14258184002935886,-0.29123160179555413,-3.501222406336665
1772701803917729000,2.10272900390625,-0.15608780281245707,-0.4522317265689373,-3.456391330963373
1772701803927778000,2.112778076171875,-0.04469079011976718,-0.8418933074563741,-3.1833956430822608
1772701803937827000,2.1228271484375,0.04809036943018436,-1.2936957026973366,-3.0277918243944644
1772701803947876000,2.1328759765625,0.027159809604287145,-1.3933634068906307,-2.9059114116102456
1772701803957924000,2.142924072265625,-0.33670155959427356,-1.1016760972168296,-2.6370073769569395
1772701803967973000,2.15297314453125,-1.307346919170022,-0.6933737479411065,-2.4690397512584923
1772701803978022100,2.163022216796875,-2.683976633402705,-0.1521872151773423,-2.048992384457588
1772701803988071200,2.1730712890625,-4.077459282758832,0.45097836550697684,-1.3912749101787805
1772701803998120200,2.1831201171875,-5.382040828868746,0.7204539895031601,-0.051095980986952776
1772701804008168000,2.19316796875,-6.634499973553419,0.4929219758104533,2.2933663734883067
1772701804018217000,2.203217041015625,-8.035605372872949,-0.11729754197336732,4.912576227948069
1772701804028266200,2.213266357421875,-10.364370392000675,-1.006802641562745,7.6421087438672775
1772701804038315000,2.22331494140625,-13.857578418707847,-2.340248097781092,9.668758948135375
1772701804048363300,2.23336328125,-17.76619680006504,-3.59749403835088,10.809067631411551
1772701804058412000,2.243412109375,-20.41728647838831,-4.242735477416217,11.831453699618578
1772701804068461000,2.2534609375,-21.70738240302801,-4.5375218490839,12.75436583263874
1772701804078510000,2.263510009765625,-22.37706679395437,-4.517629400134086,12.623423576998709
1772701804088558000,2.27355810546875,-22.49407872391939,-3.908338395372033,11.938826863622666
1772701804098607000,2.283607177734375,-21.049215431416034,-2.9264041645407675,12.351370722925662
1772701804108656000,2.29365625,-18.894165057206152,-1.7217708931311964,12.865994315999746
1772701804118705200,2.303705078125,-16.78126338741779,-0.43030747953057286,12.622073331433533
1772701804128754200,2.313754150390625,-14.129665175050496,0.8067000481959432,11.016339093494414
1772701804138802200,2.32380224609375,-10.552089596873522,1.2406377739876508,9.056296327599883
1772701804148851200,2.333851318359375,-6.03366816957891,1.1652569543108344,7.004635016193985
1772701804158900000,2.34389990234375,-1.3422867151260376,1.3429241362467408,4.584453111606836
1772701804168949200,2.35394921875,2.87140065472126,1.464549989748001,2.935091036604345
1772701804178997000,2.3639970703125,6.850611160174012,1.597295203156769,1.7387556379407643
1772701804189046300,2.37404638671875,10.3128108851552,1.414273216189444,0.9136845782086253
1772701804199095000,2.384094970703125,13.36659172180891,0.9187574975587427,-0.3294184168487787
1772701804209144000,2.39414404296875,15.848067176270485,0.4397199259223416,-2.027013192361593
1772701804219192000,2.404192138671875,17.476064683943985,0.31694672901686277,-3.893434840750694
1772701804229241000,2.414240966796875,18.361366340494154,0.1474998428124003,-6.073026366499066
1772701804239290000,2.4242900390625,18.933633144241572,0.04637514474382624,-7.945074038076401
1772701804249339100,2.434339111328125,19.572023402237892,0.31432039910126475,-9.137644238987564
1772701804259387100,2.44438720703125,19.912455965054033,0.525897120629996,-9.553501168361306
1772701804269436200,2.454436279296875,19.637417373168468,1.1897400920517742,-9.405383906036615
1772701804279485200,2.464485107421875,18.80658848056197,1.5235241567641495,-9.61351052364409
1772701804289534200,2.4745341796875,17.298588640666008,1.4521727387338876,-9.212683990141748
1772701804299583200,2.484583251953125,15.445782845175266,1.3110600944742559,-8.286307395881414
1772701804309631200,2.49463134765625,14.064810133302212,1.1660870484594255,-7.550829221051931
1772701804319680300,2.50468017578125,13.18829500979781,1.0407025000117718,-7.003033426216244
1772701804329729300,2.514729248046875,12.217498843574523,0.8324718375079333,-6.271199160847067
1772701804339778300,2.5247783203125,10.962845988237857,0.635824353031069,-5.533648271396756
1772701804349826300,2.534826416015625,9.753979317042232,0.2651877175439149,-5.106634572714567
1772701804359875300,2.544875244140625,8.61824802468419,0.046136385818198324,-4.830373161035776
1772701804369924400,2.55492431640625,7.524449748170375,0.0873240997204557,-4.6660669804543256
1772701804379973000,2.56497314453125,6.177454124701023,0.18547844020873308,-4.461723973038793
1772701804390021400,2.575021484375,5.332196893769503,0.4452204230347648,-4.1791450487762685
1772701804400070100,2.585070068359375,4.96354653672874,0.6086505879666656,-4.086646797820926
1772701804410119200,2.595119140625,4.841408349791169,0.5189837610449641,-4.134693328109384
1772701804420168200,2.605168212890625,5.271963666602969,0.4602357309348881,-4.292137806227803
1772701804430216200,2.61521630859375,5.696667919299006,0.3960697674293071,-4.402654528954625
1772701804440265200,2.62526513671875,5.89658843409717,0.19071750990599393,-4.303797264361381
1772701804450314200,2.635314208984375,6.042470484715699,-0.07918101567737758,-3.905309402939677
1772701804460363300,2.64536328125,6.12930471855998,-0.30280593892894686,-3.0905227135956284
1772701804470412300,2.655412353515625,5.731654477006197,-0.4958094408802688,-1.736359682714939
1772701804480460300,2.665460205078125,4.379884478741884,-0.8979509294386953,0.05521101509034633
1772701804490509300,2.67550927734375,2.2980466402590274,-1.220351576479897,1.6751380290329456
1772701804500558000,2.68555810546875,0.08664835588335991,-1.7014815538182855,2.8121628683328628
1772701804510607400,2.695607421875,-2.24612005366683,-2.55828455337584,3.798729435139894
1772701804520655000,2.705655029296875,-4.432617121019959,-2.9403090635135767,4.659693938291072
1772701804530704400,2.715704345703125,-6.403599798601865,-2.75874428961724,5.026572609484195
1772701804540753200,2.725753173828125,-7.770145341193675,-2.36493084974736,6.3094222162574525
1772701804550802200,2.73580224609375,-10.113521653997898,-1.4460592242896555,9.121545337101816
1772701804560850200,2.74585009765625,-15.238853912919758,0.7672159598737954,12.138925073075294
1772701804570899200,2.755899169921875,-20.140587844336032,3.606168050932884,14.67036078249216
1772701804580948200,2.7659482421875,-24.069800100910662,5.878917752850056,18.8141416724205
1772701804590997200,2.775997314453125,-22.543176224565503,5.742239583906531,19.023090712326763
1772701804601046300,2.78604638671875,-18.435533984988925,2.7532290333271026,12.16520985341072
1772701804611094300,2.79609423828125,-16.317957309126854,2.15340114569813,7.249958853295445
1772701804621143000,2.80614306640625,-13.851036449718475,3.0909388931810855,4.156792931714654
1772701804631192300,2.8161923828125,-10.54394253077507,3.9367145950287576,1.4440250881135464
1772701804641241300,2.826241455078125,-7.38844377939999,3.6732553817778824,-0.4718097027420997
1772701804651289300,2.836289306640625,-5.114798589947819,2.430226182609051,-1.5149047969788312
1772701804661338400,2.84633837890625,-3.496392501962185,1.4609554723873734,-2.502584877985716
1772701804671387100,2.85638720703125,-2.3692595266014336,1.2126041772235183,-2.7450544946998354
1772701804681436400,2.8664365234375,-1.1762626247107981,1.0143663548152893,-2.7369237952142953
1772701804691484200,2.876484130859375,0.2561550277173519,0.7629442739039659,-2.86778187970221
1772701804701533400,2.886533447265625,1.837185617032647,0.4635566189859062,-3.0945062302738426
1772701804711582200,2.896582275390625,3.407638698232174,0.06805135357156396,-3.962278075352311
1772701804721631200,2.90663134765625,4.798869769269228,-0.23807269692942498,-5.121740371909738
1772701804731680300,2.91668017578125,5.572393889376521,-0.3884918064557016,-5.82012478761971
1772701804741728300,2.926728271484375,5.790771851885318,-0.5148430079784244,-5.80940114903152
1772701804751777300,2.93677734375,5.903274779993295,-0.6156890352360904,-5.590967072421312
1772701804761826300,2.946826416015625,5.638234435030817,-0.6226507640074939,-4.8289597871065135
1772701804771875000,2.956875,5.527845722597837,-0.6038815469339489,-3.892825184419751
1772701804781923300,2.96692333984375,5.450298372536897,-0.32172742395475507,-3.258620103153586
1772701804791972000,2.97697216796875,5.216739792031049,0.007003010629862546,-2.8171190294355153
1772701804802021400,2.987021484375,5.05614357188344,0.14307240002527832,-2.5473954950928688
1772701804812070100,2.997070068359375,5.261470914161205,-0.1511375599939376,-2.3640935221403834
1772701804822118400,3.007118408203125,5.555538616165518,-0.48007915311120447,-2.7353882562100886
1772701804832167200,3.017167236328125,5.47077008267939,-0.7561592899389564,-3.271076264622807
1772701804842216200,3.02721630859375,5.377154810392856,-0.8598275350105017,-3.4620372278958556
1772701804852265200,3.03726513671875,5.215259782606363,-0.6190962133310735,-3.247172826465964
1772701804862314200,3.047314208984375,4.882202132472395,-0.24863493441082535,-2.6073557505369185
1772701804872362200,3.0573623046875,4.635084982213377,-0.07588562739379703,-1.821722674962878
1772701804882411300,3.067411376953125,4.1300697599619625,-0.01792692103050649,-0.7521224356383085
1772701804892460000,3.0774599609375,3.2406437169581648,-0.027074761669337748,0.17108955711126325
1772701804902509300,3.08750927734375,2.082424698460102,0.13959500623829663,0.7357604989022016
1772701804912557000,3.09755712890625,0.8724328226268291,0.458686163405329,0.7884802816987038
1772701804922606300,3.1076064453125,-0.16242518914043902,0.9555581189505755,0.7515501887083054
1772701804932655400,3.1176552734375,-0.08090250570774078,1.0702094572640954,1.0162123480081557
1772701804942704000,3.1277041015625,0.4919751234143972,0.7889733259126543,0.773149441576004
1772701804952752000,3.137752197265625,0.8131926981508731,0.24365122771412132,0.06220774210989475
1772701804962801200,3.14780126953125,0.8058294759064912,-0.7614148723796009,-0.37059564588963984
1772701804972850400,3.157850341796875,0.8030921598970889,-1.6922044607765971,-0.4986819275766611
1772701804982899200,3.167899169921875,1.0645873795986176,-1.7859683477535844,-0.22713936111330985
1772701804992948200,3.1779482421875,1.299588560128212,-1.5938364410050212,0.013884732967615127
1772701805002996200,3.187996337890625,1.0636977372825145,-1.6281871850267051,0.1029571011275053
1772701805013045200,3.198045166015625,0.7577981431871652,-1.8053445177443324,-0.21975860321223734
1772701805023094300,3.20809423828125,0.397872944393754,-2.06215581741333,-0.9394003264844417
1772701805033143300,3.218143310546875,-0.033735096341371534,-1.9937273010924457,-1.5184388163238762
1772701805043191300,3.22819140625,-0.2701326996654272,-1.0095293631128965,-1.6938269474118948
1772701805053240300,3.238240234375,-0.6038350774437189,0.5503786509357392,-2.1913532752126454
1772701805063289000,3.2482890625,-1.671054559111595,2.0189662256367504,-2.587893509697914
1772701805073338400,3.25833837890625,-3.4268279673486948,2.4260879137605427,-2.12774735674262
1772701805083386000,3.26838623046875,-5.694298852080107,2.7777096868500113,-1.6371382609844207
1772701805093435400,3.278435302734375,-9.239597716030477,4.288200466778874,-0.849198662033677
1772701805103484200,3.288484130859375,-13.192736207115649,6.543872777166962,-0.014909984362125395
1772701805113533200,3.298533203125,-14.842188006228207,7.490780702802539,1.9491876098811625
1772701805123582200,3.308582275390625,-14.769923565006255,4.432353793908655,3.6893209659159183
1772701805133630200,3.318630126953125,-13.795829526281356,1.298378745947033,3.744374160096049
1772701805143679200,3.32867919921875,-13.097562014949322,0.5677907543119043,5.43067363461256
1772701805153728300,3.338728271484375,-13.913234254956244,-0.238229348795861,7.6563301614433525
1772701805163777000,3.348777099609375,-14.90856046680212,-1.013278048121929,9.215419552585482
1772701805173825300,3.3588251953125,-15.822591374230385,-0.6205804605394601,10.28114382725954
1772701805183874000,3.3688740234375,-16.156672522193194,-0.062144394550099964,10.146195258587598
1772701805193923300,3.37892333984375,-15.602801791357994,-0.12228000656105577,10.043675964355469
1772701805203972400,3.388972412109375,-15.204389333260059,-0.11870528987944125,10.805073008817434
1772701805214021000,3.399021240234375,-15.350758290612697,0.20487901398837566,11.185795496445893
1772701805224069000,3.409069091796875,-15.70010715033412,0.331860110912472,10.305399147593974
1772701805234118100,3.4191181640625,-15.02098039280176,0.45299701185300945,8.610332429254054
1772701805244167200,3.429167236328125,-12.984928153938053,0.650806964237988,7.228205871170759
1772701805254216200,3.43921630859375,-9.877732537961005,0.6818827782422304,6.0700488119930025
1772701805264264200,3.44926416015625,-6.127862703058123,-0.03040054509118199,5.276971265631913
1772701805274313200,3.459313232421875,-2.7835259719133374,-0.6693570586681366,4.305291886833309
1772701805284362000,3.469362060546875,0.7109674184292555,-0.778188604786992,3.24917598298192
1772701805294411300,3.479411376953125,4.091456243929267,-1.2660466482713817,2.205904655395448
1772701805304459000,3.489458984375,7.179826747927069,-1.456360545812547,1.3153136602655053
1772701805314508300,3.49950830078125,9.660008070924878,-1.4784556193731724,0.8356126197516918
1772701805324557000,3.50955712890625,11.685637699973583,-1.2312240489542483,-0.05133768078833818
1772701805334606000,3.519606201171875,13.262676589304208,-0.9081577045459299,-1.1332517505019903
1772701805344655000,3.529655029296875,14.355219312798976,-0.6962720266658813,-2.568729959544539
1772701805354703000,3.539703125,14.9216140096426,-0.5620137052804232,-3.9269969186127183
1772701805364752100,3.549752197265625,14.955541998207568,-0.5477132311187685,-5.367910596707463
1772701805374801200,3.55980126953125,14.936485415560007,-0.42356107401028276,-6.625086833041906
1772701805384850000,3.569849853515625,15.398745199668406,-0.22692133444845675,-7.617718398976326
1772701805394898200,3.579898193359375,16.124832445818186,-0.22023111609481275,-8.587210496863722
1772701805404947000,3.589947021484375,16.757161211818456,-0.24843298209793865,-9.294832111996412
1772701805414996200,3.599996337890625,16.88742542206645,-0.04038490961939096,-9.559968318548798
1772701805425045200,3.610045166015625,15.149404528141021,0.31763306731320917,-7.8540803464651106
1772701805435093200,3.62009326171875,12.990599185311794,0.47715610527135427,-6.428088343170285
1772701805445142000,3.63014208984375,11.632892782735825,0.3419602107748389,-5.68819235189855
1772701805455191000,3.64019091796875,10.419467425322532,0.2585986945424229,-5.1742438816070555
1772701805465240300,3.650240234375,9.227519740223885,0.30442499149814245,-4.931566175100207
1772701805475289000,3.6602890625,8.147497475606203,0.4164944966249168,-4.897918757042288
1772701805485337300,3.67033740234375,7.515444603937864,0.4948529438730329,-4.9519981377542015
1772701805495386000,3.68038623046875,7.062708434978127,0.579292318470031,-5.056891175380349
1772701805505435100,3.69043505859375,6.731610102218389,0.5923579170744866,-5.162699574285745
1772701805515484200,3.700484130859375,6.554726764136553,0.527074420781061,-5.229143931052088
1772701805525532200,3.7105322265625,6.42942105307877,0.35303200521357353,-5.213631889143586
1772701805535581200,3.720581298828125,6.267492123022675,-0.00992408570833504,-5.042319629192352
1772701805545630200,3.730630126953125,6.0553381495952605,-0.44404082132875916,-4.929432670202851
1772701805555679000,3.740678955078125,5.786873090881109,-0.7366131702087819,-5.089436769676208
1772701805565728300,3.750728271484375,5.367513706344366,-0.9272587108571082,-5.331409542784095
1772701805575776000,3.76077587890625,5.116297888594866,-1.0952568778242915,-5.2366263957619665
1772701805585825300,3.7708251953125,5.285316484650969,-1.1993863106667995,-4.749719077131152
1772701805595874000,3.7808740234375,5.550479579210281,-1.1138706851404159,-3.8559459448337554
1772701805605923000,3.790923095703125,5.45717585709095,-1.0484081059530377,-2.8076047666370867
1772701805615971000,3.80097119140625,4.823694413924217,-1.3089469017125666,-1.8743056796371935
1772701805626020000,3.81102001953125,3.926400706285238,-1.8243366568535566,-0.9383920262247324
1772701805636069000,3.821069091796875,2.642877145773172,-2.1734584298208355,0.30818624372780323
1772701805646118100,3.8311181640625,0.4326899907529354,-2.2012430933251976,1.3326520408183335
1772701805656166100,3.841166259765625,-2.29662391397953,-1.6716973870597778,2.2409230695456266
1772701805666215200,3.851215087890625,-6.310354528671502,-1.1985169804863631,4.773954523721337
1772701805676264000,3.861263916015625,-12.330423796486853,-0.8079694105446338,9.258366129386424
1772701805686313200,3.871313232421875,-20.820134288585184,0.7701615118063986,14.537788879823683
1772701805696362200,3.8813623046875,-28.358734142661092,4.354566789872944,16.616086853742598
1772701805706410200,3.89141015625,-29.56915038138628,7.066966676944494,19.03693219067454
1772701805716459000,3.901458984375,-23.323657908725735,4.771187104834616,16.70170878918767
1772701805726508000,3.911508056640625,-17.71287203711271,1.8396711502380667,10.08250224635601
1772701805736557300,3.921557373046875,-14.5058681394279,0.6805746182531118,5.742516062760353
1772701805746605000,3.93160498046875,-12.156813780987262,0.1330614397510886,3.1671336595892905
1772701805756654000,3.941654052734375,-10.258004943734408,1.1568974145054816,1.9855530547261238
1772701805766703000,3.951703125,-8.297975037321448,2.3609714445970953,1.7042974880218504
1772701805776752000,3.961752197265625,-5.793057916995883,2.2374342045165596,1.16864981161952
1772701805786801200,3.97180126953125,-3.8306431612730023,1.7855265953354535,0.1936357354402542
1772701805796849200,3.98184912109375,-2.352180966028571,1.0627375139482318,-0.023866028755903244
1772701805806898200,3.991898193359375,-0.7489268544673919,0.34721886195540425,-0.111518008723855
1772701805816947200,4.001947265625,0.6891945625603199,-0.3060239511273801,-1.2267027721375225
1772701805826996000,4.011995849609375,1.8680173931479453,-0.5344421000048518,-2.3527806854873896
1772701805837044200,4.022044189453125,3.204885590356588,-0.5387839286014438,-2.9044881008088588
1772701805847093000,4.032093017578125,4.699799154186248,-0.4577339772470295,-3.7569618389904496
1772701805857142300,4.042142333984375,5.6183875787884,-0.40058176496103404,-3.9889077236026522
1772701805867191000,4.05219091796875,6.016890637779236,-0.4648742774557322,-4.069160825490951
1772701805877240000,4.062239990234375,6.283986161705851,-0.5664914352163672,-4.123293397694826
1772701805887288000,4.0722880859375,6.428577587991953,-0.6152702253021299,-3.556669568270445
1772701805897337000,4.082337158203125,6.726201521173119,-0.744736124779284,-3.0906343572765587
1772701805907386000,4.09238623046875,7.084900393041968,-0.8538809015657752,-2.5354081201791763
1772701805917435100,4.10243505859375,7.28182172602415,-0.8188530620001256,-2.2649667929559945
1772701805927483100,4.112483154296875,7.374519298943877,-0.8552655608572065,-2.6977988225281235
1772701805937532200,4.1225322265625,7.047047924509644,-0.8057314223594964,-2.8334359579861164
1772701805947581000,4.132580810546875,7.367886144539713,-0.4443967586269602,-3.3914415966689586
1772701805957630200,4.142630126953125,7.550381477284431,-0.33375136801917105,-3.932187472993135
1772701805967678000,4.152677978515625,6.9594748549968,-0.41130021591745314,-3.5759289800137277
1772701805977727200,4.162727294921875,5.876065870550274,-0.3082774291425943,-2.6733810051083564
1772701805987776000,4.17277587890625,4.800428104627132,0.010313304221630095,-1.83492351731956
1772701805997825000,4.182824951171875,4.025528019991516,0.38841143469586964,-0.9965221436321735
1772701806007874300,4.192874267578125,3.011669541633129,0.34330936036147175,0.14558862062990666
1772701806017922000,4.202922119140625,1.3386720317602157,0.01381846279837191,1.550017611414194
1772701806027971000,4.21297119140625,-0.9098661889642476,0.18174495276883243,2.3180846351593734
1772701806038020000,4.22302001953125,-2.7652771985173223,0.9531031270138919,1.8538240326225757
1772701806048069000,4.233069091796875,-3.1440310164213177,1.3225792673543095,1.0380968475580215
1772701806058117000,4.2431171875,-2.5853987702727315,1.3012054938055575,0.18197043208777902
1772701806068166100,4.253166259765625,-2.1094640965551137,1.057236724574864,-0.7186638181507587
1772701806078215200,4.263215087890625,-1.4021020091414451,0.9534224220961331,-1.4335504558503627
1772701806088264200,4.27326416015625,-0.1893921065211296,0.7988966079033911,-2.4286773457318542
1772701806098313200,4.283313232421875,0.843836842739582,0.7337422909475863,-3.393909448087215
1772701806108361200,4.293361328125,1.5835305894374847,0.711855161049217,-4.2728041602045295
1772701806118410000,4.303409912109375,1.879340166673064,0.4625593515768647,-4.889622637861967
1772701806128459300,4.313459228515625,2.037660843104124,-0.07569251597449184,-4.957187523090839
1772701806138508000,4.323508056640625,2.2240783177286385,-0.28775530398711563,-5.05498680306375
1772701806148556300,4.333556396484375,2.2981857564687727,-0.09419409508779644,-4.623204574805498
1772701806158605000,4.34360498046875,2.637777192285657,-0.15466799914240836,-3.6702860105782746
1772701806168654000,4.353654052734375,2.777678414928913,-0.009198474847525357,-2.9797938094228504
1772701806178703000,4.363703125,2.7424159628897904,0.20757278311699628,-2.6044372327417133
1772701806188751000,4.373751220703125,2.4730080703675745,0.25489041460901496,-2.2436200535446402
1772701806198800100,4.383800048828125,2.015857007575035,0.06904504078403115,-1.6528823580831289
1772701806208849200,4.39384912109375,1.654385163861513,-0.30743440244719383,-0.9709861358374356
1772701806218898200,4.403898193359375,0.9135714732229709,-0.9505437979198992,-0.2653407892137766
1772701806228948500,4.413948486328125,-0.5751420669227838,-1.5639524671338498,0.7807073096096515
1772701806238996200,4.423996337890625,-2.9086159943938252,-1.9939576027169823,2.6588188112705944
1772701806249045200,4.434045166015625,-6.162215054515004,-1.7592058669038115,5.267845709890127
1772701806259094300,4.44409423828125,-9.939058236539363,-0.7821355157818645,7.826929889211058
1772701806269143300,4.454143310546875,-12.934382208049296,0.39758229088410735,9.161362968227266
1772701806279191300,4.46419140625,-15.41586116964221,1.3296993284925818,9.109591864457727
1772701806289240300,4.474240234375,-16.933890236121414,1.6156174801804124,8.39099877345562
1772701806299289300,4.484289306640625,-17.654887465655804,1.6731217207744717,7.841639967086911
1772701806309338400,4.49433837890625,-18.261033158129454,1.479037364783883,7.999300133782625
1772701806319387400,4.504387451171875,-18.557284049391747,1.0159069353207946,8.551362353891134
1772701806329435400,4.514435302734375,-18.837146115911004,0.8024906138073653,9.300929844349621
1772701806339484400,4.524484375,-18.44418140182495,0.9473870874546467,9.986455947530269
1772701806349533400,4.534533447265625,-17.90687719038725,0.9472754437737166,10.334933869636059
1772701806359582500,4.54458251953125,-17.32508384888172,0.5966627015963196,10.409778390479087
1772701806369630500,4.55463037109375,-15.992587875407933,0.48798079308122394,10.040704255068302
1772701806379679500,4.564679443359375,-13.957094439470767,0.7434970845036208,9.022613838228583
1772701806389728300,4.574728271484375,-11.514008044636249,1.050669255818054,7.137263617485761
1772701806399777500,4.584777587890625,-9.193847187724709,1.0711742837082594,5.234806779119372
1772701806409826300,4.594826416015625,-6.531719398036599,0.6234637608908117,3.862041339099407
1772701806419874300,4.604874267578125,-3.543300968131423,0.06785802295655012,2.852076945570111
1772701806429923300,4.61492333984375,-0.44224633912742134,-0.279536853152886,2.106436857688427
1772701806439972400,4.624972412109375,2.571872933745384,-0.15717077574357388,1.2105991940766572
1772701806450021400,4.635021484375,5.461034286084771,-0.1915976537413895,0.3000298252791166
1772701806460069400,4.6450693359375,7.9243989143162965,-0.20178689319193363,-0.5480366178542375
1772701806470118400,4.655118408203125,10.025465769404173,-0.20534253984689713,-1.3028759112358093
1772701806480167400,4.66516748046875,11.73590424439907,-0.45210649275407194,-2.3125094653755425
1772701806490216200,4.67521630859375,12.997552657711505,-0.7564869144581258,-3.1321985398083925
1772701806500265500,4.685265380859375,13.682434617769717,-1.2590997517429292,-3.963182915237546
1772701806510313200,4.695313232421875,13.847702336859703,-1.6694515078291297,-5.135910351559519
1772701806520362500,4.705362548828125,14.235131628650427,-1.559648486329615,-6.55255058914125
1772701806530411300,4.715411376953125,14.787330626881122,-1.4573381586730478,-8.087880919033289
1772701806540460300,4.725460205078125,14.703494990330933,-1.9710902296096084,-8.754078052365779
1772701806550508300,4.73550830078125,14.235904366588592,-2.2315622437432405,-9.242120512506364
1772701806560557300,4.745557373046875,14.37348912898302,-2.354212325725704,-10.01185576172471
1772701806570606300,4.7556064453125,13.826079703116417,-2.560636084938049,-9.334543360137939
1772701806580655400,4.7656552734375,12.594108635187148,-2.3997945117272437,-8.702655323642492
1772701806590704400,4.775704345703125,11.786280678939818,-2.155747416563332,-8.564335817232728
1772701806600752400,4.78575244140625,10.883161626148222,-1.9446106573544442,-7.9892124550104135
1772701806610801400,4.795801513671875,10.102534980559348,-1.8831135477319358,-7.2619696090847246
1772701806620850400,4.805850341796875,9.610957332029939,-1.9384632406406104,-6.573528495240211
1772701806630899500,4.8158994140625,9.070496117866039,-1.9739007569856941,-6.215170984154939
1772701806640947500,4.825947509765625,8.615816413623094,-1.8755455966956913,-6.028149698418378
1772701806650996500,4.83599658203125,8.438695175132155,-1.6818175067968666,-5.915008472406864
1772701806661045200,4.846045166015625,8.226867364919185,-1.5627154726848005,-5.658028684303164
1772701806671094500,4.856094482421875,7.866861502104997,-1.5015145695298908,-5.4227948640614745
1772701806681142300,4.866142333984375,7.562054379421472,-1.332156658516824,-5.161895272165537
1772701806691191600,4.876191650390625,7.060157581451535,-1.1874570956811308,-4.653659334301948
1772701806701240300,4.886240234375,6.7001014497548335,-1.2532760140255093,-4.270060414454341
1772701806711289300,4.896289306640625,6.457942214164137,-1.4303331012390552,-3.958355933472514
1772701806721338400,4.90633837890625,6.273530234143138,-1.6537702468335627,-3.5869781972944734
1772701806731386400,4.916386474609375,5.867639987510443,-1.885602295807749,-3.2875966067910194
1772701806741435400,4.926435302734375,5.211988798111677,-1.7900464108474552,-3.0848399917840954
1772701806751484400,4.936484375,4.813693244391679,-1.451308523119986,-2.536909756913781
1772701806761533200,4.946533203125,4.482290960249305,-1.0452531490534542,-1.7384499329924583
1772701806771581400,4.95658154296875,2.883683213189244,-0.35847397707179185,-0.898175751170516
1772701806781630200,4.966630126953125,-0.14489420862495897,0.9110052759967744,0.15280278979241846
1772701806791679500,4.976679443359375,-3.7809307435989377,2.741203079968691,2.6973423109322785
1772701806801728300,4.986728271484375,-9.818798702955245,4.482667100085318,4.972406135010719
1772701806811777300,4.99677734375,-19.171431846535206,6.2316942489326,7.644010193574428
1772701806821825300,5.0068251953125,-28.94093898757696,7.161671498033404,11.570561706507206
1772701806831874300,5.016874267578125,-27.430331011009216,9.070561584317684,20.63709476596117
1772701806841923300,5.02692333984375,-21.05456965192556,10.33834513938427,20.45424462842941
1772701806851972400,5.036972412109375,-25.05167763311863,7.272783264043927,15.102548084419965
1772701806862021400,5.047021484375,-26.66134102720022,2.4715406281635164,12.778027278733253
1772701806872069400,5.0570693359375,-21.19642610028982,-2.7690456111401316,7.781565145352483
1772701806882118400,5.067118408203125,-14.764517906570434,-6.1960898515880105,0.061278936827182766
1772701806892167400,5.07716748046875,-8.941643527981638,-4.817867899727821,-5.511173989260197
1772701806902216400,5.087216552734375,-4.839474166858196,-1.1473850514031947,-6.618736587232351
1772701806912264400,5.097264404296875,-2.134930546244979,0.48317149310335517,-4.20993357027173
1772701806922313500,5.1073134765625,-0.1926993313729763,1.0420182587854563,-1.5560522154033183
1772701806932362200,5.1173623046875,0.9759323600679636,1.1663650616832077,0.2823141358464956
1772701806942411500,5.12741162109375,2.257760807099938,0.9771551798611878,0.8287585160732269
1772701806952460300,5.137460205078125,3.5883845569610595,0.6393734238147735,1.0120295093655585
1772701806962508500,5.147508544921875,4.775238718312979,0.3382417747735977,1.5284809023886918
1772701806972557300,5.157557373046875,5.66435964089036,0.11118278542011975,1.186026478356123
1772701806982606300,5.1676064453125,6.2390259069949385,-0.26718086412250996,0.5746762029767036
1772701806992655400,5.1776552734375,6.790772485283017,-0.6722273534074426,0.0400368268340826
1772701807002703400,5.187703369140625,7.212013445782661,-0.9918668651722371,-0.3944266033321619
1772701807012752400,5.19775244140625,7.488142170992493,-1.295016283776611,-0.9291770386338234
1772701807022801400,5.207801513671875,7.428975111752748,-1.6310136406242846,-1.3337304837048054
1772701807032850200,5.21785009765625,7.312941671431064,-1.8228458337739109,-1.4107926805973052
1772701807042899500,5.2278994140625,7.178342646849155,-1.7807913835071025,-1.508016206508875
1772701807052947200,5.237947265625,6.850377351418137,-1.5726294023253022,-1.8276380364865064
1772701807062996500,5.24799658203125,6.038553019011021,-1.3932808431737125,-2.28916424562335
1772701807073045200,5.258045166015625,5.368298134720325,-1.2025308923028408,-2.792460388997197
1772701807083094300,5.26809423828125,5.227765043914318,-0.9626014615908265,-3.209515003722906
1772701807093142300,5.278142333984375,5.014743055480718,-0.7566697236791252,-3.197932702478766
1772701807103191300,5.28819140625,4.871311905145645,-0.5307398844860494,-2.8301392545282837
1772701807113240300,5.298240234375,5.040482476893067,-0.27282193874940275,-2.4878046574831005
1772701807123289300,5.308289306640625,5.12147382992804,-0.19567966235801576,-2.091021846413612
1772701807133338400,5.31833837890625,4.326977064418792,-0.3798087337844074,-1.5220920781344174
1772701807143386400,5.328386474609375,3.107709995239973,-0.13840820760652423,-0.8496797235488891
1772701807153435100,5.33843505859375,2.5649603778779504,0.16406301947534083,-0.3097282124727964
1772701807163484400,5.348484375,2.296060434877872,-0.010320903006196022,-0.030764556097984314
1772701807173533400,5.358533447265625,2.159772142034769,-0.22992358500435947,-0.20341186404526232
1772701807183581400,5.36858154296875,2.0857184793084858,-0.4284675507523119,-0.552914453023672
1772701807193630500,5.37863037109375,1.9481097515165804,-0.5281786556959152,-0.9019868338912725
1772701807203679200,5.38867919921875,1.7506728702276944,-0.5059175779186189,-1.3447370308876037
1772701807213728500,5.398728515625,1.6617010398328302,-0.21586934068873523,-1.9954338127493858
1772701807223777300,5.40877734375,1.8274679406166077,0.14615458394959568,-2.653006910121441
1772701807233824500,5.418824462890625,2.1970061864078043,0.3164601510763168,-2.9814240409731863
1772701807243873300,5.428873291015625,2.494092943972349,0.2768700450964272,-2.907035447204113
1772701807253922600,5.438922607421875,2.117784765654802,0.1795886515177786,-2.3178975881546733
1772701807263971600,5.4489716796875,1.0272469522416592,0.25858020903766155,-1.4421055182278155
1772701807274019600,5.45901953125,-0.3936123643398285,0.8923473372779787,-0.8330395543932915
1772701807284068600,5.469068603515625,-2.0516952136754987,1.7008916251011192,-0.14073942703306674
1772701807294117400,5.479117431640625,-3.4239281542539595,2.039768629038334,0.7466302679628133
1772701807304166700,5.489166748046875,-4.540540320122242,1.9964922357611357,1.6621254027247427
1772701807314215400,5.49921533203125,-5.6756414978832,1.8902992214523255,2.5634289305269715
1772701807324263700,5.509263671875,-7.2852031851559875,2.2137824030332265,3.5775685639142987
1772701807334312400,5.5193125,-9.541469954305887,2.7778438346236944,4.805911504474282
1772701807344361500,5.529361572265625,-12.452528081154822,3.53181803560853,5.667770910638571
1772701807354410500,5.539410400390625,-16.338189949816464,4.199446955309808,6.19581161916852
1772701807364458500,5.54945849609375,-19.738488222157955,4.148997747793794,6.810223035684228
1772701807374507500,5.559507568359375,-20.523152744960782,3.253352391883731,7.376818223536014
1772701807384556500,5.569556640625,-19.601726466584203,1.9657266567498444,7.740400775793194
1772701807394605300,5.579605224609375,-18.398130429267884,0.7766662175253033,7.893815560004114
1772701807404654600,5.589654541015625,-18.06691110047698,-0.020232932950556278,8.610123170417546
1772701807414702300,5.599702392578125,-18.37258331555724,-1.0296584703627973,9.854573780691624
1772701807424751600,5.609751708984375,-18.732037389707564,-2.0480672324366864,10.148618686342239
1772701807434800400,5.61980029296875,-18.41422816210985,-2.7796672506585716,9.221140268319845
1772701807444849400,5.629849365234375,-16.707520105814933,-3.2828032350346446,7.74402831864059
1772701807454898400,5.6398984375,-13.41030694489479,-2.341619970656186,5.528321523416042
1772701807464946400,5.649946533203125,-9.299622268882393,-0.8349444381665438,2.8381109640598297
1772701807474995500,5.659995361328125,-5.412930472651124,0.10316302636261097,0.24900398691892622
1772701807485044500,5.67004443359375,-1.5383990698128938,1.9187930561393498,-2.174781495118141
1772701807495093500,5.680093505859375,1.837915100350976,1.687030419139564,-1.650910765749216
1772701807505141500,5.6901416015625,4.55167838473022,1.8379145158290862,-1.2467577181726692
1772701807515190300,5.700190185546875,6.987846378478407,2.241407345931232,-0.8475549864798784
1772701807525239600,5.710239501953125,9.535709491083026,2.5184336045026776,-1.2314759778887032
1772701807535288600,5.72028857421875,12.004972529703378,2.7860025911599395,-2.222909858471155
1772701807545337300,5.73033740234375,14.320546643346548,2.9239184852048754,-2.916670121511817
1772701807555385600,5.740385498046875,16.99456711540222,3.067255527515709,-3.8626930810064075
1772701807565434400,5.750434326171875,19.02912180918455,2.9698098832860587,-4.65628676019609
1772701807575483600,5.760483642578125,20.29249573111534,2.746452671059966,-5.37651242083609
1772701807585532400,5.770532470703125,20.53491332538128,2.54923907713294,-5.730552068722248
1772701807595580700,5.78058056640625,19.753143354976174,1.9471508433565496,-5.578034525611996
1772701807605629400,5.79062939453125,18.267496801185608,1.2742711635202169,-5.063617853286862
1772701807615678500,5.800678466796875,16.95658020683527,0.9850152457118034,-4.465339240926504
1772701807625727500,5.8107275390625,15.44092429922819,1.1147180957499891,-3.966967109951377
1772701807635776500,5.820776611328125,13.78867965452671,1.0994326291389762,-3.702273386469483
1772701807645824500,5.830824462890625,12.285326763653755,0.9131896342985332,-3.7595758208811283
1772701807655873500,5.84087353515625,11.037158594161271,0.8983577566739172,-3.8332413610726594
1772701807665922300,5.85092236328125,10.04979006332159,1.0059873065918683,-4.013445368009806
1772701807675971600,5.8609716796875,9.046367054259777,1.058550291391462,-4.226392537641525
1772701807686019300,5.871019287109375,7.914956547710299,1.101664479844272,-4.473593274530768
1772701807696068600,5.881068603515625,6.945932067334652,1.0878438250888138,-4.804893267342448
1772701807706117400,5.891117431640625,6.135117204231023,0.9465056284449994,-5.05537784820795
1772701807716166400,5.90116650390625,5.5121904728263615,0.719400754123181,-5.3089492891728876
1772701807726215400,5.91121533203125,5.367552869310975,0.5368330867946147,-5.559851803189516
1772701807736263400,5.921263427734375,5.61601909609139,0.36082116125244645,-5.925871227204799
1772701807746312400,5.9313125,6.013053251573443,0.06943844228209928,-6.216259363913536
1772701807756361500,5.941361572265625,6.140872991278767,0.03949068245971575,-6.071591365259885
1772701807766410500,5.951410400390625,5.551341748997569,0.08578960189586504,-6.055735039958358
1772701807776459500,5.96145947265625,4.7500633605241775,-0.04147560006608255,-6.130548581141233
1772701807786507300,5.97150732421875,3.8345220485329627,-0.28858583652712405,-6.144296535986662
1772701807796556500,5.981556640625,2.988237812641263,-0.8370153992217033,-6.005116028833389
1772701807806605600,5.99160546875,3.0147289292037485,-1.5575864392332732,-5.329142182374
1772701807816654300,6.001654296875,3.0100369719952345,-2.0197782726719975,-4.672887181863189
1772701807826702300,6.011702392578125,2.147604734379053,-2.390736322133243,-2.974233252686262
1772701807836751400,6.02175146484375,0.8007137403279543,-1.9769139673270284,-0.4846066404730081
1772701807846800600,6.031800537109375,-2.529697925838828,-0.8142891150854528,2.6476883454471825
1772701807856849400,6.041849365234375,-7.76187435645461,-0.14991320583075285,6.699673579731583
1772701807866898400,6.0518984375,-14.672808760166168,2.287541174466163,10.407789847010374
1772701807876946400,6.061946533203125,-22.976398130238056,6.399869379901886,13.30674135648012
1772701807886995500,6.071995361328125,-31.812164285731313,10.817324587625265,16.308925276887415
1772701807897044500,6.08204443359375,-27.572542848682403,10.258767160278557,16.50773052392006
1772701807907093500,6.092093505859375,-17.343704378199575,6.941348831197619,14.416582420778274
1772701807917142300,6.102142333984375,-16.279100631988047,5.324413400286436,13.403631704914568
1772701807927190500,6.1121904296875,-15.898496217781304,5.637573340773582,11.456932989239691
1772701807937239300,6.1222392578125,-13.908471570599078,5.156136562508344,9.803715700113774
1772701807947288600,6.13228857421875,-11.588422357368469,4.273431644453108,7.36158850570023
1772701807957337300,6.14233740234375,-8.732774567574262,4.194451631240547,4.783280570471287
1772701807967385600,6.152385498046875,-6.1056958794355385,3.733357676041126,3.4358021319210525
1772701807977434400,6.162434326171875,-3.899305778610706,2.7382398462489244,2.3830460598915812
1772701807987483400,6.1724833984375,-1.6678163078427313,1.807864245480299,0.9964140070825814
1772701807997532400,6.182532470703125,0.2885632593691349,0.880992415048927,0.1933791303306818
1772701808007581400,6.19258154296875,2.0196359415918588,0.18857304522320628,-0.4281710520237684
1772701808017629400,6.20262939453125,3.6525568771421906,-0.3742394092194736,-1.1403864246875046
1772701808027678500,6.212678466796875,4.915048755541443,-0.9123382781662046,-1.9859896925777196
1772701808037727200,6.222727294921875,5.391240034368634,-1.3422814544290302,-2.6998206837445498
1772701808047776500,6.232776611328125,5.483716658014059,-1.634108684030175,-3.1346389186978336
1772701808057825500,6.242825439453125,5.446330053427815,-1.8120833244800567,-3.557081071680784
1772701808067873500,6.25287353515625,5.253581622216105,-1.9256863227844236,-3.570512800183892
1772701808077922600,6.262922607421875,5.207680871784687,-2.2711580488115546,-3.446812770757079
1772701808087971300,6.272971435546875,5.444146864169836,-2.810888318352401,-2.9983950495183467
1772701808098020600,6.2830205078125,5.681397869452834,-3.1993735489368436,-2.607704125583172
1772701808108068400,6.293068359375,5.983706161057949,-3.327442587228119,-2.563521869507432
1772701808118117600,6.30311767578125,6.044736091560125,-3.1720825141683218,-2.442816345721483
1772701808128166400,6.31316650390625,5.658927094447613,-2.7838185251191256,-2.314351293849945
1772701808138215400,6.32321533203125,4.885972883182764,-2.323951773627102,-2.3321108224242924
1772701808148264400,6.333264404296875,4.244317485910654,-1.9272715461492538,-2.4100942258149383
1772701808158312400,6.3433125,3.549506837034225,-1.455042156690359,-2.502399584546685
1772701808168361500,6.353361572265625,2.5606109504967924,-1.1960311550199985,-2.091463744962215
1772701808178410500,6.363410400390625,1.531796310546994,-1.0515361748456955,-1.3954226775079965
1772701808188459500,6.37345947265625,0.4984633163899183,-0.42599867642074823,-0.7581330742299557
1772701808198507500,6.383507568359375,-0.6304430983841419,0.24330285266786814,0.14692717575728892
1772701808208556300,6.393556396484375,-1.6867185767114161,0.4259852324172854,0.9432494031280279
1772701808218605600,6.40360546875,-3.2100235377669333,0.5231999905005097,1.482993408933282
1772701808228654600,6.413654541015625,-4.852343000781536,0.548725769162178,1.7254004818052053
1772701808238703600,6.42370361328125,-5.004920749646425,0.2708522461116314,1.190683364251256
1772701808248751600,6.433751708984375,-3.8800089574664827,-0.11419161184728145,0.17314590511918068
1772701808258800600,6.443800537109375,-2.7641876497149465,-0.48125440743565556,-0.5237614237755537
1772701808268849700,6.453849609375,-1.9563497565954922,-0.8183265539079904,-0.9625438861846923
1772701808278898700,6.463898681640625,-1.4096440950840712,-0.8729735053747892,-1.0973591838657855
1772701808288947700,6.47394775390625,-1.0635025069713593,-0.609836363685131,-0.7901110977709292
1772701808298995700,6.48399560546875,-0.6802993084430694,-0.32979075729250906,-0.4294458942651748
1772701808309044700,6.494044677734375,-0.13327625154554842,0.11263210744559764,-0.1927905167877674
1772701808319093800,6.50409375,0.26173019750118254,0.29303017565011974,-0.10457271963059901
1772701808329142800,6.514142822265625,0.5928676932275295,0.2621615746557712,0.023684826970100402
1772701808339190800,6.524190673828125,0.7247434303253889,0.03799275378584861,0.11699322526454925
1772701808349239800,6.53423974609375,0.824713040074706,-0.15396072765588759,0.01606967579126358
1772701808359288600,6.54428857421875,0.7362742936432362,-0.3414163131564855,-0.19861761550605295
1772701808369337900,6.554337890625,0.6263625510722398,-0.3912678470402956,-0.41214989154934883
1772701808379386600,6.56438671875,0.6646393824964761,-0.312116276653111,-0.5831435870707035
1772701808389435000,6.574434814453125,0.664880205515027,-0.10736907235085963,-0.6013800855070353
1772701808399483600,6.584483642578125,0.4961579620569944,0.12742255708128214,-0.4771019639313221
1772701808409532700,6.59453271484375,0.3754296419173479,0.38025223976820705,-0.26906828530430793
1772701808419581700,6.604581787109375,0.3563105154275894,0.5806216673776508,-0.2025771667867899
1772701808429630700,6.614630615234375,0.1901934860318899,0.7174614566236734,-0.05110474881529808
1772701808439678700,6.6246787109375,0.19945055919885635,0.7725833321258425,0.03625613925158977
1772701808449727700,6.634727783203125,0.3818891933202743,0.646416620324552,0.3549725448220968
1772701808459776500,6.644776611328125,0.26206922019720075,0.40629327447563407,0.7122182952731847
1772701808469825800,6.65482568359375,-0.047587096083164214,0.26770897964984175,0.8733657195627689
1772701808479873500,6.66487353515625,-0.0960334393441677,-0.03341667804196477,0.6958610347121954
1772701808489922800,6.6749228515625,-0.08684300167262554,-0.27349837670624255,0.6517986056238413
1772701808499971600,6.6849716796875,-0.061364861544966696,-0.34789442312940955,0.49126317575275896
1772701808510020600,6.6950205078125,-0.056707975649833674,-0.2500144791357219,0.2953197478920221
1772701808520070000,6.70506982421875,-0.0022439795345067974,-0.1110939380928874,0.14773556953072547
1772701808530117600,6.71511767578125,-0.05992050795555114,-0.06924567792266607,0.06411562155783176
1772701808540166700,6.725166748046875,-0.04735211828351021,-0.2156795172050595,-0.12697101392149923
1772701808550215700,6.735215576171875,0.022212416329979896,-0.5186407197609544,-0.32123803300261494
1772701808560264700,6.7452646484375,0.05931085162460804,-0.8532866619996726,-0.40677521277368067
1772701808570313700,6.755313720703125,0.08450783672332764,-0.8967254062317311,-0.3290671191930771
1772701808580361700,6.76536181640625,0.07376315534710884,-0.9224575211204588,-0.22944997614324092
1772701808590410800,6.77541064453125,-0.23345862726271152,-0.5373788841091096,-0.018599486529827118
1772701808600459800,6.785459716796875,-0.26077216612398624,-0.08283464281409979,0.09002280075252056
1772701808610508800,6.7955087890625,-0.15066753132939337,0.12629106883332133,0.27125498169362544
1772701808620556800,6.805556884765625,-0.1493809986501932,0.16411431127116083,0.16977438285946844
1772701808630605800,6.815605712890625,-0.35899113281369205,0.05586217247545719,0.0653384413510561
1772701808640654800,6.82565478515625,-0.3394540731728077,-0.20871113949716089,0.19445640417337418
1772701808650703600,6.83570361328125,-0.11364099222719669,-0.39377632272988555,0.12472644986510276
1772701808660753000,6.8457529296875,0.07102233220636844,-0.49817047092318534,0.09977437943816185
1772701808670800600,6.855800537109375,0.2807476171821356,-0.4413562584199011,0.07300327689051628
1772701808680849700,6.865849609375,0.22436229761540888,-0.19173706221207976,0.0880249049335718
1772701808690898700,6.875898681640625,0.03383621862828731,0.031821956196427345,0.16850246322751045
1772701808700947700,6.88594775390625,0.14449147304296492,-0.08073913183957337,-0.1854056672334671
1772701808710996700,6.895996826171875,0.20863515165150165,0.1128694233328104,-0.0726280138373375
1772701808721044700,6.906044677734375,0.14647358677089214,0.015148615423589943,-0.005222703084349632
1772701808731093800,6.91609375,0.15588322015106676,0.031122429624944922,-0.015368834045529365
1772701808741142800,6.926142822265625,0.26689152578711506,-0.17085384865924716,-0.2082709945142269
1772701808751191600,6.936191650390625,-0.005370587122440338,-0.049461219391971824,-0.1709451802045107
1772701808761239800,6.94623974609375,-0.07085632798969745,0.1167749063387513,0.09159282654821872
1772701808771288600,6.95628857421875,0.003615852409601211,0.10266644761785865,0.02509878542125225
1772701808781337900,6.966337890625,0.04870002576112747,0.3496493039727211,0.005438976183533668
1772701808791386600,6.97638671875,-0.070706105864048,0.6192746386379003,0.5435533349603414
1772701808801435600,6.986435546875,0.03904138605594635,0.22949615337252616,0.38194823003113265
1772701808811483600,6.996483642578125,0.10600187565088272,-0.22266572283059358,-0.04581950188875198
1772701808821532700,7.00653271484375,0.040511458608508105,-0.3364912778444588,-0.03035772886276245
1772701808831582000,7.01658203125,-0.13033318383097647,-0.2099262143753469,-0.047507016584277154
1772701808841630700,7.026630615234375,-0.3121732675373554,-0.019450404270738363,0.04784370119273662
1772701808851679700,7.0366796875,-0.23290859216451643,0.029643296983093023,-0.06044365504682064
1772701808861727700,7.046727783203125,-0.11671791545450687,0.3248440946705639,0.2905576480567455
1772701808871776800,7.05677685546875,-0.034760347735881804,0.2087448956362903,0.11651333279311656
1772701808881825800,7.06682568359375,-0.03239303408265114,0.42636020320951934,0.24810616129636764
1772701808891874800,7.076874755859375,0.26977263418138026,0.015832067643105983,0.23842823236882685
1772701808901923600,7.086923583984375,0.3313093451619148,0.08963774695768952,0.285651755836606
1772701808911971800,7.096971923828125,0.18377426663935184,-0.07945420659556984,0.34543665471374985
1772701808922020600,7.1070205078125,0.012397709280252456,-0.2165961936585605,0.0872667800426483
1772701808932070000,7.11706982421875,-0.012893968364596366,-0.3951502414315939,-0.0415793801009655
1772701808942118700,7.12711865234375,-0.0038660277783870694,-0.4934386200957,-0.3180167328685522
1772701808952167000,7.1371669921875,0.032414076870679855,-0.49022944879084823,-0.33217560660243034
1772701808962215700,7.147215576171875,0.22000760953724383,-0.6471238918110728,-0.4716156414747238
1772701808972264700,7.1572646484375,0.129272861123085,-0.3749110248707235,-0.29401041885912416
1772701808982313700,7.167313720703125,0.05562485658824443,-0.4533737362109124,-0.14791384870707988
1772701808992362800,7.17736279296875,-0.012487141129374503,-0.2570833946086466,-0.07555354589521884
1772701809002410800,7.18741064453125,-0.03893266498446464,-0.06186711197867989,-0.022301263657212255
1772701809012459800,7.197459716796875,-0.06140285546779632,0.04684051549956202,-0.013534019833803175
1772701809022508500,7.207508544921875,-0.06098258422911167,0.19450886501297354,-0.004544073170423508
1772701809032557800,7.217557861328125,-0.04498948080539703,0.2344280568167567,0.028142390900850293
1772701809042606800,7.22760693359375,-0.15736615218520164,0.1684419652119279,-0.15139467656016348
1772701809052654800,7.23765478515625,-0.13786416385769842,0.08629837340191006,-0.11759762089848518
1772701809062703600,7.24770361328125,-0.06547229686379433,0.00286649534702301,0.004933364748954772
1772701809072752600,7.257752685546875,0.03755085523724556,0.018919512264430522,0.1036018287718296
1772701809082802000,7.267802001953125,0.08094576032757758,0.04352992964684963,0.17069266674816608
1772701809092849700,7.277849609375,0.03891454480588436,0.09630582654476165,0.15286182650327682
1772701809102899000,7.28789892578125,0.06793781019449234,0.09016001726612448,0.05454875178933143
1772701809112947700,7.29794775390625,-0.06469079109728336,0.17892127365022897,0.10519406639933586
1772701809122996700,7.307996826171875,0.1954752258270979,0.046166269499808545,-0.15681319447755812
1772701809133045800,7.318045654296875,0.28505788159668444,0.004862783730775117,-0.12927695277631282
1772701809143093800,7.32809375,0.21308277871012687,0.04726750873997807,-0.037191374275088306
1772701809153142800,7.338142822265625,0.09699906950592994,0.07457754046991467,-0.014316694644093513
1772701809163191800,7.34819189453125,-0.09470423656702041,0.06833207020908594,-0.004693126252293587
1772701809173240600,7.358240478515625,-0.22930969088971614,0.032537264858931304,-0.049964931130409236
1772701809183289900,7.368289794921875,-0.3161982852697372,0.028753070145100354,-0.10509469767808914
1772701809193337600,7.378337646484375,-0.2561258016228676,0.005698211641609668,-0.08331073589324951
1772701809203387000,7.388386962890625,-0.16668226206302642,-0.0044160628765821455,-0.031981530672311784
1772701809213435600,7.398435546875,-0.11473521720468997,0.04344225136339664,0.023861937102675437
1772701809223484700,7.408484619140625,-0.0406599271684885,0.03291764247864484,0.055931146058440205
1772701809233533200,7.418533203125,0.004958499190211295,0.0676831047810614,0.09343114789128303
1772701809243581200,7.428581298828125,0.08396773849725722,0.12276479440331459,0.12911971638798714
1772701809253630200,7.438630126953125,0.14611936650574206,0.13260668172091244,0.12260755801498889
1772701809263679200,7.44867919921875,0.13066402322053908,0.08408931905031204,0.07430325357317924
1772701809273728300,7.458728271484375,0.10412205325365066,0.08047609698921442,0.05711480288505554
1772701809283776300,7.4687763671875,0.0388736282736063,0.07918518039584159,0.017915595918893815
1772701809293825000,7.478824951171875,-0.007429273217916488,0.08206409683302045,-0.027452070549130438
1772701809303874300,7.488874267578125,-0.06723989105820656,0.04404737764969468,-0.05445581280887127
1772701809313923000,7.498923095703125,-0.08634732711017132,-0.037819443045556546,-0.006529109507799148
1772701809323972400,7.508972412109375,-0.10510112741887569,-0.06288783332854508,0.045827100673317904
1772701809334020000,7.51902001953125,-0.061485857576131814,-0.06856178731173276,0.05442600219249725
1772701809344069000,7.529069091796875,-0.04769698619842529,-0.05328808420374989,0.014413725277781486
1772701809354118100,7.5391181640625,-0.0128401923507452,0.009334230056405067,-0.05035948340594768
1772701809364167200,7.549167236328125,0.0318587810754776,0.042956075281649825,-0.03601414718925953
1772701809374216200,7.55921630859375,0.06515431695580481,0.07696443560644983,-0.0698299075514078
1772701809384264200,7.56926416015625,0.02379939326047897,0.08783668888509273,-0.10937632052004337
1772701809394313200,7.579313232421875,-0.004658639460802078,0.06290098507106304,-0.13755845890939236
1772701809404362200,7.5893623046875,-0.08992869272828101,0.09665084059014915,-0.14082944340407846
1772701809414411300,7.599411376953125,-0.10309446377158164,0.08096183467954397,-0.11131225701868533
1772701809424460300,7.609460205078125,-0.0640530777156353,0.032724019602686165,-0.07411620656847953
1772701809434508300,7.61950830078125,-0.2011339822411537,0.04795797522217035,-0.03677168755829334
1772701809444557300,7.629557373046875,-0.31093525017499923,0.07744841973111033,-0.00007715688943862914
1772701809454606300,7.6396064453125,-0.18390461502075195,0.0453666435547173,-0.05332651651799678
1772701809464655000,7.649655029296875,-0.016124620848894117,-0.0038821021303534504,-0.024577391895651817
1772701809474704400,7.659704345703125,0.010588029509782791,-0.035090018081665036,0.015475217029452324
1772701809484752100,7.669752197265625,-0.051070846545696255,-0.03545753621980548,-0.09922668242752551
1772701809494801400,7.679801513671875,-0.0038180969834327697,-0.08102233269512653,-0.02383388005197048
1772701809504850200,7.68985009765625,0.023961890345811844,-0.1361930157750845,0.02803893052637577
1772701809514899200,7.699899169921875,-0.011530278795957565,-0.07548413392081857,0.10464520034492016
1772701809524947200,7.709947265625,0.7494628610402345,-0.14558219088912008,0.015607903498411178
1772701809534996200,7.719996337890625,-0.0301724354237318,-0.13964359462037682,0.0021130466312170026
1772701809545045200,7.730045166015625,-0.3906593597531318,-0.12848039557114244,0.15411094978153705
1772701809555094300,7.74009423828125,-0.5381073445141316,0.08273892735466361,-0.1279880820095539
1772701809565143000,7.75014306640625,-0.43451311452686786,0.2771855407863855,-0.14202829779982565
1772701809575191300,7.76019140625,-0.2816705772459507,0.20071955622136592,-0.03434942884743213
1772701809585240000,7.770239990234375,-0.17513503310978412,-0.036927170380949975,0.18913608593344688
1772701809595289300,7.780289306640625,0.06278583425879478,-0.013524521353095769,0.22538579544425008
1772701809605338400,7.79033837890625,0.05729425110518932,0.08173530327007174,0.07759411181211472
1772701809615387100,7.80038720703125,0.08015256412327289,0.15136545046567915,-0.009134323570132255
