time,seconds_elapsed,z,y,x
1772701801874063000,0.05906298828125,0.0243719182908535,-0.03670208901166916,-0.09683626145124435
1772701801884110800,0.06911083984375,0.026275545358657837,-0.02762017585337162,-0.06359921395778656
1772701801894160100,0.07916015625,0.029167206957936287,-0.020682109519839287,-0.03825204819440842
1772701801904209000,0.089208984375,0.03668797388672829,-0.013034575618803501,-0.02785133756697178
1772701801914258000,0.0992578125,0.035108450800180435,0.0015209312550723553,-0.0308119747787714
1772701801924307200,0.10930712890625,0.037870150059461594,0.017857294529676437,-0.04559598118066788
1772701801934355000,0.11935498046875,0.04252109304070473,0.03684217110276222,-0.07599835842847824
1772701801944404200,0.129404296875,0.04754647985100746,0.0500652976334095,-0.0967225506901741
1772701801954453000,0.139452880859375,0.05467629432678223,0.051662396639585495,-0.11314918845891953
1772701801964502000,0.149501953125,0.0564478300511837,0.05337880179286003,-0.12328438460826874
1772701801974550000,0.159550048828125,0.056659284979104996,0.04802931100130081,-0.1150517538189888
1772701801984599000,0.16959912109375,0.05263631418347359,0.04556402191519737,-0.09443995356559753
1772701801994648000,0.17964794921875,0.051300738006830215,0.03267965093255043,-0.0687423124909401
1772701802004697000,0.189697021484375,0.04591822251677513,0.04030987247824669,-0.05582278594374657
1772701802014745000,0.1997451171875,0.035894885659217834,0.0681108757853508,-0.04418663680553436
1772701802024794000,0.209794189453125,0.024227041751146317,0.10072554647922516,-0.05407468602061272
1772701802034843000,0.2198427734375,0.006343916058540344,0.13616450130939484,-0.07622073590755463
1772701802044892200,0.22989208984375,0.004352936986833811,0.15930204093456268,-0.10536610335111618
1772701802054940000,0.23993994140625,0.010874485597014427,0.19497054815292358,-0.1321260780096054
1772701802064989200,0.2499892578125,0.02792723849415779,0.2134089469909668,-0.14906884729862213
1772701802075038000,0.260037841796875,0.04274453595280647,0.2114483267068863,-0.15582501888275146
1772701802085087000,0.2700869140625,0.05445445328950882,0.17709355056285858,-0.15876807272434235
1772701802095135000,0.280135009765625,0.06215658038854599,0.13989372551441193,-0.13484303653240204
1772701802105184000,0.29018408203125,0.06137068197131157,0.0911480188369751,-0.10131916403770447
1772701802115233000,0.30023291015625,0.058642275631427765,0.031001059338450432,-0.07092130929231644
1772701802125282000,0.310281982421875,0.04857872053980827,0.012911271303892136,-0.04259752854704857
1772701802135330000,0.320330078125,0.025537850335240364,0.04224519059062004,-0.026459304615855217
1772701802145379000,0.330379150390625,0.008469118736684322,0.05235641449689865,-0.018222946673631668
1772701802155427800,0.340427734375,0.0031414648983627558,0.03327992558479309,-0.010822820477187634
1772701802165477000,0.35047705078125,0.02310425415635109,0.0034551850985735655,-0.010203635320067406
1772701802175524900,0.36052490234375,0.05060805007815361,-0.03141811117529869,-0.02197161130607128
1772701802185574100,0.37057421875,0.08198408037424088,-0.059845488518476486,-0.03363092988729477
1772701802195623000,0.380622802734375,0.12208489328622818,-0.08996663987636566,-0.04699147865176201
1772701802205672000,0.390671875,0.14394651353359222,-0.12280528247356415,-0.0586278922855854
1772701802215720000,0.400719970703125,0.14889706671237946,-0.13209810853004456,-0.06497234106063843
1772701802225769700,0.410769775390625,0.14456810057163239,-0.12538960576057434,-0.07950228452682495
1772701802235818800,0.42081884765625,0.13976189494132996,-0.09278400242328644,-0.0883764699101448
1772701802245867800,0.43086767578125,0.135330930352211,-0.07184649258852005,-0.09498430043458939
1772701802255916800,0.440916748046875,0.11258939653635025,-0.08380195498466492,-0.10191944241523743
1772701802265964800,0.45096484375,0.0869751125574112,-0.09763388335704803,-0.10008744895458221
1772701802276013800,0.461013916015625,0.075175441801548,-0.09644398093223572,-0.08863852173089981
1772701802286062800,0.471062744140625,0.06292117387056351,-0.09937931597232819,-0.08894292265176773
1772701802296111900,0.48111181640625,0.05200168117880821,-0.10780129581689835,-0.10469552129507065
1772701802306159600,0.49115966796875,0.04805833846330643,-0.09857690334320068,-0.11352203786373138
1772701802316209000,0.501208984375,0.057022273540496826,-0.03201465681195259,-0.107537642121315
1772701802326258000,0.5112578125,0.06266018748283386,0.01667245291173458,-0.09217919409275055
1772701802336306700,0.521306640625,0.041970085352659225,0.023783626034855843,-0.06964672356843948
1772701802346355000,0.53135498046875,-0.00538491178303957,0.031029820442199707,-0.022710371762514114
1772701802356403700,0.54140380859375,-0.051900748163461685,0.06478618830442429,0.021989189088344574
1772701802366453000,0.551452880859375,-0.11740358918905258,0.08526802808046341,0.06308788806200027
1772701802376501800,0.561501708984375,-0.16860125958919525,0.10565079748630524,0.10431921482086182
1772701802386550000,0.571550048828125,-0.2026284784078598,0.10507821291685104,0.1777058094739914
1772701802396598800,0.581598876953125,-0.22597667574882507,0.03225807100534439,0.252993643283844
1772701802406647800,0.591647705078125,-0.24856454133987427,-0.04915982112288475,0.319902628660202
1772701802416696800,0.60169677734375,-0.26991403102874756,-0.13369335234165192,0.37246519327163696
1772701802426744800,0.611744873046875,-0.26930737495422363,-0.22148658335208893,0.42012298107147217
1772701802436793900,0.6217939453125,-0.27206772565841675,-0.3187923729419708,0.4653940498828888
1772701802446843000,0.6318427734375,-0.2811179459095001,-0.43214982748031616,0.4929974675178528
1772701802456891600,0.6418916015625,-0.31070807576179504,-0.5244911909103394,0.5186160206794739
1772701802466940000,0.65193994140625,-0.3461483418941498,-0.6238105893135071,0.5185781717300415
1772701802476988700,0.66198876953125,-0.359844446182251,-0.7227044105529785,0.4889694154262543
1772701802487038000,0.672037841796875,-0.36054328083992004,-0.8060349822044373,0.43791690468788147
1772701802497086700,0.682086669921875,-0.3544086813926697,-0.8360685110092163,0.39269882440567017
1772701802507135700,0.6921357421875,-0.32153648138046265,-0.8615046143531799,0.34118688106536865
1772701802517183700,0.702183837890625,-0.2785504162311554,-0.8527700304985046,0.27671122550964355
1772701802527232800,0.712232666015625,-0.22520941495895386,-0.8407668471336365,0.20789460837841034
1772701802537281800,0.72228173828125,-0.12341354787349701,-0.8365715742111206,0.10377006977796555
1772701802547330800,0.732330810546875,-0.013441773131489754,-0.9048193693161011,0.005649896338582039
1772701802557378800,0.74237890625,0.07472030818462372,-0.8858909606933594,-0.07478635758161545
1772701802567427800,0.752427734375,0.13200223445892334,-0.858958899974823,-0.16146638989448547
1772701802577476900,0.762476806640625,0.1303284466266632,-0.7894773483276367,-0.24488325417041779
1772701802587526000,0.77252587890625,0.09869222342967987,-0.6838933825492859,-0.3149526119232178
1772701802597573600,0.78257373046875,0.08030123263597488,-0.5638516545295715,-0.38647979497909546
1772701802607623000,0.792622802734375,0.08304242044687271,-0.4597122073173523,-0.4263174831867218
1772701802617671700,0.802671630859375,0.094844751060009,-0.3820379078388214,-0.45109501481056213
1772701802627721000,0.812720947265625,0.1191713958978653,-0.26890844106674194,-0.460520476102829
1772701802637768700,0.822768798828125,0.14350444078445435,-0.15645112097263336,-0.4128413796424866
1772701802647817700,0.832817626953125,0.11538997292518616,-0.21393412351608276,-0.4336009621620178
1772701802657867000,0.842866943359375,0.047024499624967575,-0.4005410373210907,-0.4971535801887512
1772701802667915800,0.852915771484375,0.005359877832233906,-0.48976969718933105,-0.5159533619880676
1772701802677963800,0.8629638671875,0.003070624778047204,-0.48677897453308105,-0.5027070641517639
1772701802688012800,0.8730126953125,0.004492486361414194,-0.43255409598350525,-0.48999714851379395
1772701802698061800,0.883061767578125,0.011921640485525131,-0.2955019474029541,-0.471988320350647
1772701802708110800,0.89311083984375,0.03218776360154152,-0.07249763607978821,-0.42961129546165466
1772701802718160000,0.903159912109375,0.082935631275177,0.14342214167118073,-0.36331215500831604
1772701802728208000,0.913207763671875,0.12650547921657562,0.24649499356746674,-0.3046475052833557
1772701802738257000,0.9232568359375,0.15984825789928436,0.24433811008930206,-0.24343661963939667
1772701802748306000,0.933305908203125,0.18290697038173676,0.2379361242055893,-0.17969173192977905
1772701802758355000,0.94335498046875,0.19414471089839935,0.3035452365875244,-0.12165772169828415
1772701802768402700,0.953402587890625,0.20307216048240662,0.40228939056396484,-0.09126413613557816
1772701802778452000,0.963451904296875,0.2001807689666748,0.466645210981369,-0.06940863281488419
1772701802788500700,0.973500732421875,0.20814387500286102,0.5336295962333679,-0.056663546711206436
1772701802798550000,0.983550048828125,0.2379121631383896,0.615664005279541,-0.026754649356007576
1772701802808597800,0.99359765625,0.2731849253177643,0.6614711284637451,0.004041879437863827
1772701802818646800,1.003646728515625,0.31781259179115295,0.5692200660705566,0.032760076224803925
1772701802828695800,1.01369580078125,0.3308953642845154,0.34679603576660156,0.013701165094971657
1772701802838744800,1.023744873046875,0.3816927671432495,0.08697910606861115,-0.11812131106853485
1772701802848792800,1.033792724609375,0.4711616635322571,-0.027637753635644913,-0.2771836817264557
1772701802858841900,1.043841796875,0.4624089300632477,0.11779427528381348,-0.3369665741920471
1772701802868891000,1.053890869140625,0.2717097997665405,0.013765080831944942,-0.44415587186813354
1772701802878940000,1.06393994140625,0.0672655925154686,-0.44119951128959656,-0.6959407329559326
1772701802888988700,1.07398876953125,0.01182177197188139,-0.7569507956504822,-0.8548992276191711
1772701802899037000,1.084036865234375,0.039210252463817596,-0.7696412801742554,-0.7844423651695251
1772701802909085700,1.094085693359375,0.1357000470161438,-0.7135061025619507,-0.5627869367599487
1772701802919135000,1.104135009765625,0.21542389690876007,-0.596618115901947,-0.2890869379043579
1772701802929184000,1.11418408203125,0.19749337434768677,-0.5882858633995056,-0.09214324504137039
1772701802939232000,1.12423193359375,0.11868936568498611,-0.647350013256073,-0.019753731787204742
1772701802949280800,1.13428076171875,0.06218081712722778,-0.60841965675354,-0.07480819523334503
1772701802959329800,1.144329833984375,0.07201533764600754,-0.5305666923522949,-0.19305068254470825
1772701802969379000,1.154379150390625,0.10820529609918594,-0.49940741062164307,-0.34013253450393677
1772701802979426800,1.1644267578125,0.1710127592086792,-0.5504136085510254,-0.4470302164554596
1772701802989475800,1.174475830078125,0.2624707818031311,-0.6424460411071777,-0.4866274297237396
1772701802999524900,1.18452490234375,0.3501470983028412,-0.6821796298027039,-0.3994126319885254
1772701803009574000,1.194573974609375,0.3845745623111725,-0.6901941299438477,-0.21271705627441406
1772701803019622000,1.204621826171875,0.3545040190219879,-0.7415252327919006,0.01998595893383026
1772701803029671000,1.2146708984375,0.21441669762134552,-0.6359027028083801,0.22063197195529938
1772701803039720000,1.224719970703125,0.040520794689655304,-0.5073026418685913,0.3391208052635193
1772701803049769000,1.23476904296875,-0.14854153990745544,-0.3495015501976013,0.4129771888256073
1772701803059817000,1.24481689453125,-0.29213863611221313,0.0023302659392356873,0.4487868547439575
1772701803069866000,1.254865966796875,-0.3807161748409271,0.41866225004196167,0.46736612915992737
1772701803079914800,1.264914794921875,-0.4543352723121643,0.5687279105186462,0.4265851378440857
1772701803089964000,1.274964111328125,-0.49477270245552063,0.33168473839759827,0.3697602152824402
1772701803100012800,1.2850126953125,-0.5239253044128418,0.06257789582014084,0.3319036364555359
1772701803110061000,1.29506103515625,-0.5003597736358643,-0.08191537111997604,0.3189516067504883
1772701803120109800,1.30510986328125,-0.5025486350059509,-0.14799851179122925,0.31861525774002075
1772701803130158800,1.315158935546875,-0.46219879388809204,-0.10022380948066711,0.3236113488674164
1772701803140207900,1.325207763671875,-0.3888191282749176,0.2347152978181839,0.348970502614975
1772701803150255900,1.335255859375,-0.30793440341949463,0.73342365026474,0.3669164776802063
1772701803160305000,1.345304931640625,-0.17613454163074493,1.1129331588745117,0.3718539774417877
1772701803170354000,1.35535400390625,-0.016627978533506393,1.1910234689712524,0.38402676582336426
1772701803180402700,1.365402587890625,0.18754538893699646,1.2715630531311035,0.36977726221084595
1772701803190451000,1.375450927734375,0.3851218521595001,1.4997671842575073,0.3254590630531311
1772701803200499700,1.385499755859375,0.5677909851074219,1.7397443056106567,0.2810817360877991
1772701803210549000,1.395549072265625,0.7237645983695984,1.8718680143356323,0.24939784407615662
1772701803220597000,1.405596923828125,0.8314351439476013,1.8644497394561768,0.2549055218696594
1772701803230645200,1.415645263671875,0.9177764654159546,1.6985864639282227,0.2697089612483978
1772701803240694000,1.425694091796875,0.9592437148094177,1.492845892906189,0.25684139132499695
1772701803250743000,1.435742919921875,0.9705355167388916,1.3630681037902832,0.217389315366745
1772701803260792000,1.4457919921875,0.9565334320068359,1.3804452419281006,0.13471759855747223
1772701803270840000,1.455840087890625,0.938454270362854,1.3554035425186157,0.02298228070139885
1772701803280889000,1.46588916015625,0.9168174266815186,1.0261156558990479,-0.09804373979568481
1772701803290938000,1.475938232421875,0.902808427810669,0.19676072895526886,-0.22672902047634125
1772701803300987000,1.48598681640625,0.9113912582397461,-0.906849205493927,-0.3011435866355896
1772701803311036200,1.4960361328125,0.9187146425247192,-1.8885884284973145,-0.3233029544353485
1772701803321084000,1.506083984375,0.9314155578613281,-2.4668078422546387,-0.31128305196762085
1772701803331133200,1.51613330078125,0.9019455313682556,-2.3813812732696533,-0.27858370542526245
1772701803341182000,1.526181884765625,0.8625925183296204,-1.8584169149398804,-0.27749019861221313
1772701803351231000,1.53623095703125,0.8843771815299988,-1.271022915840149,-0.3592875897884369
1772701803361279000,1.546279052734375,1.0402019023895264,-0.6251360774040222,-0.5227755904197693
1772701803371328000,1.556327880859375,1.2016617059707642,0.4462914764881134,-0.6494488716125488
1772701803381377000,1.566376953125,1.5781556367874146,1.168798565864563,-0.612532377243042
1772701803391426000,1.576426025390625,1.6034029722213745,1.0624576807022095,-0.7742200493812561
1772701803401474000,1.58647412109375,1.3323765993118286,0.7963101863861084,-1.0507662296295166
1772701803411523000,1.596523193359375,0.9736847281455994,0.5726821422576904,-1.0762585401535034
1772701803421572000,1.606572021484375,0.7147953510284424,0.7243808507919312,-0.8446542620658875
1772701803431621000,1.61662109375,0.565468430519104,0.6246502995491028,-0.5531638264656067
1772701803441668900,1.6266689453125,0.531538188457489,0.25838735699653625,-0.2563367187976837
1772701803451718100,1.63671826171875,0.4795657992362976,-0.2907111942768097,0.057310428470373154
1772701803461767200,1.64676708984375,0.35433438420295715,-0.6465883255004883,0.48182788491249084
1772701803471816000,1.65681591796875,0.2765951156616211,-0.6149380207061768,0.8994362950325012
1772701803481865200,1.666865234375,0.25459420680999756,-0.24950917065143585,1.2366868257522583
1772701803491913000,1.676912841796875,0.31109023094177246,0.15224599838256836,1.4964475631713867
1772701803501962200,1.686962158203125,0.41810110211372375,0.4823831617832184,1.6235958337783813
1772701803512011000,1.697010986328125,0.4158981442451477,0.4384410083293915,1.510201096534729
1772701803522060000,1.70706005859375,0.3540526032447815,-0.3332054018974304,1.2379275560379028
1772701803532108000,1.71710791015625,0.2347342073917389,-1.0771746635437012,0.9064340591430664
1772701803542157000,1.727156982421875,0.11503231525421143,-1.0530133247375488,0.700402021408081
1772701803552206000,1.7372060546875,-0.045168545097112656,-0.6576290130615234,0.4928049147129059
1772701803562255000,1.747255126953125,-0.12396775186061859,-0.46498286724090576,0.23218636214733124
1772701803572303000,1.75730322265625,-0.16390052437782288,-0.1486821472644806,0.04018044099211693
1772701803582352100,1.76735205078125,-0.22064049541950226,0.5261260867118835,-0.09490227699279785
1772701803592401200,1.777401123046875,-0.2828298509120941,1.391777515411377,-0.24807025492191315
1772701803602450200,1.7874501953125,-0.34280502796173096,2.0602481365203857,-0.39951837062835693
1772701803612498000,1.797497802734375,-0.34370625019073486,2.3106675148010254,-0.5277168154716492
1772701803622547200,1.807547119140625,-0.25542083382606506,2.029785633087158,-0.5842298865318298
1772701803632596000,1.817595947265625,-0.15671983361244202,1.2671514749526978,-0.5810918807983398
1772701803642645200,1.827645263671875,-0.11603233218193054,0.2679097354412079,-0.5450625419616699
1772701803652694000,1.837694091796875,-0.09171793609857559,-0.7525757551193237,-0.49801379442214966
1772701803662742000,1.847741943359375,-0.0929669588804245,-1.5281060934066772,-0.5257516503334045
1772701803672791000,1.857791015625,-0.10467234998941422,-1.7027117013931274,-0.5622888803482056
1772701803682840000,1.867840087890625,-0.12208942323923111,-1.0176883935928345,-0.527276873588562
1772701803692889000,1.87788916015625,-0.11633859574794769,0.3167739510536194,-0.4659669101238251
1772701803702937000,1.88793701171875,-0.07269897311925888,1.6657222509384155,-0.38396602869033813
1772701803712986000,1.897986083984375,-0.05106797814369202,2.13179087638855,-0.37266969680786133
1772701803723035100,1.90803515625,-0.06993061304092407,1.7236199378967285,-0.42831912636756897
1772701803733084200,1.918084228515625,-0.04518985003232956,1.1392241716384888,-0.42758676409721375
1772701803743132200,1.928132080078125,-0.059485163539648056,0.7909692525863647,-0.345120906829834
1772701803753181000,1.938180908203125,-0.1048734188079834,0.6858598589897156,-0.22190523147583008
1772701803763230200,1.948230224609375,-0.14866431057453156,0.7085294723510742,-0.0855894684791565
1772701803773279200,1.958279296875,-0.16951392590999603,0.864923894405365,0.05543529614806175
1772701803783327000,1.968326904296875,-0.18895287811756134,1.1102713346481323,0.15712571144104004
1772701803793376300,1.978376220703125,-0.22197288274765015,1.3223356008529663,0.22217048704624176
1772701803803425000,1.988425048828125,-0.24712324142456055,1.397888422012329,0.24195058643817902
1772701803813474300,1.998474365234375,-0.26800188422203064,1.314449429512024,0.16366243362426758
1772701803823523000,2.008523193359375,-0.2949855625629425,1.107093334197998,0.025286713615059853
1772701803833571000,2.018571044921875,-0.2804955840110779,0.9239347577095032,-0.12799738347530365
1772701803843620000,2.0286201171875,-0.2553769052028656,0.8777201175689697,-0.276150107383728
1772701803853669000,2.038669189453125,-0.24067465960979462,0.8446332216262817,-0.39886990189552307
1772701803863718100,2.04871826171875,-0.2534141540527344,0.799397885799408,-0.49607473611831665
1772701803873766100,2.05876611328125,-0.23930419981479645,0.759427011013031,-0.5799808502197266
1772701803883815200,2.068815185546875,-0.1868036985397339,0.6682283878326416,-0.6797623038291931
1772701803893864200,2.0788642578125,-0.13442331552505493,0.5861380696296692,-0.7570013999938965
1772701803903913000,2.088912841796875,-0.11494123190641403,0.5171568393707275,-0.7658377885818481
1772701803913961200,2.098961181640625,-0.10375036299228668,0.34428441524505615,-0.740593671798706
1772701803924010000,2.109010009765625,-0.10458073765039444,0.012476377189159393,-0.6659007668495178
1772701803934059300,2.119059326171875,-0.09398721158504486,-0.4393480718135834,-0.5532408356666565
1772701803944108000,2.12910791015625,-0.00986514799296856,-0.8767970204353333,-0.37190911173820496
1772701803954156300,2.13915625,0.1161564365029335,-1.2394464015960693,-0.12006089091300964
1772701803964205000,2.149205078125,0.26894038915634155,-1.537148356437683,0.2203321009874344
1772701803974254000,2.159254150390625,0.41860097646713257,-1.893347144126892,0.6128830909729004
1772701803984303000,2.16930322265625,0.5619370937347412,-2.2004878520965576,1.0035523176193237
1772701803994352000,2.17935205078125,0.693083643913269,-2.5042285919189453,1.287671446800232
1772701804004400000,2.189400146484375,0.7492870092391968,-2.90621018409729,1.4131345748901367
1772701804014449200,2.19944921875,0.720877468585968,-3.33681321144104,1.3770228624343872
1772701804024498000,2.209497802734375,0.580925703048706,-3.4845283031463623,1.2147811651229858
1772701804034547200,2.219547119140625,0.3504413664340973,-3.1653778553009033,0.9901102781295776
1772701804044595000,2.229594970703125,0.07205821573734283,-2.6795594692230225,0.732974648475647
1772701804054644200,2.239644287109375,-0.177544966340065,-2.370851755142212,0.47392788529396057
1772701804064693200,2.249693359375,-0.3781853914260864,-1.8995110988616943,0.29711610078811646
1772701804074742000,2.259741943359375,-0.513452410697937,-1.3309552669525146,0.2136736661195755
1772701804084790000,2.2697900390625,-0.5895830988883972,-1.362998127937317,0.2088291049003601
1772701804094839000,2.279839111328125,-0.5671645998954773,-1.7070878744125366,0.26718881726264954
1772701804104888300,2.289888427734375,-0.43556371331214905,-2.0775346755981445,0.32903915643692017
1772701804114937000,2.29993701171875,-0.30308690667152405,-2.175637722015381,0.40345796942710876
1772701804124986000,2.309986083984375,-0.1712266057729721,-2.0051417350769043,0.45691347122192383
1772701804135034000,2.3200341796875,-0.04493604972958565,-1.607993483543396,0.4654851257801056
1772701804145083100,2.330083251953125,0.022163359448313713,-1.0855380296707153,0.4282757043838501
1772701804155132200,2.340132080078125,0.12412834167480469,-0.5744739174842834,0.3737802505493164
1772701804165181200,2.35018115234375,0.24814003705978394,-0.12482928484678268,0.2701483964920044
1772701804175229200,2.360229248046875,0.3731709122657776,0.3512331247329712,0.12223616242408752
1772701804185278200,2.3702783203125,0.4131939709186554,0.7930400967597961,-0.058457184582948685
1772701804195327000,2.380326904296875,0.3493864834308624,1.0979489088058472,-0.25411003828048706
1772701804205376300,2.390376220703125,0.28405141830444336,1.2148536443710327,-0.44257235527038574
1772701804215424000,2.400424072265625,0.17510150372982025,1.1758657693862915,-0.6172720193862915
1772701804225473300,2.410473388671875,-0.015004249289631844,1.0964796543121338,-0.7367395162582397
1772701804235522300,2.420522216796875,-0.17608501017093658,0.8900244235992432,-0.820321798324585
1772701804245571000,2.430571044921875,-0.23847489058971405,0.44624432921409607,-0.7962457537651062
1772701804255619300,2.440619384765625,-0.15065129101276398,0.037334054708480835,-0.6839234828948975
1772701804265668000,2.450668212890625,-0.06034217029809952,-0.14396196603775024,-0.5910664796829224
1772701804275717400,2.46071728515625,0.020179037004709244,0.014808240346610546,-0.5039893984794617
1772701804285766100,2.47076611328125,0.0800652727484703,0.4047573506832123,-0.47627174854278564
1772701804295815200,2.480815185546875,0.12585699558258057,0.7313809990882874,-0.4655863344669342
1772701804305863200,2.49086328125,0.18766842782497406,0.807765543460846,-0.45614728331565857
1772701804315912200,2.500912109375,0.2630159258842468,0.676190197467804,-0.43401509523391724
1772701804325961200,2.510961181640625,0.3409765064716339,0.4632454216480255,-0.39353612065315247
1772701804336010200,2.52101025390625,0.37986183166503906,0.2113359421491623,-0.38798820972442627
1772701804346058200,2.531058349609375,0.3902830481529236,-0.012469452805817127,-0.4238884150981903
1772701804356107300,2.541107177734375,0.38870593905448914,-0.13013429939746857,-0.48490944504737854
1772701804366156300,2.55115625,0.38465791940689087,0.025240907445549965,-0.5379284620285034
1772701804376205300,2.561205322265625,0.41106662154197693,0.31399548053741455,-0.6036776304244995
1772701804386253000,2.571253173828125,0.44557854533195496,0.6730567216873169,-0.6508957147598267
1772701804396302300,2.58130224609375,0.49699193239212036,0.973185122013092,-0.6636099219322205
1772701804406351400,2.591351318359375,0.5483776330947876,1.0417460203170776,-0.6465204358100891
1772701804416400100,2.601400146484375,0.5925672054290771,0.9169599413871765,-0.6289582252502441
1772701804426448100,2.6114482421875,0.6275976300239563,0.6786213517189026,-0.6535099148750305
1772701804436497200,2.6214970703125,0.6564809083938599,0.3960440158843994,-0.7388218641281128
1772701804446546400,2.63154638671875,0.682696521282196,0.059898488223552704,-0.8765267133712769
1772701804456595200,2.64159521484375,0.7017602324485779,-0.4098868668079376,-0.9739859104156494
1772701804466644200,2.651644287109375,0.7560335993766785,-1.0384184122085571,-0.951080858707428
1772701804476692200,2.661692138671875,0.7748515009880066,-1.6576614379882812,-0.7915369868278503
1772701804486741200,2.6717412109375,0.6969916224479675,-1.9860994815826416,-0.6240246891975403
1772701804496790300,2.681790283203125,0.5901620984077454,-1.978806972503662,-0.5426204204559326
1772701804506839300,2.69183935546875,0.5434536933898926,-1.7021793127059937,-0.5600172281265259
1772701804516887300,2.70188720703125,0.553656280040741,-1.2488923072814941,-0.6909661889076233
1772701804526936300,2.711936279296875,0.6621009707450867,-0.4277481436729431,-0.9937774538993835
1772701804536985000,2.721985107421875,0.9800333976745605,0.7093856930732727,-1.2332649230957031
1772701804547034400,2.732034423828125,1.2688167095184326,1.9650511741638184,-1.01667320728302
1772701804557082000,2.74208203125,1.0414671897888184,2.604947090148926,-0.7005277276039124
1772701804567131400,2.75213134765625,0.5709492564201355,1.8188247680664062,-0.3918660283088684
1772701804577180200,2.76218017578125,0.07826151698827744,0.2605415880680084,-0.18681834638118744
1772701804587229200,2.772229248046875,-0.3153153359889984,-0.17858226597309113,-0.15113678574562073
1772701804597278200,2.7822783203125,-0.41545793414115906,0.10021821409463882,0.03224688395857811
1772701804607326200,2.792326171875,-0.365704208612442,0.6312610507011414,0.34398534893989563
1772701804617375200,2.802375244140625,-0.2686554193496704,1.1117243766784668,0.613202691078186
1772701804627424300,2.81242431640625,-0.1334661841392517,1.4156261682510376,0.7883686423301697
1772701804637473000,2.82247314453125,0.02070394717156887,1.3360408544540405,0.9174795150756836
1772701804647521300,2.832521240234375,-0.004229898564517498,0.8997936844825745,0.983053982257843
1772701804657570000,2.842570068359375,-0.11038056761026382,0.4378013014793396,0.9688859581947327
1772701804667619300,2.852619384765625,-0.1985652893781662,0.1511431783437729,0.905194878578186
1772701804677668400,2.86266845703125,-0.2672559320926666,0.048354215919971466,0.8058443069458008
1772701804687716400,2.87271630859375,-0.32419857382774353,-0.012601279653608799,0.6533767580986023
1772701804697765000,2.88276513671875,-0.41585686802864075,-0.20654864609241486,0.44279712438583374
1772701804707814100,2.892814208984375,-0.5418882966041565,-0.538638710975647,0.19764436781406403
1772701804717863400,2.902863525390625,-0.6736646890640259,-0.878378689289093,-0.02568698674440384
1772701804727912200,2.912912109375,-0.7475304007530212,-1.1480344533920288,-0.17507940530776978
1772701804737960400,2.92296044921875,-0.8060722947120667,-1.3318825960159302,-0.266106516122818
1772701804748009200,2.93300927734375,-0.8263906240463257,-1.287903070449829,-0.24133166670799255
1772701804758058200,2.943058349609375,-0.8167172074317932,-1.1625750064849854,-0.14350736141204834
1772701804768107300,2.953107177734375,-0.7848469018936157,-0.9017439484596252,0.055150069296360016
1772701804778155300,2.9631552734375,-0.7491453289985657,-0.3703455626964569,0.3134458065032959
1772701804788204300,2.973204345703125,-0.7265654802322388,0.4614619016647339,0.5768910050392151
1772701804798253300,2.98325341796875,-0.7046964168548584,1.1816885471343994,0.6458743214607239
1772701804808302000,2.993302001953125,-0.7175847291946411,1.7135089635849,0.5878264904022217
1772701804818350300,3.003350341796875,-0.7500537633895874,2.105595350265503,0.530120313167572
1772701804828399000,3.013399169921875,-0.7668724060058594,2.3431105613708496,0.4752112627029419
1772701804838448400,3.023448486328125,-0.724153459072113,2.306104898452759,0.42815640568733215
1772701804848497200,3.0334970703125,-0.6325420141220093,1.922029733657837,0.37241804599761963
1772701804858546200,3.043546142578125,-0.5607927441596985,1.3141874074935913,0.2500612437725067
1772701804868594200,3.05359423828125,-0.5004556179046631,0.6401320695877075,0.07007922232151031
1772701804878643200,3.063643310546875,-0.46503451466560364,0.03581898286938667,-0.12205027788877487
1772701804888692200,3.073692138671875,-0.41223177313804626,-0.2486335188150406,-0.28423812985420227
1772701804898741200,3.0837412109375,-0.3191438913345337,-0.0777033194899559,-0.3985002338886261
1772701804908789200,3.093789306640625,-0.19793730974197388,0.45808181166648865,-0.4749787747859955
1772701804918838300,3.10383837890625,-0.06880303472280502,0.8993939757347107,-0.5666424036026001
1772701804928887000,3.113886962890625,0.046910252422094345,1.2160943746566772,-0.6462618112564087
1772701804938936300,3.123936279296875,0.11328474432229996,1.4681037664413452,-0.7459181547164917
1772701804948984000,3.133984130859375,0.17680992186069489,1.611894965171814,-0.8436260223388672
1772701804959033300,3.144033447265625,0.25414198637008667,1.5561883449554443,-0.9549496173858643
1772701804969082000,3.15408203125,0.3353857100009918,1.260863184928894,-1.0264464616775513
1772701804979131100,3.164131103515625,0.38351595401763916,0.9994103312492371,-1.034674882888794
1772701804989180400,3.174180419921875,0.3905733525753021,0.7058319449424744,-0.9786403179168701
1772701804999228200,3.184228271484375,0.35573866963386536,0.35520631074905396,-0.8538448810577393
1772701805009277200,3.194277099609375,0.2923514246940613,-0.06878598779439926,-0.6507625579833984
1772701805019326200,3.204326171875,0.24865855276584625,-0.5013379454612732,-0.41801348328590393
1772701805029375200,3.214375244140625,0.2900744378566742,-0.9366092681884766,-0.1488022655248642
1772701805039423200,3.22442333984375,0.29052984714508057,-1.2632910013198853,0.07059427350759506
1772701805049472300,3.23447216796875,0.2283620685338974,-1.3425631523132324,0.19593888521194458
1772701805059521300,3.244521240234375,0.2353864163160324,-1.387734055519104,0.2728424370288849
1772701805069570300,3.2545703125,0.20787863433361053,-1.706170916557312,0.42015039920806885
1772701805079618300,3.264618408203125,0.08096302300691605,-2.405534029006958,0.8300889134407043
1772701805089667300,3.274667236328125,-0.1519586443901062,-3.500774383544922,1.4453212022781372
1772701805099716000,3.284716064453125,-0.21725189685821533,-3.932842969894409,1.8220285177230835
1772701805109765400,3.294765380859375,-0.06811273843050003,-2.935788869857788,1.7577192783355713
1772701805119814100,3.304814208984375,-0.0843159481883049,-1.8793318271636963,1.3814679384231567
1772701805129862400,3.3148623046875,-0.2109937220811844,-1.662984848022461,0.9394308924674988
1772701805139911200,3.3249111328125,-0.40267181396484375,-1.6683132648468018,0.5321184992790222
1772701805149960200,3.334960205078125,-0.5685204267501831,-1.5112082958221436,0.17306126654148102
1772701805160009200,3.34500927734375,-0.6655151844024658,-1.2616832256317139,-0.12839871644973755
1772701805170057200,3.35505712890625,-0.7671685814857483,-1.0365526676177979,-0.3937305212020874
1772701805180106200,3.365106201171875,-0.809334933757782,-1.0184165239334106,-0.6360930800437927
1772701805190155300,3.3751552734375,-0.7822082042694092,-1.2431771755218506,-0.8307704329490662
1772701805200204000,3.3852041015625,-0.6875453591346741,-1.433894395828247,-0.9579774141311646
1772701805210253300,3.39525341796875,-0.5620478987693787,-1.4142786264419556,-0.964608907699585
1772701805220301000,3.405301025390625,-0.44277504086494446,-1.213771104812622,-0.8484623432159424
1772701805230350300,3.415350341796875,-0.32197484374046326,-0.9308714866638184,-0.613812267780304
1772701805240399000,3.425399169921875,-0.21025869250297546,-0.6583712100982666,-0.32396048307418823
1772701805250448100,3.4354482421875,-0.08144212514162064,-0.3915315568447113,-0.05481744185090065
1772701805260496100,3.44549609375,0.008051268756389618,-0.3348139524459839,0.24200543761253357
1772701805270545200,3.455545166015625,0.055269114673137665,-0.24089942872524261,0.5059649348258972
1772701805280594200,3.46559423828125,0.07499381899833679,0.014633803628385067,0.7076506614685059
1772701805290643200,3.475643310546875,0.11402297765016556,0.3451121151447296,0.8184255957603455
1772701805300691200,3.485691162109375,0.20787863433361053,0.663858950138092,0.8872472643852234
1772701805310740200,3.495740234375,0.31249797344207764,1.0240824222564697,0.8815896511077881
1772701805320789000,3.5057890625,0.40426039695739746,1.3869037628173828,0.8076387643814087
1772701805330838300,3.51583837890625,0.4637242555618286,1.6950814723968506,0.6991844177246094
1772701805340887000,3.525886962890625,0.4779258370399475,1.9420630931854248,0.5873878598213196
1772701805350935300,3.535935302734375,0.4645026922225952,2.0618066787719727,0.5293837189674377
1772701805360984000,3.545984130859375,0.4200518727302551,2.0369863510131836,0.5164673328399658
1772701805371033000,3.556033203125,0.3526821434497833,1.8953075408935547,0.48215198516845703
1772701805381082000,3.56608203125,0.21493147313594818,1.540818214416504,0.38763320446014404
1772701805391130000,3.576130126953125,0.0714518129825592,0.928882360458374,0.22615644335746765
1772701805401179100,3.58617919921875,-0.021087974309921265,0.19460996985435486,0.021084778010845184
1772701805411228200,3.596228271484375,0.05552371218800545,-0.24653388559818268,-0.08322964608669281
1772701805421277000,3.60627685546875,0.08816953748464584,-0.385164737701416,-0.1874692291021347
1772701805431325200,3.6163251953125,0.10127415508031845,-0.3018823564052582,-0.31456539034843445
1772701805441374000,3.6263740234375,0.13745266199111938,-0.1587182730436325,-0.43038174510002136
1772701805451423200,3.63642333984375,0.19658975303173065,-0.07396743446588516,-0.500899076461792
1772701805461472000,3.646471923828125,0.24439376592636108,-0.06638648360967636,-0.5250887870788574
1772701805471521000,3.65652099609375,0.27959275245666504,-0.08647337555885315,-0.5334380865097046
1772701805481569000,3.666569091796875,0.28135791420936584,-0.15002119541168213,-0.5441674590110779
1772701805491618000,3.6766181640625,0.29226648807525635,-0.2370905727148056,-0.5367090106010437
1772701805501667000,3.6866669921875,0.3121024966239929,-0.322073370218277,-0.531536340713501
1772701805511716000,3.696716064453125,0.34047767519950867,-0.37477466464042664,-0.5261498093605042
1772701805521764000,3.70676416015625,0.38301077485084534,-0.3796309530735016,-0.5450284481048584
1772701805531813000,3.716813232421875,0.41945692896842957,-0.3122212886810303,-0.5652974843978882
1772701805541862100,3.726862060546875,0.42292141914367676,-0.14030757546424866,-0.5808287858963013
1772701805551911200,3.7369111328125,0.3901882469654083,0.14940306544303894,-0.5704821348190308
1772701805561960200,3.746960205078125,0.3492259085178375,0.39527595043182373,-0.5110949873924255
1772701805572008200,3.75700830078125,0.3198118209838867,0.40305423736572266,-0.4027823507785797
1772701805582057200,3.76705712890625,0.3080371916294098,0.11526001244783401,-0.2696317434310913
1772701805592106000,3.77710595703125,0.3149092197418213,-0.3489358723163605,-0.1417992115020752
1772701805602155300,3.7871552734375,0.3089357316493988,-0.7642459869384766,-0.005362540949136019
1772701805612203000,3.797203125,0.2603093385696411,-1.0005277395248413,0.07474613934755325
1772701805622252300,3.807252197265625,0.1252972036600113,-1.0787022113800049,0.032160867005586624
1772701805632301000,3.817301025390625,-0.09593132138252258,-1.034850835800171,-0.10995606333017349
1772701805642350000,3.82735009765625,-0.2643014192581177,-0.7809839844703674,-0.43050211668014526
1772701805652398000,3.837398193359375,-0.29923516511917114,-0.2057233303785324,-0.7953884601593018
1772701805662447000,3.847447021484375,-0.004443484358489513,0.5076152682304382,-0.8648189306259155
1772701805672496000,3.85749609375,0.5043845772743225,1.0828487873077393,-0.3716779351234436
1772701805682545200,3.867545166015625,0.4040001928806305,1.3474572896957397,-0.020146813243627548
1772701805692594200,3.87759423828125,0.1014041155576706,0.5487930774688721,-0.13754454255104065
1772701805702642200,3.88764208984375,-0.011109909042716026,-0.07728706300258636,-0.4500334858894348
1772701805712691000,3.89769091796875,-0.10173408687114716,-0.19014543294906616,-0.6220830082893372
1772701805722740200,3.907740234375,-0.11538571119308472,-0.2750890851020813,-0.5344293117523193
1772701805732789000,3.9177890625,-0.10108666867017746,0.05361928418278694,-0.2976628541946411
1772701805742837200,3.927837158203125,-0.018032263964414597,0.601767361164093,-0.02580416575074196
1772701805752886000,3.937885986328125,0.10219747573137283,0.7993142604827881,0.17473265528678894
1772701805762935000,3.94793505859375,0.10048026591539383,0.4012393057346344,0.24143339693546295
1772701805772984000,3.957984130859375,0.06601683050394058,-0.07126352936029434,0.2890903949737549
1772701805783033000,3.968033203125,0.08547735214233398,-0.3431624174118042,0.29008749127388
1772701805793081000,3.9780810546875,0.14497210085391998,-0.39446741342544556,0.2697606384754181
1772701805803130000,3.988130126953125,0.15169765055179596,-0.36458781361579895,0.2759069502353668
1772701805813179100,3.99817919921875,0.15071254968643188,-0.24886201322078705,0.299803227186203
1772701805823228200,4.008228271484375,0.16250503063201904,-0.07391203939914703,0.29397329688072205
1772701805833276200,4.018276123046875,0.15378797054290771,-0.06894364953041077,0.27272340655326843
1772701805843325200,4.0283251953125,0.14793993532657623,-0.1107398271560669,0.2768545150756836
1772701805853374200,4.038374267578125,0.12012134492397308,-0.1591997742652893,0.35760366916656494
1772701805863423200,4.04842333984375,0.060809288173913956,-0.17057199776172638,0.5028804540634155
1772701805873472300,4.05847216796875,0.0024794030468910933,-0.039268042892217636,0.6781401634216309
1772701805883520000,4.06852001953125,-0.07194822281599045,0.08539266139268875,0.8318554162979126
1772701805893569300,4.0785693359375,-0.1025596633553505,0.22144584357738495,0.9572522044181824
1772701805903618000,4.0886181640625,-0.09772469848394394,0.5120211839675903,1.0484583377838135
1772701805913667300,4.098667236328125,-0.11210443079471588,1.018985390663147,1.0843685865402222
1772701805923715000,4.108715087890625,-0.12959714233875275,1.7768152952194214,1.032960295677185
1772701805933764000,4.11876416015625,-0.18904316425323486,2.29630446434021,0.7762986421585083
1772701805943813000,4.128813232421875,-0.2748512625694275,2.496328353881836,0.4622901380062103
1772701805953862100,4.138862060546875,-0.338655561208725,2.4469645023345947,0.19631464779376984
1772701805963910100,4.14891015625,-0.35507073998451233,2.130305528640747,-0.012199142016470432
1772701805973959200,4.158959228515625,-0.34555819630622864,1.5860389471054077,-0.18225742876529694
1772701805984008200,4.16900830078125,-0.3681303560733795,0.9248937368392944,-0.38986173272132874
1772701805994057200,4.17905712890625,-0.4454190135002136,0.21197004616260529,-0.6459129452705383
1772701806004106000,4.18910595703125,-0.49520599842071533,-0.4055213928222656,-0.8617776036262512
1772701806014154200,4.199154296875,-0.47008016705513,-0.5671007037162781,-0.8683755993843079
1772701806024203000,4.209203125,-0.47500407695770264,-0.19876661896705627,-0.6876713037490845
1772701806034252300,4.219252197265625,-0.5083404779434204,0.30790987610816956,-0.5036080479621887
1772701806044301000,4.229301025390625,-0.5433914065361023,0.7855358719825745,-0.37606656551361084
1772701806054349300,4.239349365234375,-0.5306710600852966,1.172461748123169,-0.18432830274105072
1772701806064398000,4.249398193359375,-0.4531826674938202,1.3395761251449585,0.05826010927557945
1772701806074447000,4.259447021484375,-0.36129534244537354,1.2932475805282593,0.2360447496175766
1772701806084496100,4.26949609375,-0.3077245354652405,0.9936310052871704,0.29989057779312134
1772701806094545200,4.279545166015625,-0.269915908575058,0.6042613983154297,0.26335519552230835
1772701806104593200,4.28959326171875,-0.24475541710853577,0.28617796301841736,0.20166334509849548
1772701806114642200,4.29964208984375,-0.20362237095832825,0.07047869265079498,0.11668720096349716
1772701806124691200,4.309691162109375,-0.25227510929107666,0.054678160697221756,0.06005614623427391
1772701806134740200,4.319740234375,-0.3001142740249634,0.15541408956050873,0.10418526083230972
1772701806144788000,4.3297880859375,-0.3230864405632019,0.21385103464126587,0.16077344119548798
1772701806154837200,4.339837158203125,-0.344333678483963,0.3102915585041046,0.2133737951517105
1772701806164886300,4.34988623046875,-0.3663436472415924,0.4098122715950012,0.29108378291130066
1772701806174935000,4.35993505859375,-0.38672932982444763,0.4199298918247223,0.39726611971855164
1772701806184983300,4.3699833984375,-0.390474796295166,0.33814048767089844,0.49644437432289124
1772701806195032000,4.380031982421875,-0.3710252046585083,0.17363037168979645,0.5053989887237549
1772701806205081300,4.390081298828125,-0.3737320601940155,-0.05907157436013222,0.4677589535713196
1772701806215130000,4.400130126953125,-0.38435646891593933,-0.3649984896183014,0.445837140083313
1772701806225180400,4.410180419921875,-0.34514355659484863,-0.7196835875511169,0.4809764623641968
1772701806235228400,4.420228515625,-0.2795528173446655,-0.9902154803276062,0.5604491829872131
1772701806245277400,4.43027734375,-0.20857131481170654,-1.0436677932739258,0.6913206577301025
1772701806255326200,4.440326171875,-0.1671823263168335,-1.141452670097351,0.7829834818840027
1772701806265375500,4.45037548828125,-0.10336420685052872,-1.448533535003662,0.8298830389976501
1772701806275423200,4.46042333984375,-0.020859476178884506,-1.8829646110534668,0.7798390984535217
1772701806285472500,4.470472412109375,0.06048091873526573,-2.1794257164001465,0.6391586661338806
1772701806295521300,4.480521240234375,0.1653282344341278,-2.1755943298339844,0.43700850009918213
1772701806305570300,4.4905703125,0.28187084197998047,-1.9440748691558838,0.2186892032623291
1772701806315619300,4.500619384765625,0.3864888548851013,-1.7032526731491089,0.006243781186640263
1772701806325667300,4.510667236328125,0.46433091163635254,-1.5702236890792847,-0.24819914996623993
1772701806335716400,4.52071630859375,0.4909566640853882,-1.5178295373916626,-0.4764413833618164
1772701806345765400,4.530765380859375,0.4941045343875885,-1.4800277948379517,-0.620457649230957
1772701806355814400,4.540814453125,0.5022979974746704,-1.4025497436523438,-0.6840395927429199
1772701806365862400,4.5508623046875,0.5046082735061646,-1.3047057390213013,-0.6776027083396912
1772701806375911200,4.5609111328125,0.4688692092895508,-1.2443140745162964,-0.6126602292060852
1772701806385960400,4.57096044921875,0.43421670794487,-1.1597262620925903,-0.4753694534301758
1772701806396009500,4.581009521484375,0.427013635635376,-0.9738402366638184,-0.3264116644859314
1772701806406058200,4.591058349609375,0.43678346276283264,-0.703760027885437,-0.19802306592464447
1772701806416106500,4.6011064453125,0.471131294965744,-0.39737266302108765,-0.1401698887348175
1772701806426155300,4.6111552734375,0.47747522592544556,-0.040760479867458344,-0.16249383985996246
1772701806436204500,4.62120458984375,0.4694010615348816,0.44630691409111023,-0.25548744201660156
1772701806446253300,4.63125341796875,0.4765346050262451,0.939803957939148,-0.37236982583999634
1772701806456301600,4.641301513671875,0.5069923400878906,1.412615418434143,-0.5053920745849609
1772701806466350300,4.651350341796875,0.5096235871315002,1.703547716140747,-0.6371796727180481
1772701806476399400,4.6613994140625,0.5009256601333618,1.780165195465088,-0.7473788857460022
1772701806486448400,4.671448486328125,0.48942428827285767,1.7330914735794067,-0.8585889935493469
1772701806496497400,4.681497314453125,0.43616268038749695,1.5883917808532715,-0.9139809012413025
1772701806506545400,4.69154541015625,0.28057974576950073,1.3716142177581787,-0.9621444344520569
1772701806516594400,4.701594482421875,0.01805969327688217,1.1931062936782837,-1.017048954963684
1772701806526643200,4.711643310546875,-0.15126781165599823,0.9910660982131958,-1.0333211421966553
1772701806536692500,4.7216923828125,-0.29599571228027344,0.7682527303695679,-0.9832372069358826
1772701806546740200,4.731740234375,-0.48545724153518677,0.4847126305103302,-0.9610538482666016
1772701806556789500,4.74178955078125,-0.47612953186035156,0.2303900569677353,-0.8493603467941284
1772701806566838300,4.75183837890625,-0.3673383295536041,0.09301915764808655,-0.653933048248291
1772701806576887300,4.76188720703125,-0.2509281039237976,0.0544603131711483,-0.4543627202510834
1772701806586936300,4.771936279296875,-0.14361388981342316,0.13722576200962067,-0.25878655910491943
1772701806596984300,4.781984375,-0.04536961019039154,0.18024247884750366,-0.09491638839244843
1772701806607033300,4.792033447265625,0.049611229449510574,0.11778415739536285,0.01684262976050377
1772701806617082400,4.802082275390625,0.11839614808559418,-0.034025877714157104,0.11469542235136032
1772701806627131400,4.81213134765625,0.17295686900615692,-0.20962007343769073,0.1805942803621292
1772701806637179400,4.822179443359375,0.20927385985851288,-0.353035569190979,0.18601568043231964
1772701806647228200,4.832228271484375,0.24994325637817383,-0.4558066725730896,0.15146835148334503
1772701806657277400,4.84227734375,0.27197957038879395,-0.5036186575889587,0.11138191819190979
1772701806667326500,4.852326416015625,0.3048222064971924,-0.48096662759780884,0.08440089970827103
1772701806677374500,4.86237451171875,0.36947712302207947,-0.3849964141845703,0.07524335384368896
1772701806687423200,4.87242333984375,0.4222052991390228,-0.24626223742961884,0.05090152844786644
1772701806697472300,4.88247216796875,0.45093682408332825,-0.12777873873710632,0.008638229221105576
1772701806707521500,4.892521484375,0.42617741227149963,-0.08081548660993576,-0.07180681079626083
1772701806717570300,4.9025703125,0.3650357723236084,-0.08941882848739624,-0.16969981789588928
1772701806727618600,4.91261865234375,0.2976854741573334,-0.13023656606674194,-0.25277847051620483
1772701806737667300,4.922667236328125,0.23369558155536652,-0.31150275468826294,-0.3565828800201416
1772701806747716400,4.93271630859375,0.0834759846329689,-0.725271463394165,-0.49183791875839233
1772701806757765400,4.942765380859375,-0.21506863832473755,-1.2050079107284546,-0.6404612064361572
1772701806767813400,4.9528134765625,-0.5188620686531067,-1.6973992586135864,-0.8860232830047607
1772701806777862400,4.9628623046875,-0.5184106826782227,-1.8367947340011597,-1.2458847761154175
1772701806787911400,4.972911376953125,-0.17371906340122223,-1.3577804565429688,-1.4358294010162354
1772701806797960200,4.982960205078125,0.599822998046875,0.049136653542518616,-1.1541346311569214
1772701806808009500,4.993009521484375,1.2965352535247803,1.7384859323501587,-0.48714834451675415
1772701806818057200,5.00305712890625,2.081953287124634,0.2687648832798004,-0.3467169404029846
1772701806828106500,5.0131064453125,1.9290103912353516,-0.9679455757141113,-0.5838104486465454
1772701806838155300,5.0231552734375,1.2700074911117554,-0.6283872127532959,-0.43577703833580017
1772701806848204300,5.033204345703125,0.8235215544700623,0.7452818751335144,-0.28349003195762634
1772701806858253300,5.04325341796875,0.5023632645606995,1.4155439138412476,-0.23076529800891876
1772701806868301300,5.05330126953125,0.1896200031042099,1.3640795946121216,-0.02551068551838398
1772701806878350300,5.063350341796875,-0.3306753933429718,0.75404292345047,-0.07976034283638
1772701806888399400,5.0733994140625,-0.9036499857902527,0.08863985538482666,-0.24393703043460846
1772701806898448100,5.0834482421875,-1.1482969522476196,-0.4813234806060791,-0.3995732367038727
1772701806908496400,5.093496337890625,-1.1133296489715576,-0.8989348411560059,-0.48847246170043945
1772701806918545200,5.103545166015625,-0.9575294256210327,-1.1730585098266602,-0.48025235533714294
1772701806928594400,5.113594482421875,-0.8108015060424805,-1.2901614904403687,-0.4399845600128174
1772701806938643500,5.1236435546875,-0.6302551627159119,-1.2691123485565186,-0.39193129539489746
1772701806948692200,5.133692138671875,-0.3513076901435852,-1.121799111366272,-0.30826887488365173
1772701806958740200,5.143740234375,-0.09595582634210587,-0.8421045541763306,-0.20895987749099731
1772701806968789200,5.153789306640625,0.10518287867307663,-0.4871867001056671,-0.1013718917965889
1772701806978838500,5.163838623046875,0.2618393301963806,-0.14755137264728546,-0.024047812446951866
1772701806988887300,5.17388720703125,0.3743147552013397,0.19186504185199738,0.020712468773126602
1772701806998935600,5.183935546875,0.4197344183921814,0.5302761197090149,0.031914256513118744
1772701807008984300,5.193984375,0.42816945910453796,0.7791056632995605,0.06823951005935669
1772701807019033300,5.204033447265625,0.4500766098499298,0.806420087814331,0.1361762136220932
1772701807029082400,5.214082275390625,0.47643712162971497,0.751814603805542,0.21076630055904388
1772701807039131400,5.22413134765625,0.49112018942832947,0.700400710105896,0.3209013342857361
1772701807049179400,5.234179443359375,0.48288223147392273,0.5408211946487427,0.5327123999595642
1772701807059228400,5.244228515625,0.42541149258613586,0.3298591375350952,0.764797031879425
1772701807069277200,5.254277099609375,0.34891536831855774,0.12625886499881744,0.9638166427612305
1772701807079326500,5.264326416015625,0.29477250576019287,-0.033849574625492096,1.1465078592300415
1772701807089374200,5.274374267578125,0.2750382125377655,-0.09812629967927933,1.2744035720825195
1772701807099423500,5.284423583984375,0.275968462228775,-0.03644242882728577,1.200553297996521
1772701807109472300,5.29447216796875,0.23332300782203674,0.343397855758667,0.8107176423072815
1772701807119521300,5.304521240234375,0.188812255859375,0.7626923322677612,0.39098188281059265
1772701807129570300,5.3145703125,0.1568647176027298,1.0281071662902832,0.10440629720687866
1772701807139618300,5.324618408203125,0.11279232800006866,1.1919054985046387,-0.13774001598358154
1772701807149667300,5.334667236328125,0.07101718336343765,1.2946339845657349,-0.3464737832546234
1772701807159716400,5.34471630859375,0.002957440447062254,1.298876166343689,-0.5249396562576294
1772701807169764400,5.354764404296875,-0.05162857472896576,1.2420424222946167,-0.6691038012504578
1772701807179813400,5.3648134765625,-0.07820931822061539,1.1818978786468506,-0.7434267401695251
1772701807189862100,5.374862060546875,-0.057617224752902985,1.1558324098587036,-0.7179922461509705
1772701807199911400,5.384911376953125,-0.006465089973062277,1.158510446548462,-0.6198150515556335
1772701807209959200,5.394959228515625,0.04391872137784958,1.092361330986023,-0.507561206817627
1772701807220008400,5.405008544921875,0.09775851666927338,0.9024291634559631,-0.42612147331237793
1772701807230056400,5.415056396484375,0.12064359337091446,0.5792663097381592,-0.41906383633613586
1772701807240105500,5.42510546875,0.09213072806596756,0.12770043313503265,-0.3956834077835083
1772701807250154500,5.435154541015625,0.04174158722162247,-0.25695082545280457,-0.3114961087703705
1772701807260202500,5.445202392578125,-0.004537493921816349,-0.48151150345802307,-0.14472442865371704
1772701807270251500,5.45525146484375,-0.03193316608667374,-0.5710656046867371,0.10506729781627655
1772701807280300300,5.46530029296875,-0.053878411650657654,-0.5669007301330566,0.3731834292411804
1772701807290349600,5.475349609375,-0.041791122406721115,-0.6523002982139587,0.6397991180419922
1772701807300397300,5.485397216796875,-0.029771743342280388,-0.884139358997345,0.8814154863357544
1772701807310446600,5.495446533203125,-0.010240653529763222,-1.3211936950683594,1.0589202642440796
1772701807320495400,5.505495361328125,-0.014386928640305996,-1.917325496673584,1.1067391633987427
1772701807330544400,5.51554443359375,-0.03650554642081261,-2.4278383255004883,1.0268096923828125
1772701807340593700,5.52559375,-0.05870432406663895,-2.4732282161712646,1.0393582582473755
1772701807350641400,5.535641357421875,-0.07969029992818832,-1.9509519338607788,1.249292016029358
1772701807360690400,5.5456904296875,-0.101224884390831,-1.100235939025879,1.5154379606246948
1772701807370739500,5.555739501953125,-0.14372894167900085,-0.5099644660949707,1.8145372867584229
1772701807380788500,5.56578857421875,-0.27578017115592957,-0.542384147644043,2.078416109085083
1772701807390837500,5.57583740234375,-0.5258664488792419,-0.9951231479644775,2.312532424926758
1772701807400885500,5.585885498046875,-0.7785229682922363,-1.3143908977508545,2.4140946865081787
1772701807410934500,5.5959345703125,-1.0592422485351562,-1.03168785572052,2.3948793411254883
1772701807420983600,5.605983642578125,-1.2440115213394165,-0.28498193621635437,2.2981014251708984
1772701807431032300,5.6160322265625,-1.240535020828247,0.4073837399482727,2.2237284183502197
1772701807441080600,5.62608056640625,-1.1022818088531494,0.580475926399231,2.11867094039917
1772701807451129300,5.63612939453125,-0.7704375982284546,0.3094523847103119,1.8974665403366089
1772701807461178600,5.6461787109375,-0.37754249572753906,-0.04079616442322731,1.5991963148117065
1772701807471227400,5.656227294921875,-0.24264566600322723,-0.4153255522251129,1.3044365644454956
1772701807481276400,5.6662763671875,-0.08521635830402374,-0.8149800300598145,1.0545399188995361
1772701807491324400,5.676324462890625,0.042453184723854065,-0.9030472636222839,0.8722822070121765
1772701807501373400,5.68637353515625,0.1455492079257965,-0.6245773434638977,0.7823483347892761
1772701807511422500,5.69642236328125,0.1959596574306488,-0.05992298945784569,0.7469232082366943
1772701807521471500,5.706471435546875,0.17063592374324799,0.5336711406707764,0.7415992617607117
1772701807531520300,5.716520263671875,0.1642022579908371,0.9676973819732666,0.7362732291221619
1772701807541569500,5.726569580078125,0.1700444370508194,1.1211966276168823,0.6159223318099976
1772701807551617300,5.7366171875,0.18454881012439728,1.0156372785568237,0.4296397864818573
1772701807561666600,5.74666650390625,0.18350271880626678,0.7142105102539062,0.20909462869167328
1772701807571715300,5.75671533203125,0.15027178823947906,0.3316711485385895,0.013742710463702679
1772701807581764400,5.766764404296875,0.09664744883775711,0.03850691393017769,-0.1165335401892662
1772701807591812400,5.776812255859375,0.03869359940290451,0.018368620425462723,-0.20025719702243805
1772701807601861400,5.786861328125,-0.001014131703414023,0.182852104306221,-0.2672386169433594
1772701807611910700,5.79691064453125,-0.02173032984137535,0.3969401717185974,-0.2945733070373535
1772701807621959400,5.80695947265625,-0.030040722340345383,0.5387675762176514,-0.26527082920074463
1772701807632008400,5.817008544921875,-0.03808480128645897,0.607601523399353,-0.22229911386966705
1772701807642056400,5.827056396484375,-0.01877075806260109,0.5847201943397522,-0.21934832632541656
1772701807652105500,5.83710546875,0.021508486941456795,0.47675031423568726,-0.25955674052238464
1772701807662154500,5.847154541015625,0.0781392753124237,0.351736456155777,-0.3291113078594208
1772701807672203500,5.85720361328125,0.13585104048252106,0.26430994272232056,-0.3934870958328247
1772701807682251500,5.86725146484375,0.18476185202598572,0.2638135254383087,-0.45365110039711
1772701807692300500,5.877300537109375,0.21410483121871948,0.354796439409256,-0.49994057416915894
1772701807702349300,5.887349365234375,0.20930396020412445,0.5394840240478516,-0.4999980926513672
1772701807712398600,5.897398681640625,0.15325453877449036,0.7153351902961731,-0.4952901601791382
1772701807722447400,5.907447265625,0.04523725435137749,0.8083490133285522,-0.4940584599971771
1772701807732495600,5.91749560546875,-0.0902278944849968,0.7773764729499817,-0.5278939008712769
1772701807742544400,5.92754443359375,-0.17608501017093658,0.7103366851806641,-0.5827385187149048
1772701807752593400,5.937593505859375,-0.2173304557800293,0.6192414164543152,-0.6000157594680786
1772701807762642400,5.947642333984375,-0.21931611001491547,0.5543686747550964,-0.5872770547866821
1772701807772691500,5.95769140625,-0.169124573469162,0.6266388893127441,-0.5674344301223755
1772701807782739500,5.967739501953125,-0.14641287922859192,0.8237415552139282,-0.5822045803070068
1772701807792788500,5.97778857421875,-0.24602441489696503,0.8871402144432068,-0.7338087558746338
1772701807802837200,5.987837158203125,-0.5457549691200256,0.8256957530975342,-1.098639965057373
1772701807812886500,5.997886474609375,-0.9058350920677185,0.6081770658493042,-1.6350144147872925
1772701807822934300,6.007934326171875,-1.2164443731307983,0.15634647011756897,-2.3239569664001465
1772701807832983600,6.017983642578125,-1.3424901962280273,-0.7159599661827087,-2.8592779636383057
1772701807843032300,6.0280322265625,-1.22419011592865,-1.6569043397903442,-3.1402080059051514
1772701807853081300,6.038081298828125,-0.9025216102600098,-2.2584927082061768,-3.104203462600708
1772701807863130600,6.048130615234375,-0.4922110140323639,-1.694358229637146,-2.5650734901428223
1772701807873178400,6.058178466796875,-0.042694468051195145,0.18917125463485718,-1.2648038864135742
1772701807883227600,6.0682275390625,-0.05016782879829407,0.667515218257904,-0.5164505839347839
1772701807893276400,6.0782763671875,-0.2778680920600891,0.023423034697771072,-0.2813462018966675
1772701807903325400,6.088325439453125,-0.30379611253738403,0.023194001987576485,-0.10498420894145966
1772701807913374500,6.09837451171875,-0.3334445357322693,0.32490167021751404,-0.03211425989866257
1772701807923422500,6.10842236328125,-0.36274784803390503,0.21580606698989868,-0.030357640236616135
1772701807933471500,6.118471435546875,-0.3685018718242645,0.07306808233261108,-0.02694746106863022
1772701807943520500,6.1285205078125,-0.34410783648490906,-0.057803645730018616,-0.05359984561800957
1772701807953569500,6.138569580078125,-0.26169630885124207,-0.1297643929719925,-0.07451152056455612
1772701807963617500,6.148617431640625,-0.20316243171691895,-0.04932467266917229,-0.1175500676035881
1772701807973666300,6.158666259765625,-0.25416409969329834,0.16024506092071533,-0.17808984220027924
1772701807983715600,6.168715576171875,-0.3397064208984375,0.34065505862236023,-0.2425077110528946
1772701807993764400,6.178764404296875,-0.4186294674873352,0.44416359066963196,-0.3150775134563446
1772701808003813600,6.188813720703125,-0.48735421895980835,0.4287814497947693,-0.429179310798645
1772701808013861400,6.198861328125,-0.6184771060943604,0.3051055669784546,-0.5628646612167358
1772701808023910400,6.208910400390625,-0.7943727374076843,0.07873422652482986,-0.6449933648109436
1772701808033959400,6.21895947265625,-0.9495330452919006,-0.1795218288898468,-0.6493838429450989
1772701808044008400,6.229008544921875,-1.0596156120300293,-0.34991833567619324,-0.5771299004554749
1772701808054057500,6.239057373046875,-1.1043423414230347,-0.26749828457832336,-0.4703904092311859
1772701808064105500,6.24910546875,-1.1084063053131104,-0.05696314945816994,-0.34495311975479126
1772701808074154500,6.259154541015625,-1.0797994136810303,0.2984713912010193,-0.2567138075828552
1772701808084203500,6.26920361328125,-1.1067452430725098,0.5777280330657959,-0.19622570276260376
1772701808094252500,6.27925244140625,-1.1967196464538574,0.6426892280578613,-0.19068633019924164
1772701808104300500,6.289300537109375,-1.2701581716537476,0.6034994721412659,-0.2134944349527359
1772701808114349300,6.299349365234375,-1.2997219562530518,0.5445796847343445,-0.19496390223503113
1772701808124398600,6.309398681640625,-1.2681612968444824,0.49940767884254456,-0.09668979048728943
1772701808134447600,6.319447509765625,-1.1444077491760254,0.4306288957595825,0.041493382304906845
1772701808144496400,6.329496337890625,-0.9497184157371521,0.41681718826293945,0.17688636481761932
1772701808154544400,6.33954443359375,-0.6864609122276306,0.44946354627609253,0.30107489228248596
1772701808164593400,6.349593505859375,-0.4309484660625458,0.47118934988975525,0.41535165905952454
1772701808174642700,6.359642578125,-0.2963094115257263,0.4071959853172302,0.5248895883560181
1772701808184691500,6.36969140625,-0.22778309881687164,0.1853962242603302,0.613881528377533
1772701808194739500,6.379739501953125,-0.22211135923862457,-0.07157005369663239,0.6607587337493896
1772701808204788500,6.38978857421875,-0.2716647982597351,-0.015918511897325516,0.7137122750282288
1772701808214837500,6.39983740234375,-0.32885271310806274,0.45566898584365845,0.8013004064559937
1772701808224886500,6.409886474609375,-0.3687266409397125,0.8903019428253174,0.8299831748008728
1772701808234935800,6.419935791015625,-0.4059549570083618,0.9820475578308105,0.7923039793968201
1772701808244983600,6.429983642578125,-0.4293234050273895,0.8926090598106384,0.7172771692276001
1772701808255032800,6.44003271484375,-0.44798338413238525,0.7003578543663025,0.6307231187820435
1772701808265081600,6.45008154296875,-0.46944737434387207,0.44965291023254395,0.5590145587921143
1772701808275130600,6.460130615234375,-0.4940667152404785,0.19512741267681122,0.5656293034553528
1772701808285179600,6.4701796875,-0.48667776584625244,-0.0708901509642601,0.6480836868286133
1772701808295227600,6.4802275390625,-0.44425681233406067,-0.30709150433540344,0.7439225912094116
1772701808305276700,6.490276611328125,-0.3756473958492279,-0.4545392692089081,0.8208144903182983
1772701808315325700,6.50032568359375,-0.29641833901405334,-0.487682044506073,0.8309571146965027
1772701808325374700,6.510374755859375,-0.2508750855922699,-0.4163881540298462,0.8116154074668884
1772701808335422700,6.520422607421875,-0.250976026058197,-0.32697412371635437,0.7692623138427734
1772701808345471700,6.5304716796875,-0.2788262963294983,-0.21114473044872284,0.7029852867126465
1772701808355520800,6.540520751953125,-0.27461132407188416,-0.08326879143714905,0.6325087547302246
1772701808365569800,6.55056982421875,-0.2531627416610718,0.0024088292848318815,0.5458548069000244
1772701808375618800,6.560618896484375,-0.20624025166034698,0.022893065586686134,0.48513421416282654
1772701808385666600,6.57066650390625,-0.13003922998905182,0.013077985495328903,0.44977355003356934
1772701808395715800,6.5807158203125,-0.008708536624908447,-0.006051767151802778,0.4293433725833893
1772701808405764900,6.590764892578125,0.12156025320291519,-0.004201402887701988,0.40081799030303955
1772701808415813600,6.600813720703125,0.24663801491260529,-0.012501676566898823,0.39295661449432373
1772701808425863000,6.61086279296875,0.32584628462791443,-0.061707306653261185,0.3911549746990204
1772701808435910700,6.62091064453125,0.38408002257347107,-0.18264251947402954,0.37231072783470154
1772701808445959700,6.630959716796875,0.4087006747722626,-0.21690727770328522,0.3919624388217926
1772701808456008700,6.6410087890625,0.3926263749599457,-0.19940072298049927,0.43241986632347107
1772701808466057700,6.6510576171875,0.327639639377594,-0.17755188047885895,0.45243778824806213
1772701808476105700,6.661105712890625,0.2538386583328247,-0.1405528485774994,0.4578501284122467
1772701808486154800,6.67115478515625,0.19970379769802094,-0.07521618902683258,0.4631407558917999
1772701808496203800,6.681203857421875,0.18627959489822388,-0.008734636008739471,0.4979701042175293
1772701808506252800,6.691252685546875,0.20891140401363373,0.04439995437860489,0.5494641661643982
1772701808516301600,6.701301513671875,0.2453216165304184,0.07729212194681168,0.6020799875259399
1772701808526349800,6.711349853515625,0.2725564241409302,0.11191348731517792,0.6036872267723083
1772701808536398600,6.721398681640625,0.25892236828804016,0.14179494976997375,0.5373526811599731
1772701808546448000,6.73144775390625,0.1917465329170227,0.17134591937065125,0.4292895793914795
1772701808556496600,6.74149658203125,0.09665969759225845,0.23050591349601746,0.31731483340263367
1772701808566545700,6.751545654296875,-0.0198685135692358,0.22597800195217133,0.24663135409355164
1772701808576593700,6.76159375,-0.09424740821123123,0.2008875608444214,0.23077009618282318
1772701808586642700,6.771642578125,-0.1294352263212204,0.15419010818004608,0.24327710270881653
1772701808596691700,6.781691650390625,-0.08846275508403778,0.0683516263961792,0.24115082621574402
1772701808606740700,6.79174072265625,-0.04218127578496933,0.036503683775663376,0.20843122899532318
1772701808616788700,6.801788818359375,-0.03285781666636467,0.050277817994356155,0.20236429572105408
1772701808626837800,6.811837646484375,-0.024749288335442543,0.025199096649885178,0.2000361531972885
1772701808636886800,6.82188671875,-0.03734284266829491,-0.024023843929171562,0.19331353902816772
1772701808646935800,6.831935791015625,-0.050931625068187714,-0.04857126250863075,0.17634573578834534
1772701808656984800,6.84198486328125,-0.0667651817202568,-0.07648598402738571,0.11910481750965118
1772701808667032800,6.85203271484375,-0.07091119140386581,-0.08444217592477798,0.0733511820435524
1772701808677081900,6.862081787109375,-0.002496447181329131,-0.03521125018596649,0.058270495384931564
1772701808687130600,6.872130615234375,0.015929430723190308,-0.0037228327710181475,0.0522320456802845
1772701808697180000,6.882179931640625,0.05589096248149872,0.014186126179993153,0.05060139298439026
1772701808707228700,6.892228759765625,0.08171164244413376,0.05724411457777023,0.06041620671749115
1772701808717277000,6.90227685546875,0.09988638013601303,0.09194030612707138,0.05360836535692215
1772701808727325700,6.91232568359375,0.08195772022008896,0.09236934781074524,0.04543112963438034
1772701808737374700,6.922374755859375,0.06726772338151932,0.09915880858898163,0.03741075471043587
1772701808747423700,6.932423828125,0.08310180902481079,0.11131054162979126,0.023382553830742836
1772701808757471700,6.9424716796875,0.10285447537899017,0.15147607028484344,0.000550475378986448
1772701808767520800,6.952520751953125,0.11496706306934357,0.17079517245292664,-0.03418220579624176
1772701808777569800,6.96256982421875,0.18805326521396637,0.23774811625480652,-0.06618247926235199
1772701808787618600,6.97261865234375,0.2232101857662201,0.24406859278678894,-0.11266236752271652
1772701808797667800,6.982667724609375,0.17447593808174133,0.2698959410190582,-0.15238606929779053
1772701808807715600,6.992715576171875,0.1363096386194229,0.27077823877334595,-0.19374629855155945
1772701808817764900,7.002764892578125,0.08995518833398819,0.28654733300209045,-0.2120898813009262
1772701808827813600,7.012813720703125,0.08650372922420502,0.27868542075157166,-0.2285064160823822
1772701808837862700,7.022862548828125,0.04455175623297691,0.25529220700263977,-0.23884665966033936
1772701808847912000,7.032911865234375,0.08800628781318665,0.21035829186439514,-0.2363044172525406
1772701808857959700,7.042959716796875,0.12665621936321259,0.23460690677165985,-0.22553272545337677
1772701808868008700,7.0530087890625,0.1930171251296997,0.31713640689849854,-0.22162532806396484
1772701808878057700,7.0630576171875,0.20130355656147003,0.34420159459114075,-0.22356145083904266
1772701808888106800,7.073106689453125,0.18672408163547516,0.36367833614349365,-0.20174989104270935
1772701808898155800,7.08315576171875,0.18940109014511108,0.3548448979854584,-0.1858401745557785
1772701808908203800,7.093203857421875,0.17002072930335999,0.3905094265937805,-0.1563563197851181
1772701808918252800,7.103252685546875,0.14971758425235748,0.41130712628364563,-0.1395443081855774
1772701808928301800,7.1133017578125,0.1191205307841301,0.41355934739112854,-0.11901453882455826
1772701808938350600,7.1233505859375,0.07565347850322723,0.3738904893398285,-0.08610532432794571
1772701808948398800,7.13339892578125,0.04135995730757713,0.29666468501091003,-0.07177644968032837
1772701808958447600,7.143447509765625,0.01973615400493145,0.2718570828437805,-0.05644676461815834
1772701808968497000,7.153496826171875,-0.01182390283793211,0.25418487191200256,-0.04806819185614586
1772701808978545700,7.163545654296875,-0.03900705277919769,0.25278884172439575,-0.020183032378554344
1772701808988594700,7.1735947265625,-0.05104614049196243,0.22523178160190582,0.024588167667388916
1772701808998642700,7.183642578125,-0.04608360677957535,0.1848239153623581,0.05254549905657768
1772701809008691700,7.193691650390625,-0.04031733050942421,0.15427158772945404,0.08679188787937164
1772701809018740700,7.20374072265625,-0.007198524195700884,0.10028425604104996,0.10792487114667892
1772701809028789800,7.213789794921875,0.00797137338668108,0.07388514280319214,0.11900335550308228
1772701809038838500,7.223838623046875,0.011298460885882378,0.03734497353434563,0.1129252165555954
1772701809048886800,7.23388671875,-0.004351605195552111,0.001740375766530633,0.10493573546409607
1772701809058935600,7.243935546875,-0.020058397203683853,-0.019594740122556686,0.08316599577665329
1772701809068984800,7.25398486328125,-0.036434974521398544,-0.004848551005125046,0.07394745945930481
1772701809079033600,7.26403369140625,-0.04127500206232071,0.02244378998875618,0.07164302468299866
1772701809089081900,7.274081787109375,-0.040665403008461,0.049849316477775574,0.07540766894817352
1772701809099130600,7.284130615234375,-0.024046480655670166,0.12446975708007812,0.10627823323011398
1772701809109179600,7.2941796875,-0.0407562181353569,0.09913457185029984,0.11098936945199966
1772701809119229000,7.30422900390625,-0.036983050405979156,0.0834895670413971,0.1241493821144104
1772701809129277700,7.314277587890625,-0.04279540106654167,0.07223105430603027,0.12738831341266632
1772701809139325700,7.32432568359375,-0.05168023705482483,0.07521486282348633,0.11804620921611786
1772701809149374700,7.334374755859375,-0.059170112013816833,0.07483003288507462,0.1044907197356224
1772701809159423700,7.344423828125,-0.07271308451890945,0.06271851062774658,0.09079435467720032
1772701809169472800,7.35447265625,-0.09585036337375641,0.03220028057694435,0.07487956434488297
1772701809179521800,7.364521728515625,-0.10197456926107407,0.004576109815388918,0.0742553249001503
1772701809189569800,7.37456982421875,-0.11128205060958862,-0.014700116589665413,0.0813252180814743
1772701809199618800,7.384618896484375,-0.11466160416603088,-0.031215710565447807,0.0985310971736908
1772701809209667600,7.39466748046875,-0.11062371730804443,-0.03935060277581215,0.10736853629350662
1772701809219716900,7.404716796875,-0.10127202421426773,-0.035224564373493195,0.12467189133167267
1772701809229765000,7.41476513671875,-0.08613408356904984,-0.013261476531624794,0.12558428943157196
1772701809239813400,7.4248134765625,-0.07510540634393692,0.007429686840623617,0.11154357343912125
1772701809249862100,7.434862060546875,-0.0661579817533493,0.0075902752578258514,0.09907066076993942
1772701809259911400,7.444911376953125,-0.0642642080783844,0.0031041805632412434,0.07510007917881012
1772701809269960200,7.454960205078125,-0.06023910641670227,0.008176437579095364,0.04538612440228462
1772701809280008200,7.46500830078125,-0.047396544367074966,0.006179066374897957,0.01221538707613945
1772701809290057200,7.47505712890625,-0.03753539174795151,0.017589645460247993,-0.014507570303976536
1772701809300106200,7.485106201171875,-0.03404691815376282,0.033426932990550995,-0.020236296579241753
1772701809310155300,7.4951552734375,-0.03416303172707558,0.03209215775132179,-0.001184041379019618
1772701809320204300,7.505204345703125,-0.032408274710178375,0.015367504209280014,0.012137622572481632
1772701809330252300,7.515252197265625,-0.025922410190105438,0.012543754652142525,0.01525778230279684
1772701809340301300,7.52530126953125,-0.011323228478431702,0.01967117376625538,0.02510135807096958
1772701809350350000,7.53535009765625,-0.0025595640763640404,0.02732349932193756,0.03844805806875229
1772701809360399400,7.5453994140625,0.006324474699795246,0.031617581844329834,0.04466360807418823
1772701809370448100,7.5554482421875,0.0108886007219553,0.04297356680035591,0.03780011087656021
1772701809380496400,7.565496337890625,0.011627893894910812,0.05518921837210655,0.024390561506152153
1772701809390545200,7.575545166015625,0.01569480635225773,0.07704977691173553,0.0148074422031641
1772701809400594200,7.58559423828125,0.01471476349979639,0.07651607692241669,0.01949913240969181
1772701809410643500,7.5956435546875,0.008451808243989944,0.046126749366521835,0.022829681634902954
1772701809420692200,7.605692138671875,0.0008780442294664681,0.025708293542265892,0.029333122074604034
1772701809430740200,7.615740234375,-0.0038836877793073654,0.022896526381373405,0.03821103647351265
1772701809440789200,7.625789306640625,-0.00920521654188633,0.023372167721390724,0.025953304022550583
1772701809450838300,7.63583837890625,-0.03208230063319206,0.00794447585940361,0.030970165506005287
1772701809460887300,7.64588720703125,-0.002906573936343193,0.009135973639786243,0.02851632982492447
1772701809470936300,7.655936279296875,0.0012327772565186024,0.05783640220761299,0.00965395849198103
1772701809480984300,7.665984375,-0.005216067191213369,0.04085182398557663,-0.029576001688838005
1772701809491033300,7.676033447265625,-0.015147527679800987,0.006195045076310635,-0.03925259783864021
1772701809501082000,7.68608203125,-0.020769460126757622,-0.008526642806828022,0.05674343928694725
1772701809511131400,7.69613134765625,-0.007905859500169754,-0.11270923912525177,0.15901921689510345
1772701809521179100,7.70617919921875,-0.06247269734740257,-0.08580119162797928,0.14327166974544525
1772701809531228400,7.716228515625,-0.04607348516583443,-0.09338826686143875,0.04565776512026787
1772701809541277200,7.726277099609375,-0.030044984072446823,-0.030465763062238693,-0.04068564251065254
1772701809551326200,7.736326171875,-0.0005281048361212015,-0.004948419518768787,-0.0940905436873436
1772701809561375200,7.746375244140625,0.007253918331116438,-0.02280784398317337,-0.13726066052913666
1772701809571423200,7.75642333984375,-0.009695503860712051,-0.03628530353307724,-0.1559363305568695
1772701809581472300,7.76647216796875,-0.034751322120428085,-0.043832700699567795,-0.15541568398475647
1772701809591521300,7.776521240234375,-0.04489024356007576,-0.04159404709935188,-0.1368473321199417
1772701809601570000,7.786570068359375,-0.032643698155879974,-0.04357357695698738,-0.11625630408525467
1772701809611619300,7.796619384765625,-0.00875008199363947,-0.04095861688256264,-0.10150878131389618
