time,seconds_elapsed,z,y,x
1772701801887879000,0.07287890625,0.026865119114518166,-0.033971212804317474,-0.052079133689403534
1772701801897928000,0.082927978515625,0.033001307398080826,-0.024940967559814453,-0.03225456550717354
1772701801907977200,0.092977294921875,0.03702054172754288,-0.014787206426262856,-0.026213400065898895
1772701801918026000,0.10302587890625,0.03924348205327988,-0.0015222672373056412,-0.03438451141119003
1772701801928075000,0.113074951171875,0.037635818123817444,0.017716089263558388,-0.05560005456209183
1772701801938123000,0.123123046875,0.04105452075600624,0.033939797431230545,-0.08350865542888641
1772701801948172000,0.133172119140625,0.05081199109554291,0.042578987777233124,-0.10059177875518799
1772701801958221000,0.143220947265625,0.054653599858284,0.04250441864132881,-0.11574409902095795
1772701801968270000,0.15327001953125,0.05905473977327347,0.04371216148138046,-0.12010449171066284
1772701801978318000,0.163318115234375,0.05539156496524811,0.04285275936126709,-0.11135174334049225
1772701801988367000,0.1733671875,0.05426633730530739,0.03442038595676422,-0.08331787586212158
1772701801998416000,0.183415771484375,0.05368230864405632,0.02220126986503601,-0.06030763313174248
1772701802008465200,0.193465087890625,0.04255565255880356,0.039848342537879944,-0.04832189902663231
1772701802018513000,0.203512939453125,0.03253684192895889,0.07139667868614197,-0.045521851629018784
1772701802028562200,0.213562255859375,0.017530731856822968,0.10460454225540161,-0.05744590982794762
1772701802038611000,0.22361083984375,0.0022404594346880913,0.1367070972919464,-0.08311744779348373
1772701802048660000,0.233659912109375,0.005264511797577143,0.16790898144245148,-0.114535391330719
1772701802058708000,0.2437080078125,0.018555549904704094,0.19651451706886292,-0.1390785425901413
1772701802068757000,0.253757080078125,0.03634325787425041,0.20818741619586945,-0.15207187831401825
1772701802078806000,0.263805908203125,0.0448848120868206,0.19783863425254822,-0.15654918551445007
1772701802088855000,0.27385498046875,0.058473020792007446,0.15040506422519684,-0.15249493718147278
1772701802098903000,0.283903076171875,0.06200277432799339,0.12293163686990738,-0.120645672082901
1772701802108952000,0.2939521484375,0.06144934892654419,0.05386611074209213,-0.09037397801876068
1772701802119000800,0.304000732421875,0.0571368932723999,0.009148972108960152,-0.063730388879776
1772701802129050000,0.314050048828125,0.03983140364289284,0.01479540579020977,-0.03622712567448616
1772701802139097900,0.324097900390625,0.02161804772913456,0.04408325254917145,-0.020682519301772118
1772701802149147100,0.334147216796875,0.004948095418512821,0.04190148040652275,-0.018573608249425888
1772701802159196000,0.34419580078125,0.011877906508743763,0.01220004353672266,-0.007736407686024904
1772701802169245000,0.354244873046875,0.03320383280515671,-0.01788986846804619,-0.014595769345760345
1772701802179293000,0.36429296875,0.060859695076942444,-0.04606451466679573,-0.023667560890316963
1772701802189342000,0.374342041015625,0.09773143380880356,-0.07912328839302063,-0.03898954391479492
1772701802199391200,0.38439111328125,0.13312271237373352,-0.11030890792608261,-0.05443880707025528
1772701802209440000,0.39443994140625,0.1525895744562149,-0.135148286819458,-0.05924459174275398
1772701802219488000,0.404488037109375,0.149484321475029,-0.14074306190013885,-0.06860426813364029
1772701802229538000,0.4145380859375,0.14372500777244568,-0.12199240177869797,-0.0826893150806427
1772701802239586800,0.4245869140625,0.13872705399990082,-0.0885111466050148,-0.08871684968471527
1772701802249635800,0.4346357421875,0.12991036474704742,-0.08361852169036865,-0.09888920933008194
1772701802259684900,0.444684814453125,0.10420498996973038,-0.09602432698011398,-0.1023624986410141
1772701802269732900,0.45473291015625,0.08136332035064697,-0.11031511425971985,-0.09668677300214767
1772701802279782000,0.464781982421875,0.07014315575361252,-0.10164439678192139,-0.08757982403039932
1772701802289831000,0.474830810546875,0.05990136042237282,-0.10803144425153732,-0.09146993607282639
1772701802299879700,0.484879638671875,0.047067854553461075,-0.11888142675161362,-0.10991285741329193
1772701802309928000,0.494927978515625,0.04918413236737251,-0.07636276632547379,-0.10873106122016907
1772701802319976700,0.504976806640625,0.06429490447044373,-0.01903343014419079,-0.10035967826843262
1772701802330026000,0.51502587890625,0.05801024287939072,0.01618349365890026,-0.0853733941912651
1772701802340074800,0.52507470703125,0.027319708839058876,0.01449158601462841,-0.053471919149160385
1772701802350123000,0.535123046875,-0.021496431902050972,0.039606980979442596,-0.003487990703433752
1772701802360171800,0.545171875,-0.07537031173706055,0.0632326751947403,0.0392829105257988
1772701802370220800,0.555220703125,-0.13829566538333893,0.09080928564071655,0.0745314508676529
1772701802380269800,0.565269775390625,-0.18240320682525635,0.10322574526071548,0.13053694367408752
1772701802390317800,0.57531787109375,-0.21524299681186676,0.07657058537006378,0.20785728096961975
1772701802400366800,0.585366943359375,-0.23552723228931427,-0.009890265762805939,0.27826380729675293
1772701802410415900,0.595415771484375,-0.25775933265686035,-0.08624956011772156,0.33742180466651917
1772701802420464600,0.605464599609375,-0.2708091139793396,-0.17006297409534454,0.393245667219162
1772701802430513000,0.615512939453125,-0.2686466574668884,-0.2618616223335266,0.44048625230789185
1772701802440561700,0.625561767578125,-0.27127864956855774,-0.36468440294265747,0.478206992149353
1772701802450611000,0.63561083984375,-0.292192280292511,-0.47531911730766296,0.5049248933792114
1772701802460659700,0.64565966796875,-0.32527005672454834,-0.5689918398857117,0.5272675156593323
1772701802470708000,0.6557080078125,-0.35590118169784546,-0.6660764217376709,0.5152461528778076
1772701802480756700,0.6657568359375,-0.36368265748023987,-0.7682328820228577,0.475279301404953
1772701802490805800,0.6758056640625,-0.35651424527168274,-0.8303112983703613,0.4132220447063446
1772701802500854800,0.685854736328125,-0.3392542898654938,-0.8471936583518982,0.3701659142971039
1772701802510903800,0.69590380859375,-0.3084971606731415,-0.8688271641731262,0.3197161853313446
1772701802520951800,0.705951904296875,-0.2598433196544647,-0.8492832779884338,0.24849820137023926
1772701802531000800,0.716000732421875,-0.18936792016029358,-0.8475353717803955,0.17403730750083923
1772701802541049900,0.7260498046875,-0.07871676981449127,-0.8707528114318848,0.06490947306156158
1772701802551099000,0.736098876953125,0.023161090910434723,-0.909020185470581,-0.029621440917253494
1772701802561146600,0.746146728515625,0.10418111085891724,-0.8906499743461609,-0.10796818137168884
1772701802571196000,0.75619580078125,0.13667970895767212,-0.8454183340072632,-0.19688406586647034
1772701802581245000,0.766244873046875,0.11820323020219803,-0.759139358997345,-0.2724962830543518
1772701802591293700,0.776293701171875,0.08654741942882538,-0.6419848203659058,-0.34474101662635803
1772701802601342000,0.786342041015625,0.08208103477954865,-0.5272585153579712,-0.40544164180755615
1772701802611390700,0.796390625,0.08703111112117767,-0.43974095582962036,-0.4353160858154297
1772701802621440000,0.80643994140625,0.10601305961608887,-0.35869911313056946,-0.45550552010536194
1772701802631488800,0.81648876953125,0.1304844319820404,-0.21792666614055634,-0.44465532898902893
1772701802641537000,0.826537109375,0.1446780115365982,-0.14906345307826996,-0.405984103679657
1772701802651585800,0.836585693359375,0.09028566628694534,-0.3001995086669922,-0.45689088106155396
1772701802661634800,0.846634765625,0.02636687457561493,-0.45337414741516113,-0.5133054256439209
1772701802671683800,0.856683837890625,0.0016521617071703076,-0.49881353974342346,-0.5122091770172119
1772701802681731800,0.86673193359375,0.0007618669187650084,-0.4784741997718811,-0.49685466289520264
1772701802691780900,0.87678076171875,0.007827362976968288,-0.39732810854911804,-0.4849350154399872
1772701802701830000,0.886829833984375,0.01738305203616619,-0.2278410792350769,-0.4547523558139801
1772701802711878700,0.896878662109375,0.05182141438126564,0.008742300793528557,-0.4018661379814148
1772701802721928000,0.906927978515625,0.10239430516958237,0.19142849743366241,-0.33853402733802795
1772701802731975700,0.9169755859375,0.1400706171989441,0.24690468609333038,-0.2806479334831238
1772701802742025000,0.92702490234375,0.17113666236400604,0.2299608439207077,-0.22084853053092957
1772701802752073700,0.93707373046875,0.18996627628803253,0.24462179839611053,-0.16008850932121277
1772701802762122800,0.947122802734375,0.19894832372665405,0.33249253034591675,-0.11198142170906067
1772701802772170800,0.957170654296875,0.20250926911830902,0.42132294178009033,-0.08270727097988129
1772701802782219800,0.9672197265625,0.2004660964012146,0.48138493299484253,-0.06869718432426453
1772701802792268800,0.977268798828125,0.2184993028640747,0.5528924465179443,-0.044299062341451645
1772701802802317800,0.98731787109375,0.24858929216861725,0.6405735611915588,-0.012853522785007954
1772701802812365800,0.99736572265625,0.2946552634239197,0.6383298635482788,0.01816711388528347
1772701802822414800,1.007414794921875,0.3246922492980957,0.48980775475502014,0.037141069769859314
1772701802832463600,1.017463623046875,0.3411684036254883,0.24241416156291962,-0.024368738755583763
1772701802842513000,1.027512939453125,0.4148194491863251,0.00018953857943415642,-0.17989413440227509
1772701802852560600,1.037560546875,0.48971250653266907,0.0013613230548799038,-0.30837464332580566
1772701802862610000,1.04760986328125,0.40475794672966003,0.12005653977394104,-0.36035263538360596
1772701802872658700,1.05765869140625,0.18112590909004211,-0.13671809434890747,-0.5237457752227783
1772701802882707700,1.067707763671875,0.034306906163692474,-0.6168972253799438,-0.7842532992362976
1772701802892757000,1.077757080078125,0.013167479075491428,-0.7851816415786743,-0.85212242603302
1772701802902804700,1.0878046875,0.07379887253046036,-0.7670316696166992,-0.714118480682373
1772701802912854000,1.09785400390625,0.16993805766105652,-0.679527223110199,-0.45769569277763367
1772701802922902800,1.10790283203125,0.22325560450553894,-0.5791404247283936,-0.1960640549659729
1772701802932951800,1.117951904296875,0.17180800437927246,-0.6260709166526794,-0.05025003105401993
1772701802942999800,1.127999755859375,0.08666940778493881,-0.6499184370040894,-0.02764831855893135
1772701802953048800,1.138048828125,0.07506633549928665,-0.5876972675323486,-0.11203152686357498
1772701802963097900,1.148097900390625,0.08083420991897583,-0.5149954557418823,-0.24722343683242798
1772701802973147000,1.15814697265625,0.12930233776569366,-0.5165160894393921,-0.383899062871933
1772701802983195000,1.16819482421875,0.20245005190372467,-0.5922383069992065,-0.4735320210456848
1772701802993244000,1.178243896484375,0.2998962998390198,-0.6728901267051697,-0.4691232144832611
1772701803003292700,1.188292724609375,0.3702290654182434,-0.687589168548584,-0.3391660153865814
1772701803013342000,1.198342041015625,0.38381269574165344,-0.7098705768585205,-0.12405939400196075
1772701803023389700,1.2083896484375,0.3143657147884369,-0.7282088398933411,0.09629002213478088
1772701803033439000,1.21843896484375,0.15197312831878662,-0.5847401022911072,0.2763805687427521
1772701803043487700,1.22848779296875,-0.0316169373691082,-0.47678595781326294,0.3717411756515503
1772701803053536800,1.238536865234375,-0.20896722376346588,-0.2365541011095047,0.43360990285873413
1772701803063584800,1.248584716796875,-0.3241249918937683,0.159450501203537,0.4573085904121399
1772701803073633800,1.2586337890625,-0.40425506234169006,0.513239324092865,0.4638945460319519
1772701803083682800,1.268682861328125,-0.4714388847351074,0.4988390803337097,0.4003070592880249
1772701803093731800,1.27873193359375,-0.5119142532348633,0.2115589678287506,0.3543332815170288
1772701803103780900,1.28878076171875,-0.5160692930221558,-0.002799385692924261,0.32420891523361206
1772701803113828900,1.298828857421875,-0.49712350964546204,-0.12823782861232758,0.316091388463974
1772701803123878000,1.3088779296875,-0.49530377984046936,-0.16062745451927185,0.3255663812160492
1772701803133927000,1.318927001953125,-0.4287116527557373,-0.01592719741165638,0.3382710814476013
1772701803143975700,1.3289755859375,-0.36378058791160583,0.39749738574028015,0.3525512218475342
1772701803154024000,1.33902392578125,-0.25707945227622986,0.9110568165779114,0.3727845847606659
1772701803164072700,1.34907275390625,-0.12338609993457794,1.1491637229919434,0.37163597345352173
1772701803174122000,1.3591220703125,0.0556027851998806,1.2107254266738892,0.3878193497657776
1772701803184171000,1.3691708984375,0.2655203342437744,1.3319913148880005,0.35281795263290405
1772701803194218800,1.37921875,0.4538247287273407,1.5905696153640747,0.31205427646636963
1772701803204267800,1.389267822265625,0.6299757957458496,1.7933305501937866,0.2658787965774536
1772701803214316800,1.39931689453125,0.7656905055046082,1.875946283340454,0.24989117681980133
1772701803224365000,1.409364990234375,0.8671292662620544,1.8145627975463867,0.2641145586967468
1772701803234413000,1.4194130859375,0.9375723004341125,1.6110082864761353,0.2695036232471466
1772701803244462000,1.429462158203125,0.9696021676063538,1.4263663291931152,0.25046786665916443
1772701803254511000,1.439510986328125,0.9658163785934448,1.340038537979126,0.18906819820404053
1772701803264559900,1.449559814453125,0.9538007378578186,1.3877999782562256,0.09670151025056839
1772701803274608000,1.459608154296875,0.9357295632362366,1.284226655960083,-0.01448111142963171
1772701803284657000,1.469656982421875,0.9100379943847656,0.7723329067230225,-0.1449483186006546
1772701803294706200,1.4797060546875,0.908146858215332,-0.22053873538970947,-0.2641613781452179
1772701803304755200,1.489755126953125,0.9108198881149292,-1.3073595762252808,-0.31353241205215454
1772701803314804000,1.499803955078125,0.9292090535163879,-2.183168411254883,-0.32038816809654236
1772701803324852000,1.50985205078125,0.9214826822280884,-2.516042709350586,-0.3014054298400879
1772701803334901000,1.51990087890625,0.8890212774276733,-2.221130132675171,-0.2649511992931366
1772701803344950300,1.5299501953125,0.8550641536712646,-1.6343157291412354,-0.29644522070884705
1772701803354999000,1.5399990234375,0.9307199716567993,-1.0672858953475952,-0.41303062438964844
1772701803365047000,1.550047119140625,1.106196403503418,-0.27346473932266235,-0.579095721244812
1772701803375096000,1.560095947265625,1.3148918151855469,0.8297089338302612,-0.6544678807258606
1772701803385145000,1.57014501953125,1.660014033317566,1.1694204807281494,-0.6243882775306702
1772701803395194000,1.580194091796875,1.5129423141479492,0.9707822799682617,-0.9045876860618591
1772701803405242000,1.5902421875,1.209898829460144,0.6675822138786316,-1.081166386604309
1772701803415291100,1.600291015625,0.8504071831703186,0.5955215096473694,-1.0162898302078247
1772701803425340200,1.610340087890625,0.6546736359596252,0.7265934944152832,-0.7291262149810791
1772701803435389000,1.620388916015625,0.5278176069259644,0.506289005279541,-0.4458656907081604
1772701803445437200,1.630437255859375,0.5349412560462952,0.04755396395921707,-0.14502756297588348
1772701803455486000,1.64048583984375,0.42913490533828735,-0.4805546700954437,0.20527830719947815
1772701803465535200,1.65053515625,0.3171961307525635,-0.6887935996055603,0.644731879234314
1772701803475584000,1.660583984375,0.2615402638912201,-0.5118017792701721,1.035866379737854
1772701803485633000,1.670633056640625,0.2605961859226227,-0.10107174515724182,1.3418422937393188
1772701803495681000,1.680680908203125,0.36498409509658813,0.28116294741630554,1.5706666707992554
1772701803505730000,1.69072998046875,0.42804136872291565,0.5541625618934631,1.6102604866027832
1772701803515779000,1.700779052734375,0.3979632556438446,0.18234001100063324,1.414773941040039
1772701803525828000,1.710828125,0.3209342360496521,-0.6568047404289246,1.1155067682266235
1772701803535876000,1.7208759765625,0.18422743678092957,-1.2030761241912842,0.8058306574821472
1772701803545925000,1.730925048828125,0.05664897337555885,-0.9044730067253113,0.6302173137664795
1772701803555974000,1.740973876953125,-0.0789487287402153,-0.5576692223548889,0.4008491337299347
1772701803566023200,1.751023193359375,-0.14479538798332214,-0.3881363868713379,0.14129693806171417
1772701803576071000,1.76107080078125,-0.1810806542634964,0.05732104927301407,-0.009811721742153168
1772701803586120200,1.7711201171875,-0.2437554895877838,0.844243049621582,-0.15032117068767548
1772701803596169000,1.7811689453125,-0.30665209889411926,1.6733607053756714,-0.3039993345737457
1772701803606218000,1.791218017578125,-0.3503601849079132,2.210893154144287,-0.45212966203689575
1772701803616266000,1.801265869140625,-0.320415735244751,2.2591960430145264,-0.5576580762863159
1772701803626315000,1.81131494140625,-0.2121446430683136,1.7878642082214355,-0.5881126523017883
1772701803636364000,1.821364013671875,-0.13905633985996246,0.8983646631240845,-0.5691623687744141
1772701803646413000,1.8314130859375,-0.10469570755958557,-0.13082322478294373,-0.5211806893348694
1772701803656462000,1.841462158203125,-0.0899105817079544,-1.0979669094085693,-0.499192476272583
1772701803666510000,1.851510009765625,-0.09362276643514633,-1.6921381950378418,-0.5423492789268494
1772701803676559000,1.86155908203125,-0.10830257087945938,-1.550458312034607,-0.5539864301681519
1772701803686608100,1.871608154296875,-0.12156005203723907,-0.5767728686332703,-0.5051666498184204
1772701803696657200,1.8816572265625,-0.09990731626749039,0.8589519262313843,-0.4261903464794159
1772701803706705200,1.891705078125,-0.056463707238435745,1.9744333028793335,-0.36592113971710205
1772701803716754200,1.901754150390625,-0.05837053805589676,2.0311596393585205,-0.3904498815536499
1772701803726803000,1.911802978515625,-0.06575468182563782,1.4908685684204102,-0.438525527715683
1772701803736852200,1.921852294921875,-0.042865291237831116,0.9677292704582214,-0.4029133915901184
1772701803746900000,1.93189990234375,-0.0772877112030983,0.7260996103286743,-0.3045945465564728
1772701803756949200,1.94194921875,-0.12196969240903854,0.6750234365463257,-0.1716492921113968
1772701803766998000,1.951998046875,-0.1604028344154358,0.7422059774398804,-0.032500188797712326
1772701803777047000,1.962047119140625,-0.1755480170249939,0.9428431391716003,0.10170517861843109
1772701803787095000,1.972094970703125,-0.19385138154029846,1.190316915512085,0.1852320283651352
1772701803797144000,1.98214404296875,-0.2340380996465683,1.3645137548446655,0.24124594032764435
1772701803807193000,1.992193115234375,-0.2499600648880005,1.3764654397964478,0.22556763887405396
1772701803817242000,2.0022421875,-0.2801167964935303,1.2401704788208008,0.11252333968877792
1772701803827291100,2.012291015625,-0.2937319576740265,1.0147525072097778,-0.031106261536478996
1772701803837339100,2.022339111328125,-0.26882585883140564,0.8912075161933899,-0.18484564125537872
1772701803847388000,2.032387939453125,-0.24713759124279022,0.8618147373199463,-0.32272869348526
1772701803857437200,2.042437255859375,-0.24390484392642975,0.8202911019325256,-0.43732643127441406
1772701803867486000,2.05248583984375,-0.24845193326473236,0.7762418389320374,-0.5300907492637634
1772701803877534200,2.0625341796875,-0.22202268242835999,0.7244830131530762,-0.6172763705253601
1772701803887583000,2.0725830078125,-0.16240808367729187,0.6199819445610046,-0.7131434679031372
1772701803897632000,2.082632080078125,-0.12428021430969238,0.5604207515716553,-0.764761209487915
1772701803907681000,2.092680908203125,-0.10689963400363922,0.46168458461761475,-0.7619107961654663
1772701803917729000,2.10272900390625,-0.1003432348370552,0.23202916979789734,-0.7153746485710144
1772701803927778000,2.112778076171875,-0.10767438262701035,-0.15662936866283417,-0.6297966241836548
1772701803937827000,2.1228271484375,-0.06599365174770355,-0.6196994781494141,-0.4930327534675598
1772701803947876000,2.1328759765625,0.034304723143577576,-1.0279409885406494,-0.2819535434246063
1772701803957924000,2.142924072265625,0.1740713119506836,-1.3623777627944946,-0.003147984854876995
1772701803967973000,2.15297314453125,0.3293122947216034,-1.6823328733444214,0.3640984892845154
1772701803978022100,2.163022216796875,0.47111818194389343,-2.021573781967163,0.7680405974388123
1772701803988071200,2.1730712890625,0.6145911812782288,-2.319319248199463,1.126918911933899
1772701803998120200,2.1831201171875,0.7279974818229675,-2.6475143432617188,1.354088544845581
1772701804008168000,2.19316796875,0.7468015551567078,-3.0831804275512695,1.4166040420532227
1772701804018217000,2.203217041015625,0.6804548501968384,-3.4535109996795654,1.3261165618896484
1772701804028266200,2.213266357421875,0.49951618909835815,-3.4216651916503906,1.1378289461135864
1772701804038315000,2.22331494140625,0.24852895736694336,-2.977856159210205,0.8947226405143738
1772701804048363300,2.23336328125,-0.02737666852772236,-2.5563981533050537,0.6323760151863098
1772701804058412000,2.243412109375,-0.25762778520584106,-2.243473529815674,0.39631733298301697
1772701804068461000,2.2534609375,-0.43616077303886414,-1.6606806516647339,0.2556888461112976
1772701804078510000,2.263510009765625,-0.5482114553451538,-1.2874332666397095,0.2116563320159912
1772701804088558000,2.27355810546875,-0.5971590280532837,-1.4781419038772583,0.22619664669036865
1772701804098607000,2.283607177734375,-0.5238053202629089,-1.8726423978805542,0.2896275818347931
1772701804108656000,2.29365625,-0.38447242975234985,-2.1613268852233887,0.3600657880306244
1772701804118705200,2.303705078125,-0.25918224453926086,-2.143303632736206,0.4302768409252167
1772701804128754200,2.313754150390625,-0.11567248404026031,-1.888546347618103,0.46890467405319214
1772701804138802200,2.32380224609375,-0.01717418059706688,-1.4236373901367188,0.45399877429008484
1772701804148851200,2.333851318359375,0.05828622356057167,-0.8974546790122986,0.4106464982032776
1772701804158900000,2.34389990234375,0.1703445315361023,-0.40599969029426575,0.33765366673469543
1772701804168949200,2.35394921875,0.3015821874141693,0.03633300960063934,0.21947510540485382
1772701804178997000,2.3639970703125,0.40190714597702026,0.5219364166259766,0.05775074288249016
1772701804189046300,2.37404638671875,0.39705726504325867,0.919477641582489,-0.13044047355651855
1772701804199095000,2.384094970703125,0.3303947448730469,1.1767990589141846,-0.3219231963157654
1772701804209144000,2.39414404296875,0.2517595887184143,1.1854248046875,-0.5160684585571289
1772701804219192000,2.404192138671875,0.10684902966022491,1.1478344202041626,-0.6631173491477966
1772701804229241000,2.414240966796875,-0.07942762970924377,1.0398837327957153,-0.7728651762008667
1772701804239290000,2.4242900390625,-0.21430815756320953,0.7363162040710449,-0.8242707252502441
1772701804249339100,2.434339111328125,-0.21844510734081268,0.265034943819046,-0.7594869136810303
1772701804259387100,2.44438720703125,-0.11564216017723083,-0.06924138218164444,-0.6423420310020447
1772701804269436200,2.454436279296875,-0.02740391343832016,-0.12969540059566498,-0.5585947036743164
1772701804279485200,2.464485107421875,0.04575378820300102,0.1401117593050003,-0.48908156156539917
1772701804289534200,2.4745341796875,0.09611283242702484,0.5464552640914917,-0.4714791476726532
1772701804299583200,2.484583251953125,0.14641869068145752,0.784378170967102,-0.45681440830230713
1772701804309631200,2.49463134765625,0.2153807133436203,0.7705435752868652,-0.44977593421936035
1772701804319680300,2.50468017578125,0.294725626707077,0.5934537649154663,-0.41922494769096375
1772701804329729300,2.514729248046875,0.3576081693172455,0.36476707458496094,-0.38874855637550354
1772701804339778300,2.5247783203125,0.38768377900123596,0.11162341386079788,-0.39674386382102966
1772701804349826300,2.534826416015625,0.38877007365226746,-0.08144351840019226,-0.4441646337509155
1772701804359875300,2.544875244140625,0.3865480422973633,-0.10409361124038696,-0.5031500458717346
1772701804369924400,2.55492431640625,0.3895702064037323,0.11540278792381287,-0.5615888833999634
1772701804379973000,2.56497314453125,0.42379069328308105,0.4378189444541931,-0.6244811415672302
1772701804390021400,2.575021484375,0.4630049467086792,0.7969560623168945,-0.6584518551826477
1772701804400070100,2.585070068359375,0.5158805251121521,1.022755742073059,-0.6563630700111389
1772701804410119200,2.595119140625,0.5697147250175476,1.0001492500305176,-0.6381614208221436
1772701804420168200,2.605168212890625,0.6049239635467529,0.8309438824653625,-0.6302960515022278
1772701804430216200,2.61521630859375,0.6417661309242249,0.5704448819160461,-0.6802729368209839
1772701804440265200,2.62526513671875,0.6681119799613953,0.27447161078453064,-0.7896451950073242
1772701804450314200,2.635314208984375,0.6874257326126099,-0.09976165741682053,-0.9281446933746338
1772701804460363300,2.64536328125,0.720122754573822,-0.6379004120826721,-0.9785352349281311
1772701804470412300,2.655412353515625,0.7734628915786743,-1.2996876239776611,-0.8991607427597046
1772701804480460300,2.665460205078125,0.7595828771591187,-1.827056646347046,-0.7233145236968994
1772701804490509300,2.67550927734375,0.6573473215103149,-2.0339114665985107,-0.5752981305122375
1772701804500558000,2.68555810546875,0.5672906637191772,-1.8996416330337524,-0.5404991507530212
1772701804510607400,2.695607421875,0.5387303829193115,-1.5740904808044434,-0.5874751806259155
1772701804520655000,2.705655029296875,0.5766203999519348,-0.9948899149894714,-0.7839596271514893
1772701804530704400,2.715704345703125,0.7556966543197632,-0.033429890871047974,-1.121874451637268
1772701804540753200,2.725753173828125,1.1240746974945068,1.1780147552490234,-1.1979564428329468
1772701804550802200,2.73580224609375,1.2589731216430664,2.317981719970703,-0.8846472501754761
1772701804560850200,2.74585009765625,0.8612324595451355,2.52755069732666,-0.5846861600875854
1772701804570899200,2.755899169921875,0.38033831119537354,1.1486573219299316,-0.2855125665664673
1772701804580948200,2.7659482421875,-0.08646218478679657,-0.031770799309015274,-0.17075853049755096
1772701804590997200,2.775997314453125,-0.3846030533313751,-0.13763146102428436,-0.10513478517532349
1772701804601046300,2.78604638671875,-0.4076843857765198,0.2860367000102997,0.13804124295711517
1772701804611094300,2.79609423828125,-0.33347752690315247,0.8185296058654785,0.4592701494693756
1772701804621143000,2.80614306640625,-0.22075983881950378,1.2469679117202759,0.6917209029197693
1772701804631192300,2.8161923828125,-0.07640478760004044,1.4379128217697144,0.840734601020813
1772701804641241300,2.826241455078125,0.03879097104072571,1.180952548980713,0.9547863006591797
1772701804651289300,2.836289306640625,-0.04290628805756569,0.7140988707542419,0.9796884655952454
1772701804661338400,2.84633837890625,-0.13961590826511383,0.296952486038208,0.9527163505554199
1772701804671387100,2.85638720703125,-0.22648608684539795,0.09236177057027817,0.875598669052124
1772701804681436400,2.8664365234375,-0.29054003953933716,0.02701534330844879,0.7560470700263977
1772701804691484200,2.876484130859375,-0.34833356738090515,-0.06949015706777573,0.584987461566925
1772701804701533400,2.886533447265625,-0.4595716893672943,-0.33170071244239807,0.35389140248298645
1772701804711582200,2.896582275390625,-0.5940708518028259,-0.6761484146118164,0.11160685867071152
1772701804721631200,2.90663134765625,-0.7059646248817444,-0.9932149052619934,-0.09170231223106384
1772701804731680300,2.91668017578125,-0.7696967124938965,-1.2397431135177612,-0.21764612197875977
1772701804741728300,2.926728271484375,-0.8159969449043274,-1.3451930284500122,-0.2711469531059265
1772701804751777300,2.93677734375,-0.8254674077033997,-1.2521456480026245,-0.20687448978424072
1772701804761826300,2.946826416015625,-0.8036255836486816,-1.0914344787597656,-0.07745885103940964
1772701804771875000,2.956875,-0.7678753137588501,-0.7439964413642883,0.1499125212430954
1772701804781923300,2.96692333984375,-0.7391896843910217,-0.08003860712051392,0.4242948293685913
1772701804791972000,2.97697216796875,-0.7198002338409424,0.7518282532691956,0.6296013593673706
1772701804802021400,2.987021484375,-0.7058648467063904,1.3934495449066162,0.6326805353164673
1772701804812070100,2.997070068359375,-0.7300767302513123,1.8654195070266724,0.5641369223594666
1772701804822118400,3.007118408203125,-0.7582249641418457,2.2122440338134766,0.5064178705215454
1772701804832167200,3.017167236328125,-0.7593384385108948,2.359513998031616,0.4569517970085144
1772701804842216200,3.02721630859375,-0.6897244453430176,2.193509817123413,0.40931645035743713
1772701804852265200,3.03726513671875,-0.6053589582443237,1.6984620094299316,0.33475062251091003
1772701804862314200,3.047314208984375,-0.5347672700881958,1.0563991069793701,0.18723221123218536
1772701804872362200,3.0573623046875,-0.48316746950149536,0.3875938057899475,-0.0049071405082941055
1772701804882411300,3.067411376953125,-0.45173418521881104,-0.125966414809227,-0.18755072355270386
1772701804892460000,3.0774599609375,-0.3820832073688507,-0.25077545642852783,-0.3351372480392456
1772701804902509300,3.08750927734375,-0.27231621742248535,0.09692125767469406,-0.43074631690979004
1772701804912557000,3.09755712890625,-0.15086758136749268,0.6413493752479553,-0.5057817101478577
1772701804922606300,3.1076064453125,-0.019503358751535416,1.0120817422866821,-0.5956417322158813
1772701804932655400,3.1176552734375,0.07353843748569489,1.3146055936813354,-0.6804311871528625
1772701804942704000,3.1277041015625,0.13939468562602997,1.5335665941238403,-0.7820180654525757
1772701804952752000,3.137752197265625,0.1988380402326584,1.613980770111084,-0.8855319023132324
1772701804962801200,3.14780126953125,0.2885624170303345,1.4463082551956177,-0.9831221103668213
1772701804972850400,3.157850341796875,0.36061984300613403,1.1498876810073853,-1.037549614906311
1772701804982899200,3.167899169921875,0.39188116788864136,0.8874834179878235,-1.0186172723770142
1772701804992948200,3.1779482421875,0.3808754086494446,0.5765157341957092,-0.9375914335250854
1772701805002996200,3.187996337890625,0.335119366645813,0.19718517363071442,-0.7879571914672852
1772701805013045200,3.198045166015625,0.2679070234298706,-0.23680195212364197,-0.5634580254554749
1772701805023094300,3.20809423828125,0.25984489917755127,-0.6755818128585815,-0.31933867931365967
1772701805033143300,3.218143310546875,0.3022141754627228,-1.0916348695755005,-0.054450009018182755
1772701805043191300,3.22819140625,0.26714494824409485,-1.3239978551864624,0.1309547871351242
1772701805053240300,3.238240234375,0.2279735654592514,-1.3482022285461426,0.2244463860988617
1772701805063289000,3.2482890625,0.23527249693870544,-1.4763578176498413,0.306053102016449
1772701805073338400,3.25833837890625,0.17082959413528442,-1.911515474319458,0.5383235812187195
1772701805083386000,3.26838623046875,0.0035310410894453526,-2.812567710876465,1.0591599941253662
1772701805093435400,3.278435302734375,-0.2176966816186905,-3.824859380722046,1.6318583488464355
1772701805103484200,3.288484130859375,-0.1600404977798462,-3.7013769149780273,1.8475199937820435
1772701805113533200,3.298533203125,-0.04727479815483093,-2.4606449604034424,1.6454721689224243
1772701805123582200,3.308582275390625,-0.12417321652173996,-1.7223186492919922,1.2088632583618164
1772701805133630200,3.318630126953125,-0.2762676775455475,-1.6869279146194458,0.7831885814666748
1772701805143679200,3.32867919921875,-0.4718456566333771,-1.6342597007751465,0.38914552330970764
1772701805153728300,3.338728271484375,-0.6057847738265991,-1.434741497039795,0.05526714771986008
1772701805163777000,3.348777099609375,-0.7033291459083557,-1.1739238500595093,-0.23060934245586395
1772701805173825300,3.3588251953125,-0.7906949520111084,-1.0062147378921509,-0.48981961607933044
1772701805183874000,3.3688740234375,-0.8036613464355469,-1.0943431854248047,-0.7133072018623352
1772701805193923300,3.37892333984375,-0.7577111721038818,-1.3394114971160889,-0.892188549041748
1772701805203972400,3.388972412109375,-0.6399031281471252,-1.4635506868362427,-0.9720740914344788
1772701805214021000,3.399021240234375,-0.5167612433433533,-1.3564202785491943,-0.9402921795845032
1772701805224069000,3.409069091796875,-0.3989970088005066,-1.121077060699463,-0.7740756273269653
1772701805234118100,3.4191181640625,-0.2788389027118683,-0.8305924534797668,-0.50444495677948
1772701805244167200,3.429167236328125,-0.16700708866119385,-0.5779657363891602,-0.21446292102336884
1772701805254216200,3.43921630859375,-0.04364893585443497,-0.35540375113487244,0.0532928891479969
1772701805264264200,3.44926416015625,0.027652250602841377,-0.3347517251968384,0.3570793569087982
1772701805274313200,3.459313232421875,0.06970249861478806,-0.16733607649803162,0.5918428301811218
1772701805284362000,3.469362060546875,0.08615202456712723,0.12420275807380676,0.7547492980957031
1772701805294411300,3.479411376953125,0.1458643674850464,0.4601112902164459,0.8461287617683411
1772701805304459000,3.489458984375,0.24366161227226257,0.7829455733299255,0.895869791507721
1772701805314508300,3.49950830078125,0.3531641364097595,1.1563596725463867,0.8632878661155701
1772701805324557000,3.50955712890625,0.43145570158958435,1.5040110349655151,0.7710460424423218
1772701805334606000,3.519606201171875,0.4730217754840851,1.7892765998840332,0.656578004360199
1772701805344655000,3.529655029296875,0.4816012978553772,2.000782012939453,0.5575259327888489
1772701805354703000,3.539703125,0.4480228126049042,2.057553768157959,0.5245797038078308
1772701805364752100,3.549752197265625,0.40203654766082764,1.9963223934173584,0.5112466216087341
1772701805374801200,3.55980126953125,0.30700671672821045,1.7807042598724365,0.4543333351612091
1772701805384850000,3.569849853515625,0.16524624824523926,1.3358211517333984,0.33893975615501404
1772701805394898200,3.579898193359375,0.018002206459641457,0.6397094130516052,0.14854183793067932
1772701805404947000,3.589947021484375,-0.0009503525798209012,-0.01954227313399315,-0.032748859375715256
1772701805414996200,3.599996337890625,0.07382934540510178,-0.33840495347976685,-0.11675295233726501
1772701805425045200,3.610045166015625,0.09334152936935425,-0.37871479988098145,-0.23505428433418274
1772701805435093200,3.62009326171875,0.1132073774933815,-0.2517020106315613,-0.36188095808029175
1772701805445142000,3.63014208984375,0.16142751276493073,-0.12194613367319107,-0.4665084779262543
1772701805455191000,3.64019091796875,0.21810942888259888,-0.07119720429182053,-0.5135116577148438
1772701805465240300,3.650240234375,0.2594739496707916,-0.08308834582567215,-0.5271140933036804
1772701805475289000,3.6602890625,0.2821774184703827,-0.10982967913150787,-0.5385606288909912
1772701805485337300,3.67033740234375,0.2861397862434387,-0.18716201186180115,-0.5400577187538147
1772701805495386000,3.68038623046875,0.29798606038093567,-0.27856677770614624,-0.533449649810791
1772701805505435100,3.69043505859375,0.32149559259414673,-0.3549233078956604,-0.5226945877075195
1772701805515484200,3.700484130859375,0.3583923578262329,-0.39069780707359314,-0.5316867232322693
1772701805525532200,3.7105322265625,0.3971371054649353,-0.37616029381752014,-0.5481829047203064
1772701805535581200,3.720581298828125,0.42527127265930176,-0.27147969603538513,-0.5701289772987366
1772701805545630200,3.730630126953125,0.4164576232433319,-0.044363878667354584,-0.5813924670219421
1772701805555679000,3.740678955078125,0.3753131031990051,0.25418341159820557,-0.5558596849441528
1772701805565728300,3.750728271484375,0.3354569375514984,0.4252030551433563,-0.47214454412460327
1772701805575776000,3.76077587890625,0.31613436341285706,0.3167532980442047,-0.35036909580230713
1772701805585825300,3.7708251953125,0.3096185028553009,-0.05709698423743248,-0.22217176854610443
1772701805595874000,3.7808740234375,0.3172870874404907,-0.5253539085388184,-0.08382001519203186
1772701805605923000,3.790923095703125,0.30312851071357727,-0.8858435750007629,0.040240298956632614
1772701805615971000,3.80097119140625,0.22159451246261597,-1.0490716695785522,0.07464461028575897
1772701805626020000,3.81102001953125,0.05255565792322159,-1.0871185064315796,-0.009318622760474682
1772701805636069000,3.821069091796875,-0.17846263945102692,-0.97148597240448,-0.1959039568901062
1772701805646118100,3.8311181640625,-0.303381085395813,-0.6219034194946289,-0.5815290808677673
1772701805656166100,3.841166259765625,-0.2339540719985962,0.06748726963996887,-0.8776747584342957
1772701805666215200,3.851215087890625,0.20488254725933075,0.7101356387138367,-0.7309136390686035
1772701805676264000,3.861263916015625,0.5510929822921753,1.2593809366226196,-0.18820618093013763
1772701805686313200,3.871313232421875,0.2689681053161621,1.2317253351211548,-0.001897962298244238
1772701805696362200,3.8813623046875,0.05054868757724762,0.14436034858226776,-0.2513863444328308
1772701805706410200,3.89141015625,-0.03848550468683243,-0.11804664134979248,-0.5518884062767029
1772701805716459000,3.901458984375,-0.11933241039514542,-0.2508595585823059,-0.6125173568725586
1772701805726508000,3.911508056640625,-0.1038435846567154,-0.21271856129169464,-0.45737430453300476
1772701805736557300,3.921557373046875,-0.08441849052906036,0.25327789783477783,-0.1909034550189972
1772701805746605000,3.93160498046875,0.03646010905504227,0.7293946743011475,0.06272047013044357
1772701805756654000,3.941654052734375,0.11579301953315735,0.6984545588493347,0.21404367685317993
1772701805766703000,3.951703125,0.08537784218788147,0.19918300211429596,0.2568492591381073
1772701805776752000,3.961752197265625,0.06877995282411575,-0.21100479364395142,0.29511380195617676
1772701805786801200,3.97180126953125,0.1113777905702591,-0.3867860436439514,0.28102579712867737
1772701805796849200,3.98184912109375,0.1539423018693924,-0.39914897084236145,0.2626188099384308
1772701805806898200,3.991898193359375,0.15013951063156128,-0.3449733257293701,0.2911715507507324
1772701805816947200,4.001947265625,0.15680673718452454,-0.18330107629299164,0.3000260293483734
1772701805826996000,4.011995849609375,0.16015367209911346,-0.061185650527477264,0.2871415317058563
1772701805837044200,4.022044189453125,0.15276047587394714,-0.0933007076382637,0.26868847012519836
1772701805847093000,4.032093017578125,0.14101527631282806,-0.13522934913635254,0.3024419844150543
1772701805857142300,4.042142333984375,0.10111366957426071,-0.1797235906124115,0.40814098715782166
1772701805867191000,4.05219091796875,0.0402538888156414,-0.14542046189308167,0.5645561218261719
1772701805877240000,4.062239990234375,-0.02559329941868782,0.005135496612638235,0.7399228811264038
1772701805887288000,4.0722880859375,-0.08942714333534241,0.11613524705171585,0.8824304938316345
1772701805897337000,4.082337158203125,-0.09874873608350754,0.30216237902641296,0.9993177056312561
1772701805907386000,4.09238623046875,-0.10005383938550949,0.6570970416069031,1.0670753717422485
1772701805917435100,4.10243505859375,-0.11920756101608276,1.2918500900268555,1.0864431858062744
1772701805927483100,4.112483154296875,-0.14622962474822998,2.008080244064331,0.9549225568771362
1772701805937532200,4.1225322265625,-0.21824043989181519,2.3941469192504883,0.6603082418441772
1772701805947581000,4.132580810546875,-0.3076047897338867,2.500535488128662,0.35752713680267334
1772701805957630200,4.142630126953125,-0.3538511097431183,2.353827476501465,0.11084996163845062
1772701805967678000,4.152677978515625,-0.3508320450782776,1.9388325214385986,-0.07656663656234741
1772701805977727200,4.162727294921875,-0.3466423451900482,1.3390017747879028,-0.25170809030532837
1772701805987776000,4.17277587890625,-0.3937084972858429,0.6477800607681274,-0.48570773005485535
1772701805997825000,4.182824951171875,-0.47033482789993286,-0.05407605320215225,-0.7408885955810547
1772701806007874300,4.192874267578125,-0.4855654239654541,-0.5403011441230774,-0.8939453363418579
1772701806017922000,4.202922119140625,-0.46488651633262634,-0.48049619793891907,-0.8114113211631775
1772701806027971000,4.21297119140625,-0.48593369126319885,-0.012780150398612022,-0.607804536819458
1772701806038020000,4.22302001953125,-0.5211742520332336,0.4798146188259125,-0.45482486486434937
1772701806048069000,4.233069091796875,-0.5493716597557068,0.9492565989494324,-0.31547537446022034
1772701806058117000,4.2431171875,-0.5077544450759888,1.250304937362671,-0.09125584363937378
1772701806068166100,4.253166259765625,-0.4123799204826355,1.3475090265274048,0.1369340866804123
1772701806078215200,4.263215087890625,-0.33721861243247986,1.1926697492599487,0.2757982313632965
1772701806088264200,4.27326416015625,-0.28767070174217224,0.8410302996635437,0.29350534081459045
1772701806098313200,4.283313232421875,-0.262023389339447,0.4660494923591614,0.24126794934272766
1772701806108361200,4.293361328125,-0.22730037569999695,0.1892443746328354,0.17562314867973328
1772701806118410000,4.303409912109375,-0.20861083269119263,0.025966504588723183,0.07822734862565994
1772701806128459300,4.313459228515625,-0.27504682540893555,0.08586187660694122,0.06933391839265823
1772701806138508000,4.323508056640625,-0.3100165128707886,0.1715855747461319,0.12595804035663605
1772701806148556300,4.333556396484375,-0.32968857884407043,0.23739801347255707,0.17965666949748993
1772701806158605000,4.34360498046875,-0.3498796224594116,0.34743982553482056,0.24271206557750702
1772701806168654000,4.353654052734375,-0.37211745977401733,0.4184269607067108,0.3310982286930084
1772701806178703000,4.363703125,-0.3916890323162079,0.39420896768569946,0.440555214881897
1772701806188751000,4.373751220703125,-0.38246461749076843,0.2744525671005249,0.5124357342720032
1772701806198800100,4.383800048828125,-0.37161916494369507,0.08664511144161224,0.49164336919784546
1772701806208849200,4.39384912109375,-0.3829966187477112,-0.17035791277885437,0.4492191672325134
1772701806218898200,4.403898193359375,-0.3701263666152954,-0.5053201913833618,0.45907819271087646
1772701806228948500,4.413948486328125,-0.3235945701599121,-0.8420119881629944,0.4996701180934906
1772701806238996200,4.423996337890625,-0.25084739923477173,-1.039663314819336,0.6118491291999817
1772701806249045200,4.434045166015625,-0.1892697811126709,-1.062016487121582,0.728692352771759
1772701806259094300,4.44409423828125,-0.14435823261737823,-1.2411258220672607,0.8059977889060974
1772701806269143300,4.454143310546875,-0.06863534450531006,-1.6160658597946167,0.831786572933197
1772701806279191300,4.46419140625,0.011764428578317165,-2.032378911972046,0.734140932559967
1772701806289240300,4.474240234375,0.09585139900445938,-2.222425699234009,0.5726861357688904
1772701806299289300,4.484289306640625,0.2094424068927765,-2.1104917526245117,0.35159820318222046
1772701806309338400,4.49433837890625,0.3246113359928131,-1.8490592241287231,0.14393824338912964
1772701806319387400,4.504387451171875,0.41933730244636536,-1.6422405242919922,-0.08634264022111893
1772701806329435400,4.514435302734375,0.4828384220600128,-1.5513198375701904,-0.3387969434261322
1772701806339484400,4.524484375,0.4938812255859375,-1.516785740852356,-0.5411556363105774
1772701806349533400,4.534533447265625,0.494800329208374,-1.463834524154663,-0.6512715816497803
1772701806359582500,4.54458251953125,0.5097579956054688,-1.3721381425857544,-0.6872032284736633
1772701806369630500,4.55463037109375,0.49423468112945557,-1.2853463888168335,-0.6655254364013672
1772701806379679500,4.564679443359375,0.4570271074771881,-1.2301150560379028,-0.5677506923675537
1772701806389728300,4.574728271484375,0.4306100308895111,-1.1125895977020264,-0.42160341143608093
1772701806399777500,4.584777587890625,0.428082674741745,-0.8877798318862915,-0.27186691761016846
1772701806409826300,4.594826416015625,0.44776543974876404,-0.5917588472366333,-0.1702563315629959
1772701806419874300,4.604874267578125,0.4743243455886841,-0.28872761130332947,-0.13158643245697021
1772701806429923300,4.61492333984375,0.48080408573150635,0.12379202991724014,-0.18772879242897034
1772701806439972400,4.624972412109375,0.46832290291786194,0.6278432011604309,-0.29657113552093506
1772701806450021400,4.635021484375,0.48776060342788696,1.1114377975463867,-0.42176443338394165
1772701806460069400,4.6450693359375,0.5157509446144104,1.5438731908798218,-0.5565856099128723
1772701806470118400,4.655118408203125,0.5079184770584106,1.7508727312088013,-0.681443989276886
1772701806480167400,4.66516748046875,0.4986184239387512,1.7693026065826416,-0.7953766584396362
1772701806490216200,4.67521630859375,0.47612714767456055,1.6808549165725708,-0.8856235146522522
1772701806500265500,4.685265380859375,0.40060070157051086,1.517262578010559,-0.9269059300422668
1772701806510313200,4.695313232421875,0.16396665573120117,1.2681437730789185,-0.9890223145484924
1772701806520362500,4.705362548828125,-0.04630802571773529,1.1083035469055176,-1.0318517684936523
1772701806530411300,4.715411376953125,-0.20230519771575928,0.9119084477424622,-1.0144511461257935
1772701806540460300,4.725460205078125,-0.37050458788871765,0.6559538841247559,-0.9773584008216858
1772701806550508300,4.73550830078125,-0.5017108917236328,0.36836156249046326,-0.9308996200561523
1772701806560557300,4.745557373046875,-0.43979451060295105,0.15635475516319275,-0.7823783159255981
1772701806570606300,4.7556064453125,-0.32316625118255615,0.05353844538331032,-0.5766754150390625
1772701806580655400,4.7656552734375,-0.20758718252182007,0.06675278395414352,-0.3792180120944977
1772701806590704400,4.775704345703125,-0.10831114649772644,0.1592794954776764,-0.19063207507133484
1772701806600752400,4.78575244140625,-0.00490566436201334,0.16164758801460266,-0.0435723252594471
1772701806610801400,4.795801513671875,0.07979279011487961,0.0640079528093338,0.052811577916145325
1772701806620850400,4.805850341796875,0.1428215503692627,-0.10758403688669205,0.14668720960617065
1772701806630899500,4.8158994140625,0.18765385448932648,-0.2728310525417328,0.18949076533317566
1772701806640947500,4.825947509765625,0.22621935606002808,-0.40481919050216675,0.17617681622505188
1772701806650996500,4.83599658203125,0.2562088668346405,-0.4895099401473999,0.13644853234291077
1772701806661045200,4.846045166015625,0.2831217050552368,-0.5117813944816589,0.10025616735219955
1772701806671094500,4.856094482421875,0.32786890864372253,-0.45874741673469543,0.08052384853363037
1772701806681142300,4.866142333984375,0.39337867498397827,-0.3401206433773041,0.06789939850568771
1772701806691191600,4.876191650390625,0.43444138765335083,-0.20498646795749664,0.035514965653419495
1772701806701240300,4.886240234375,0.4486725330352783,-0.10492458194494247,-0.01751656085252762
1772701806711289300,4.896289306640625,0.4070316255092621,-0.08727610856294632,-0.1106349304318428
1772701806721338400,4.90633837890625,0.33941715955734253,-0.10763571411371231,-0.19818633794784546
1772701806731386400,4.916386474609375,0.27656295895576477,-0.17598500847816467,-0.28648239374160767
1772701806741435400,4.926435302734375,0.19315193593502045,-0.45018699765205383,-0.4061161279678345
1772701806751484400,4.936484375,-0.009359392337501049,-0.9171388745307922,-0.5454171895980835
1772701806761533200,4.946533203125,-0.35189196467399597,-1.4014737606048584,-0.7141534686088562
1772701806771581400,4.95658154296875,-0.5598869919776917,-1.823409914970398,-1.0159425735473633
1772701806781630200,4.966630126953125,-0.4363335967063904,-1.7582885026931763,-1.3711116313934326
1772701806791679500,4.976679443359375,0.09076521545648575,-0.9758086800575256,-1.3885680437088013
1772701806801728300,4.986728271484375,0.8838295936584473,0.8233760595321655,-0.9031360745429993
1772701806811777300,4.99677734375,1.608863115310669,1.4041672945022583,-0.3243393301963806
1772701806821825300,5.0068251953125,2.1614186763763428,-0.41970568895339966,-0.4820258915424347
1772701806831874300,5.016874267578125,1.6778008937835693,-1.059075117111206,-0.5706787705421448
1772701806841923300,5.02692333984375,1.0751068592071533,-0.08842930197715759,-0.3376021087169647
1772701806851972400,5.036972412109375,0.6988592147827148,1.1164547204971313,-0.285354346036911
1772701806862021400,5.047021484375,0.39616304636001587,1.4359099864959717,-0.15046708285808563
1772701806872069400,5.0570693359375,0.028692666441202164,1.1745694875717163,-0.01460659597069025
1772701806882118400,5.067118408203125,-0.573841392993927,0.4894818663597107,-0.14379574358463287
1772701806892167400,5.07716748046875,-1.0337939262390137,-0.14934217929840088,-0.2998609244823456
1772701806902216400,5.087216552734375,-1.1554497480392456,-0.6620704531669617,-0.4421858489513397
1772701806912264400,5.097264404296875,-1.0619198083877563,-1.025968074798584,-0.49266305565834045
1772701806922313500,5.1073134765625,-0.8921230435371399,-1.247422695159912,-0.46979182958602905
1772701806932362200,5.1173623046875,-0.7618135809898376,-1.2970479726791382,-0.42161184549331665
1772701806942411500,5.12741162109375,-0.527755856513977,-1.2377029657363892,-0.3618188202381134
1772701806952460300,5.137460205078125,-0.24995285272598267,-1.0405211448669434,-0.27755212783813477
1772701806962508500,5.147508544921875,-0.013979473151266575,-0.7157065868377686,-0.1646127700805664
1772701806972557300,5.157557373046875,0.16961324214935303,-0.3669374883174896,-0.07229369133710861
1772701806982606300,5.1676064453125,0.309187114238739,-0.02649977244436741,-0.0032970490865409374
1772701806992655400,5.1776552734375,0.40333929657936096,0.31404218077659607,0.023612745106220245
1772701807002703400,5.187703369140625,0.4243931770324707,0.6336199045181274,0.04407993331551552
1772701807012752400,5.19775244140625,0.4350549578666687,0.8039571046829224,0.09273461997509003
1772701807022801400,5.207801513671875,0.458490252494812,0.7790786623954773,0.16471053659915924
1772701807032850200,5.21785009765625,0.4864751398563385,0.7301260828971863,0.24224728345870972
1772701807042899500,5.2278994140625,0.49366700649261475,0.6494067907333374,0.3921387791633606
1772701807052947200,5.237947265625,0.4677864611148834,0.4598609209060669,0.6212995648384094
1772701807062996500,5.24799658203125,0.40184420347213745,0.24342474341392517,0.8446186780929565
1772701807073045200,5.258045166015625,0.3197017312049866,0.04742271825671196,1.0340583324432373
1772701807083094300,5.26809423828125,0.28289178013801575,-0.07141312211751938,1.2004765272140503
1772701807093142300,5.278142333984375,0.27449679374694824,-0.11046276241540909,1.2891885042190552
1772701807103191300,5.28819140625,0.26609212160110474,0.06669604033231735,1.079047441482544
1772701807113240300,5.298240234375,0.21534278988838196,0.5074466466903687,0.6411768198013306
1772701807123289300,5.308289306640625,0.18052995204925537,0.8713065981864929,0.27784788608551025
1772701807133338400,5.31833837890625,0.14422230422496796,1.0917725563049316,0.010903202928602695
1772701807143386400,5.328386474609375,0.09360812604427338,1.227439045906067,-0.22186346352100372
1772701807153435100,5.33843505859375,0.04846145585179329,1.3022513389587402,-0.41722798347473145
1772701807163484400,5.348484375,-0.02025049552321434,1.2748713493347168,-0.5866633653640747
1772701807173533400,5.358533447265625,-0.06707044690847397,1.213992714881897,-0.7062907218933105
1772701807183581400,5.36858154296875,-0.07668792456388474,1.156025767326355,-0.7462647557258606
1772701807193630500,5.37863037109375,-0.039066966623067856,1.1531760692596436,-0.6866989135742188
1772701807203679200,5.38867919921875,0.010238264687359333,1.1408392190933228,-0.5770856142044067
1772701807213728500,5.398728515625,0.06103159114718437,1.0290566682815552,-0.47411662340164185
1772701807223777300,5.40877734375,0.1171121746301651,0.7925980687141418,-0.41577956080436707
1772701807233824500,5.418824462890625,0.11404803395271301,0.4092825651168823,-0.41650232672691345
1772701807243873300,5.428873291015625,0.07584977895021439,-0.04285241290926933,-0.37224406003952026
1772701807253922600,5.438922607421875,0.022564422339200974,-0.3646271228790283,-0.256239116191864
1772701807263971600,5.4489716796875,-0.018629617989063263,-0.5404191613197327,-0.056196823716163635
1772701807274019600,5.45901953125,-0.03696295991539955,-0.5702975988388062,0.20918816328048706
1772701807284068600,5.469068603515625,-0.05290038138628006,-0.5964447855949402,0.4722786545753479
1772701807294117400,5.479117431640625,-0.03421211615204811,-0.7236064672470093,0.7364304661750793
1772701807304166700,5.489166748046875,-0.020443040877580643,-1.030202865600586,0.9565918445587158
1772701807314215400,5.49921533203125,-0.009236851707100868,-1.533301830291748,1.103196382522583
1772701807324263700,5.509263671875,-0.020252220332622528,-2.1498992443084717,1.080022931098938
1772701807334312400,5.5193125,-0.045886099338531494,-2.5216495990753174,1.0083733797073364
1772701807344361500,5.529361572265625,-0.0645894780755043,-2.34637451171875,1.1026418209075928
1772701807354410500,5.539410400390625,-0.08591771870851517,-1.6545006036758423,1.3399300575256348
1772701807364458500,5.54945849609375,-0.11702583730220795,-0.8148801922798157,1.6320327520370483
1772701807374507500,5.559507568359375,-0.17494060099124908,-0.4525734484195709,1.9152836799621582
1772701807384556500,5.569556640625,-0.36054426431655884,-0.6888022422790527,2.173089027404785
1772701807394605300,5.579605224609375,-0.6239994168281555,-1.1729637384414673,2.372818946838379
1772701807404654600,5.589654541015625,-0.8888044357299805,-1.2925004959106445,2.4230997562408447
1772701807414702300,5.599702392578125,-1.150619387626648,-0.7925969958305359,2.361600399017334
1772701807424751600,5.609751708984375,-1.2623168230056763,0.002564591821283102,2.265200614929199
1772701807434800400,5.61980029296875,-1.2028628587722778,0.5392898321151733,2.1906747817993164
1772701807444849400,5.629849365234375,-1.0135499238967896,0.50957852602005,2.054877519607544
1772701807454898400,5.6398984375,-0.565562903881073,0.14371582865715027,1.7794443368911743
1772701807464946400,5.649946533203125,-0.3338779807090759,-0.16702553629875183,1.4917433261871338
1772701807474995500,5.659995361328125,-0.17950202524662018,-0.5847160816192627,1.1992518901824951
1772701807485044500,5.67004443359375,-0.036239661276340485,-0.9079396724700928,0.9796332120895386
1772701807495093500,5.680093505859375,0.08769096434116364,-0.8455010652542114,0.8295772075653076
1772701807505141500,5.6901416015625,0.17746399343013763,-0.4414832890033722,0.7695431709289551
1772701807515190300,5.700190185546875,0.1923692375421524,0.16622160375118256,0.7396905422210693
1772701807525239600,5.710239501953125,0.15821152925491333,0.7192552089691162,0.745404064655304
1772701807535288600,5.72028857421875,0.1630970537662506,1.0477502346038818,0.7045883536338806
1772701807545337300,5.73033740234375,0.17162956297397614,1.108096957206726,0.5533178448677063
1772701807555385600,5.740385498046875,0.18323670327663422,0.9096847772598267,0.3448854982852936
1772701807565434400,5.750434326171875,0.1758168637752533,0.5695493221282959,0.1297723650932312
1772701807575483600,5.760483642578125,0.1304815709590912,0.18713855743408203,-0.04725898802280426
1772701807585532400,5.770532470703125,0.07596027106046677,-0.005348593462258577,-0.14862342178821564
1772701807595580700,5.78058056640625,0.021434424445033073,0.05527474358677864,-0.2278473675251007
1772701807605629400,5.79062939453125,-0.008425735868513584,0.2586781978607178,-0.2833462953567505
1772701807615678500,5.800678466796875,-0.026670122519135475,0.45316973328590393,-0.29072147607803345
1772701807625727500,5.8107275390625,-0.035049762576818466,0.5661433935165405,-0.2457716017961502
1772701807635776500,5.820776611328125,-0.02888273075222969,0.6030117869377136,-0.21193894743919373
1772701807645824500,5.830824462890625,-0.005205898080021143,0.5458182692527771,-0.22866412997245789
1772701807655873500,5.84087353515625,0.041794873774051666,0.4233219623565674,-0.284791499376297
1772701807665922300,5.85092236328125,0.1016390323638916,0.3013092279434204,-0.352378249168396
1772701807675971600,5.8609716796875,0.15620684623718262,0.2485097497701645,-0.41457876563072205
1772701807686019300,5.871019287109375,0.20093756914138794,0.28047436475753784,-0.4768117666244507
1772701807696068600,5.881068603515625,0.2179984748363495,0.4061596095561981,-0.5056641697883606
1772701807706117400,5.891117431640625,0.1955496221780777,0.6040518879890442,-0.49797454476356506
1772701807716166400,5.90116650390625,0.11869100481271744,0.7592257857322693,-0.48923546075820923
1772701807726215400,5.91121533203125,-0.004242642782628536,0.8016033172607422,-0.49922817945480347
1772701807736263400,5.921263427734375,-0.12534530460834503,0.7460495233535767,-0.5491525530815125
1772701807746312400,5.9313125,-0.19819608330726624,0.6719809174537659,-0.5972297787666321
1772701807756361500,5.941361572265625,-0.22346483170986176,0.5866783261299133,-0.5984101891517639
1772701807766410500,5.951410400390625,-0.19596901535987854,0.5505993962287903,-0.5773227214813232
1772701807776459500,5.96145947265625,-0.1560366451740265,0.7023987174034119,-0.570034921169281
1772701807786507300,5.97150732421875,-0.16551803052425385,0.857651948928833,-0.6221724152565002
1772701807796556500,5.981556640625,-0.3286900222301483,0.871569037437439,-0.8447313904762268
1772701807806605600,5.99160546875,-0.6873624324798584,0.7527627348899841,-1.279222011566162
1772701807816654300,6.001654296875,-1.0317974090576172,0.47542306780815125,-1.8874999284744263
1772701807826702300,6.011702392578125,-1.296614170074463,-0.1455717831850052,-2.5460309982299805
1772701807836751400,6.02175146484375,-1.3224891424179077,-1.082214593887329,-3.001084804534912
1772701807846800600,6.031800537109375,-1.1200588941574097,-1.9656258821487427,-3.1613688468933105
1772701807856849400,6.041849365234375,-0.754641592502594,-2.225426197052002,-2.9782159328460693
1772701807866898400,6.0518984375,-0.3151158392429352,-1.1646226644515991,-2.134709358215332
1772701807876946400,6.061946533203125,0.03517705947160721,0.7171753644943237,-0.8607572317123413
1772701807886995500,6.071995361328125,-0.1448153555393219,0.4047260880470276,-0.4059862494468689
1772701807897044500,6.08204443359375,-0.30359700322151184,-0.061750974506139755,-0.20283985137939453
1772701807907093500,6.092093505859375,-0.3098708689212799,0.14140240848064423,-0.066728875041008
1772701807917142300,6.102142333984375,-0.3519285321235657,0.31976839900016785,-0.03511356934905052
1772701807927190500,6.1121904296875,-0.36151883006095886,0.14828184247016907,-0.024486221373081207
1772701807937239300,6.1222392578125,-0.3693203926086426,0.005368401296436787,-0.0340714305639267
1772701807947288600,6.13228857421875,-0.3153785765171051,-0.09182073175907135,-0.06086043268442154
1772701807957337300,6.14233740234375,-0.22879301011562347,-0.13196657598018646,-0.08444223552942276
1772701807967385600,6.152385498046875,-0.20626986026763916,0.015348571352660656,-0.13717441260814667
1772701807977434400,6.162434326171875,-0.2820627987384796,0.2287174016237259,-0.20064975321292877
1772701807987483400,6.1724833984375,-0.3718949556350708,0.38664576411247253,-0.26088351011276245
1772701807997532400,6.182532470703125,-0.4382123649120331,0.443822979927063,-0.35396236181259155
1772701808007581400,6.19258154296875,-0.5283893942832947,0.38420841097831726,-0.47481900453567505
1772701808017629400,6.20262939453125,-0.6822396516799927,0.22246156632900238,-0.605668306350708
1772701808027678500,6.212678466796875,-0.8539110422134399,-0.029680129140615463,-0.6537708640098572
1772701808037727200,6.222727294921875,-0.9951195120811462,-0.2690834105014801,-0.6316673159599304
1772701808047776500,6.232776611328125,-1.0811694860458374,-0.3609318435192108,-0.541132390499115
1772701808057825500,6.242825439453125,-1.1096892356872559,-0.20390403270721436,-0.42539799213409424
1772701808067873500,6.25287353515625,-1.0986888408660889,0.051732007414102554,-0.30652645230293274
1772701808077922600,6.262922607421875,-1.0821937322616577,0.4251449406147003,-0.23027744889259338
1772701808087971300,6.272971435546875,-1.1308531761169434,0.6132858395576477,-0.18733903765678406
1772701808098020600,6.2830205078125,-1.2299097776412964,0.625128984451294,-0.198676198720932
1772701808108068400,6.293068359375,-1.2841453552246094,0.5742564797401428,-0.2090071439743042
1772701808118117600,6.30311767578125,-1.2960011959075928,0.5203575491905212,-0.16503354907035828
1772701808128166400,6.31316650390625,-1.2302643060684204,0.47057318687438965,-0.05022495239973068
1772701808138215400,6.32321533203125,-1.0831706523895264,0.4105304181575775,0.09420591592788696
1772701808148264400,6.333264404296875,-0.8586688041687012,0.41969355940818787,0.2252342402935028
1772701808158312400,6.3433125,-0.5779106020927429,0.4547930657863617,0.3477596938610077
1772701808168361500,6.353361572265625,-0.36725956201553345,0.456194132566452,0.45971179008483887
1772701808178410500,6.363410400390625,-0.26441383361816406,0.33096736669540405,0.5646358132362366
1772701808188459500,6.37345947265625,-0.21339350938796997,0.071935273706913,0.6383745074272156
1772701808198507500,6.383507568359375,-0.23349402844905853,-0.11859621852636337,0.6759328842163086
1772701808208556300,6.393556396484375,-0.2934519052505493,0.1185111403465271,0.7495967149734497
1772701808218605600,6.40360546875,-0.3408736288547516,0.647359311580658,0.8230834007263184
1772701808228654600,6.413654541015625,-0.38324931263923645,0.953855037689209,0.8239201903343201
1772701808238703600,6.42370361328125,-0.4153256416320801,0.9589930772781372,0.7683106660842896
1772701808248751600,6.433751708984375,-0.4365800619125366,0.8258222341537476,0.6874775886535645
1772701808258800600,6.443800537109375,-0.4515366852283478,0.606178879737854,0.6032059192657471
1772701808268849700,6.453849609375,-0.4806373119354248,0.3443177342414856,0.5513371229171753
1772701808278898700,6.463898681640625,-0.49320101737976074,0.0900236964225769,0.5903463959693909
1772701808288947700,6.47394775390625,-0.46840885281562805,-0.17930364608764648,0.6892101168632507
1772701808298995700,6.48399560546875,-0.42253774404525757,-0.378395676612854,0.7750658988952637
1772701808309044700,6.494044677734375,-0.3434698283672333,-0.491700679063797,0.8283416628837585
1772701808319093800,6.50409375,-0.27387237548828125,-0.47287335991859436,0.8296321034431458
1772701808329142800,6.514142822265625,-0.24551932513713837,-0.38844528794288635,0.7986499071121216
1772701808339190800,6.524190673828125,-0.25912001729011536,-0.2943700850009918,0.7481516003608704
1772701808349239800,6.53423974609375,-0.28322693705558777,-0.1705503910779953,0.6762374639511108
1772701808359288600,6.54428857421875,-0.2715279757976532,-0.050236139446496964,0.5961379408836365
1772701808369337900,6.554337890625,-0.23991011083126068,0.01001628115773201,0.5202229619026184
1772701808379386600,6.56438671875,-0.1783110499382019,0.015213177539408207,0.4728056788444519
1772701808389435000,6.574434814453125,-0.08496033400297165,0.0005479487590491772,0.44575488567352295
1772701808399483600,6.584483642578125,0.03944831341505051,-0.015315540134906769,0.41881075501441956
1772701808409532700,6.59453271484375,0.1694132387638092,-0.013287276029586792,0.3969153165817261
1772701808419581700,6.604581787109375,0.28159579634666443,-0.02712368406355381,0.3950454294681549
1772701808429630700,6.614630615234375,0.350034236907959,-0.11596886813640594,0.3847041130065918
1772701808439678700,6.6246787109375,0.3967556357383728,-0.21445158123970032,0.3780999183654785
1772701808449727700,6.634727783203125,0.41177478432655334,-0.22346185147762299,0.41073670983314514
1772701808459776500,6.644776611328125,0.37279510498046875,-0.200029194355011,0.44524767994880676
1772701808469825800,6.65482568359375,0.30131053924560547,-0.17354725301265717,0.45287683606147766
1772701808479873500,6.66487353515625,0.23341964185237885,-0.12369101494550705,0.4634855389595032
1772701808489922800,6.6749228515625,0.19060347974300385,-0.05345360189676285,0.47572943568229675
1772701808499971600,6.6849716796875,0.1935114860534668,0.010019844397902489,0.5122022032737732
1772701808510020600,6.6950205078125,0.22471414506435394,0.04550832882523537,0.5703259706497192
1772701808520070000,6.70506982421875,0.2604263126850128,0.0864342525601387,0.6096768379211426
1772701808530117600,6.71511767578125,0.27701061964035034,0.11378651857376099,0.5885939002037048
1772701808540166700,6.725166748046875,0.24166224896907806,0.1413484811782837,0.4997864365577698
1772701808550215700,6.735215576171875,0.162168487906456,0.18997833132743835,0.38881438970565796
1772701808560264700,6.7452646484375,0.05318468436598778,0.22692939639091492,0.2833395302295685
1772701808570313700,6.755313720703125,-0.054047759622335434,0.21495182812213898,0.2395252138376236
1772701808580361700,6.76536181640625,-0.10736051946878433,0.17786186933517456,0.23380480706691742
1772701808590410800,6.77541064453125,-0.1345498114824295,0.11889095604419708,0.24903249740600586
1772701808600459800,6.785459716796875,-0.07073991745710373,0.04259417951107025,0.2290685772895813
1772701808610508800,6.7955087890625,-0.029019372537732124,0.02651800960302353,0.20383699238300323
1772701808620556800,6.805556884765625,-0.035914208739995956,0.042820632457733154,0.20051340758800507
1772701808630605800,6.815605712890625,-0.01733812689781189,0.016046011820435524,0.2047118842601776
1772701808640654800,6.82565478515625,-0.05217497795820236,-0.05112675577402115,0.18619100749492645
1772701808650703600,6.83570361328125,-0.05834232643246651,-0.07584807276725769,0.1506924033164978
1772701808660753000,6.8457529296875,-0.06386593729257584,-0.0915389209985733,0.10235375910997391
1772701808670800600,6.855800537109375,-0.04281924292445183,-0.07776185870170593,0.0655190497636795
1772701808680849700,6.865849609375,0.0038687000051140785,-0.0323307067155838,0.053573258221149445
1772701808690898700,6.875898681640625,0.03198875114321709,-0.00532172666862607,0.04940461367368698
1772701808700947700,6.88594775390625,0.06967265158891678,0.009551296941936016,0.04733215272426605
1772701808710996700,6.895996826171875,0.09555590897798538,0.07303839176893234,0.06180670112371445
1772701808721044700,6.906044677734375,0.09746541827917099,0.08229560405015945,0.051356688141822815
1772701808731093800,6.91609375,0.07248656451702118,0.08305540680885315,0.040824685245752335
1772701808741142800,6.926142822265625,0.05358865112066269,0.10070647299289703,0.03823940083384514
1772701808751191600,6.936191650390625,0.09302527457475662,0.11001821607351303,0.01481157448142767
1772701808761239800,6.94623974609375,0.11231141537427902,0.15363100171089172,-0.012751015834510326
1772701808771288600,6.95628857421875,0.12232623249292374,0.18799163401126862,-0.04411240294575691
1772701808781337900,6.966337890625,0.20958666503429413,0.2339586615562439,-0.0799410417675972
1772701808791386600,6.97638671875,0.2120082825422287,0.24353964626789093,-0.13119331002235413
1772701808801435600,6.986435546875,0.16502751410007477,0.2644008696079254,-0.1682760864496231
1772701808811483600,6.996483642578125,0.09571661055088043,0.26641663908958435,-0.19827766716480255
1772701808821532700,7.00653271484375,0.09009524434804916,0.2691444158554077,-0.2200741320848465
1772701808831582000,7.01658203125,0.07828491926193237,0.26409825682640076,-0.23325037956237793
1772701808841630700,7.026630615234375,0.0347198024392128,0.249250590801239,-0.22885280847549438
1772701808851679700,7.0366796875,0.11452009528875351,0.1927604079246521,-0.23562654852867126
1772701808861727700,7.046727783203125,0.16036276519298553,0.26488643884658813,-0.21738950908184052
1772701808871776800,7.05677685546875,0.20251129567623138,0.3250299394130707,-0.22096985578536987
1772701808881825800,7.06682568359375,0.18392154574394226,0.3609592616558075,-0.21383869647979736
1772701808891874800,7.076874755859375,0.18807287514209747,0.33858659863471985,-0.1984139382839203
1772701808901923600,7.086923583984375,0.18300217390060425,0.363269567489624,-0.17324396967887878
1772701808911971800,7.096971923828125,0.15720173716545105,0.3906806707382202,-0.15060044825077057
1772701808922020600,7.1070205078125,0.15022704005241394,0.3979012370109558,-0.13287195563316345
1772701808932070000,7.11706982421875,0.0858515277504921,0.4185308814048767,-0.0947490781545639
1772701808942118700,7.12711865234375,0.06464376300573349,0.32267674803733826,-0.08290746808052063
1772701808952167000,7.1371669921875,0.03747232258319855,0.2828291952610016,-0.06309115141630173
1772701808962215700,7.147215576171875,0.011171163059771061,0.25401994585990906,-0.05101730674505234
1772701808972264700,7.1572646484375,-0.021527128294110298,0.24610690772533417,-0.036493223160505295
1772701808982313700,7.167313720703125,-0.0425296425819397,0.2352421134710312,-0.0008807997219264507
1772701808992362800,7.17736279296875,-0.049492474645376205,0.2033768594264984,0.03774489089846611
1772701809002410800,7.18741064453125,-0.038952361792325974,0.16192299127578735,0.06596123427152634
1772701809012459800,7.197459716796875,-0.037266846746206284,0.13299040496349335,0.10128539800643921
1772701809022508500,7.207508544921875,0.006247359327971935,0.07886998355388641,0.11319528520107269
1772701809032557800,7.217557861328125,0.015585733577609062,0.05599556118249893,0.11806620657444
1772701809042606800,7.22760693359375,0.008970784023404121,0.016332969069480896,0.10829669237136841
1772701809052654800,7.23765478515625,-0.004708276595920324,-0.018923288211226463,0.09878361225128174
1772701809062703600,7.24770361328125,-0.021867115050554276,-0.025866225361824036,0.08270739763975143
1772701809072752600,7.257752685546875,-0.03579944372177124,-0.0009078788571059704,0.07537758350372314
1772701809082802000,7.267802001953125,-0.04200829192996025,0.025124363601207733,0.07422621548175812
1772701809092849700,7.277849609375,-0.03707185760140419,0.06527844071388245,0.08557234704494476
1772701809102899000,7.28789892578125,-0.02911447361111641,0.11442319303750992,0.11008023470640182
1772701809112947700,7.29794775390625,-0.038051508367061615,0.08415396511554718,0.12026869505643845
1772701809122996700,7.307996826171875,-0.03674812242388725,0.07108249515295029,0.12517149746418
1772701809133045800,7.318045654296875,-0.04389737918972969,0.06366399675607681,0.12448547035455704
1772701809143093800,7.32809375,-0.052675772458314896,0.06710924208164215,0.11354461312294006
1772701809153142800,7.338142822265625,-0.06202453002333641,0.06545089185237885,0.09644259512424469
1772701809163191800,7.34819189453125,-0.08061378449201584,0.04397384449839592,0.08299129456281662
1772701809173240600,7.358240478515625,-0.09770355373620987,0.014536057598888874,0.0751594677567482
1772701809183289900,7.368289794921875,-0.10875223577022552,-0.010132449679076672,0.07454703748226166
1772701809193337600,7.378337646484375,-0.11298053711652756,-0.03191523998975754,0.08701115846633911
1772701809203387000,7.388386962890625,-0.10992018133401871,-0.042936213314533234,0.10396505892276764
1772701809213435600,7.398435546875,-0.10362739861011505,-0.04508432000875473,0.11653624475002289
1772701809223484700,7.408484619140625,-0.09808968752622604,-0.03598378971219063,0.12923917174339294
1772701809233533200,7.418533203125,-0.0814603790640831,-0.010221168398857117,0.12176181375980377
1772701809243581200,7.428581298828125,-0.06745171546936035,0.0017708507366478443,0.1074872836470604
1772701809253630200,7.438630126953125,-0.064649797976017,-0.007067115046083927,0.08726190775632858
1772701809263679200,7.44867919921875,-0.06228429079055786,-0.0018987897783517838,0.06357360631227493
1772701809273728300,7.458728271484375,-0.055106271058321,-0.0034982841461896896,0.0308377668261528
1772701809283776300,7.4687763671875,-0.04082668945193291,0.0010274406522512436,-0.0015552848344668746
1772701809293825000,7.478824951171875,-0.034752555191516876,0.015511308796703815,-0.018510565161705017
1772701809303874300,7.488874267578125,-0.03418058529496193,0.027363181114196777,-0.01435120776295662
1772701809313923000,7.498923095703125,-0.033983245491981506,0.01798352785408497,0.009510449133813381
1772701809323972400,7.508972412109375,-0.030515536665916443,0.003839594777673483,0.011686722747981548
1772701809334020000,7.51902001953125,-0.018560340628027916,0.006414604838937521,0.016697991639375687
1772701809344069000,7.529069091796875,-0.006412767805159092,0.016580885276198387,0.028674747794866562
1772701809354118100,7.5391181640625,0.002692579757422209,0.019986003637313843,0.04138362035155296
1772701809364167200,7.549167236328125,0.009548184461891651,0.028620965778827667,0.044591113924980164
1772701809374216200,7.55921630859375,0.011895228177309036,0.041666992008686066,0.03579762205481529
1772701809384264200,7.56926416015625,0.014353523030877113,0.05410526692867279,0.019252650439739227
1772701809394313200,7.579313232421875,0.015313858166337013,0.0760345384478569,0.018035586923360825
1772701809404362200,7.5893623046875,0.016048714518547058,0.05724707618355751,0.02288338541984558
1772701809414411300,7.599411376953125,0.007959363050758839,0.03088417835533619,0.025805139914155006
1772701809424460300,7.609460205078125,-0.004424135200679302,0.010292990133166313,0.03385200351476669
1772701809434508300,7.61950830078125,-0.005662504583597183,0.020635908469557762,0.03649412468075752
1772701809444557300,7.629557373046875,-0.009361371397972107,0.011908333748579025,0.02722611464560032
1772701809454606300,7.6396064453125,-0.019686447456479073,-0.004082083702087402,0.028882334008812904
1772701809464655000,7.649655029296875,-0.005699740722775459,0.010630108416080475,0.02216910757124424
1772701809474704400,7.659704345703125,0.0053505138494074345,0.05639626085758209,-0.003912027459591627
1772701809484752100,7.669752197265625,-0.011133921332657337,0.018798023462295532,-0.03444410488009453
1772701809494801400,7.679801513671875,-0.01755426824092865,-0.015057144686579704,-0.03440069407224655
1772701809504850200,7.68985009765625,-0.009744962677359581,-0.03141909837722778,0.1648646742105484
1772701809514899200,7.699899169921875,-0.026139115914702415,-0.11921578645706177,0.14257535338401794
1772701809524947200,7.709947265625,-0.053268663585186005,-0.1121116653084755,0.10842087864875793
1772701809534996200,7.719996337890625,-0.04266288876533508,-0.07383564859628677,0.01042560487985611
1772701809545045200,7.730045166015625,-0.015949837863445282,-0.02630697935819626,-0.0634428858757019
1772701809555094300,7.74009423828125,0.005845473613590002,-0.017718017101287842,-0.10800556093454361
1772701809565143000,7.75014306640625,0.00541718490421772,-0.03773655742406845,-0.1455138474702835
1772701809575191300,7.76019140625,-0.017189323902130127,-0.04667279124259949,-0.15917080640792847
1772701809585240000,7.770239990234375,-0.037687625735998154,-0.049578599631786346,-0.15270186960697174
1772701809595289300,7.780289306640625,-0.040647197514772415,-0.05422208830714226,-0.12813793122768402
1772701809605338400,7.79033837890625,-0.023295655846595764,-0.05283823236823082,-0.10696689039468765
1772701809615387100,7.80038720703125,-0.0034756138920783997,-0.04461785405874252,-0.09661971032619476
