time,seconds_elapsed,z,y,x
1772697856067857200,0.052857177734375,-0.018435467034578323,-0.03706427663564682,-0.086009182035923
1772697856077906200,0.06290625,-0.026154639199376106,-0.028125643730163574,-0.07854221016168594
1772697856087955000,0.072954833984375,-0.03717825934290886,0.022299179807305336,-0.04448490962386131
1772697856098003200,0.083003173828125,-0.07466305047273636,0.061702512204647064,0.0038128476589918137
1772697856108052000,0.093052001953125,-0.09598831087350845,0.03467781841754913,0.02412637509405613
1772697856118101000,0.10310107421875,-0.09425459802150726,0.004514856729656458,0.018851717934012413
1772697856128149000,0.11314892578125,-0.07596001029014587,-0.005595567636191845,-0.004750014282763004
1772697856138198000,0.123197998046875,-0.05858927592635155,-0.007433947641402483,-0.021382786333560944
1772697856148247000,0.1332470703125,-0.04759335145354271,-0.02369840443134308,-0.02984205074608326
1772697856158296000,0.143296142578125,-0.05772614851593971,-0.0330924391746521,-0.024266723543405533
1772697856168344000,0.153343994140625,-0.06975484639406204,-0.0229955967515707,-0.0041614556685090065
1772697856178393000,0.16339306640625,-0.08122508227825165,0.005148156546056271,0.01116503681987524
1772697856188442000,0.173442138671875,-0.08450955897569656,-0.017740381881594658,0.027244936674833298
1772697856198490000,0.183489990234375,-0.07663752138614655,-0.01034664735198021,0.035835497081279755
1772697856208539100,0.1935390625,-0.0802338495850563,-0.00583844818174839,0.027330690994858742
1772697856218588200,0.203588134765625,-0.07461884617805481,0.00999218039214611,0.008723716251552105
1772697856228636000,0.213635986328125,-0.08109938353300095,0.029621807858347893,0.004122839774936438
1772697856238685200,0.223685302734375,-0.10849132388830185,0.013650298118591309,-0.012822321616113186
1772697856248734000,0.23373388671875,-0.14483308792114258,-0.03303038701415062,-0.050336405634880066
1772697856258782200,0.2437822265625,-0.17313237488269806,-0.09264711290597916,-0.08507920801639557
1772697856268831000,0.2538310546875,-0.2018985003232956,-0.18358899652957916,-0.12191765010356903
1772697856278880000,0.2638798828125,-0.22795194387435913,-0.30034303665161133,-0.18020492792129517
1772697856288928000,0.273927978515625,-0.23364950716495514,-0.3924362361431122,-0.25180402398109436
1772697856298977000,0.28397705078125,-0.21762926876544952,-0.3905975818634033,-0.29844874143600464
1772697856309026000,0.294026123046875,-0.18144169449806213,-0.29741808772087097,-0.29780665040016174
1772697856319074000,0.304073974609375,-0.1355743408203125,-0.15266011655330658,-0.24310079216957092
1772697856329123000,0.314123046875,-0.09585462510585785,-0.05765823647379875,-0.16592319309711456
1772697856339172000,0.324172119140625,-0.07011916488409042,-0.049140915274620056,-0.09445353597402573
1772697856349221000,0.33422119140625,-0.053815826773643494,-0.07046803832054138,-0.02310105785727501
1772697856359269000,0.34426904296875,-0.055440355092287064,-0.06574466079473495,0.02520628646016121
1772697856369318000,0.35431787109375,-0.06753217428922653,-0.02610616944730282,0.052979063242673874
1772697856379367200,0.3643671875,-0.0909687876701355,0.022998526692390442,0.05958130583167076
1772697856389415000,0.374414794921875,-0.09758540987968445,0.038001712411642075,0.049734801054000854
1772697856399464200,0.384464111328125,-0.08905104547739029,0.04249366372823715,0.03690635412931442
1772697856409513200,0.39451318359375,-0.07412242889404297,0.053579073399305344,0.009792709723114967
1772697856419561200,0.404561279296875,-0.058751728385686874,0.06345780193805695,-0.013706757687032223
1772697856429610000,0.41460986328125,-0.04549558088183403,0.051235489547252655,-0.016501478850841522
1772697856439659000,0.424658935546875,-0.03238723427057266,0.027224963530898094,-0.009999371133744717
1772697856449707000,0.43470703125,-0.024089090526103973,-0.009123989380896091,0.016079101711511612
1772697856459756000,0.444756103515625,-0.021522868424654007,-0.03531351685523987,0.059847887605428696
1772697856469805000,0.45480517578125,-0.040164995938539505,-0.057495515793561935,0.11106739938259125
1772697856479853000,0.46485302734375,-0.07684178650379181,-0.08839431405067444,0.18203158676624298
1772697856489902000,0.474902099609375,-0.11986062675714493,-0.10248775780200958,0.25398167967796326
1772697856499951000,0.484951171875,-0.1488688439130783,-0.11084156483411789,0.3227042853832245
1772697856509999000,0.4949990234375,-0.14683844149112701,-0.1675810068845749,0.3589256703853607
1772697856520048000,0.505048095703125,-0.1278889924287796,-0.21498501300811768,0.3725711703300476
1772697856530097000,0.515096923828125,-0.10871769487857819,-0.24170184135437012,0.36427009105682373
1772697856540146200,0.525146240234375,-0.08709122240543365,-0.23764291405677795,0.32611018419265747
1772697856550194000,0.53519384765625,-0.07078708708286285,-0.20310518145561218,0.2813880145549774
1772697856560243200,0.5452431640625,-0.06866374611854553,-0.1373988687992096,0.25253185629844666
1772697856570292200,0.555292236328125,-0.08461634814739227,-0.05758846178650856,0.2551521360874176
1772697856580340200,0.56534033203125,-0.1280684918165207,0.0023009711876511574,0.256280779838562
1772697856590389000,0.575388916015625,-0.17783604562282562,-0.010979946702718735,0.2365877777338028
1772697856600438000,0.58543798828125,-0.2095939666032791,-0.07893076539039612,0.155730739235878
1772697856610486000,0.595486083984375,-0.20620323717594147,-0.2014673352241516,0.017776867374777794
1772697856620535000,0.60553515625,-0.15669266879558563,-0.3194144666194916,-0.17636410892009735
1772697856630584000,0.615583984375,-0.07836111634969711,-0.4010579288005829,-0.3852345049381256
1772697856640632000,0.625632080078125,0.0074030552059412,-0.46414583921432495,-0.5935781002044678
1772697856650681000,0.63568115234375,0.10157828778028488,-0.5343158841133118,-0.8104462623596191
1772697856660730000,0.645730224609375,0.18305210769176483,-0.6762495636940002,-1.044769525527954
1772697856670779100,0.655779052734375,0.23947463929653168,-0.8969204425811768,-1.2972371578216553
1772697856680827100,0.6658271484375,0.2630547881126404,-1.0784279108047485,-1.5341781377792358
1772697856690876000,0.6758759765625,0.25658226013183594,-1.0785688161849976,-1.6275240182876587
1772697856700925200,0.68592529296875,0.20903603732585907,-0.9095150232315063,-1.547625184059143
1772697856710973000,0.695972900390625,0.1176411435008049,-0.6891829371452332,-1.360083818435669
1772697856721022200,0.706022216796875,-0.019600866362452507,-0.5099895000457764,-1.1368547677993774
1772697856731071200,0.7160712890625,-0.12497255951166153,-0.42617660760879517,-0.8797257542610168
1772697856741119200,0.726119140625,-0.13447658717632294,-0.47379180788993835,-0.6189913153648376
1772697856751168000,0.73616796875,-0.13490481674671173,-0.5672285556793213,-0.3373889625072479
1772697856761217000,0.746217041015625,-0.12828446924686432,-0.6787100434303284,-0.07525693625211716
1772697856771265000,0.75626513671875,-0.09624531120061874,-0.7730759978294373,0.13639405369758606
1772697856781314000,0.76631396484375,-0.07563590258359909,-0.7667989134788513,0.2731814682483673
1772697856791363000,0.776363037109375,-0.05866837128996849,-0.687484085559845,0.35812991857528687
1772697856801411000,0.7864111328125,-0.05860099568963051,-0.5690370798110962,0.37285560369491577
1772697856811460000,0.796460205078125,-0.04049576073884964,-0.44112253189086914,0.3276931941509247
1772697856821509000,0.806509033203125,-0.01726340875029564,-0.32989880442619324,0.2530636787414551
1772697856831558100,0.81655810546875,0.00005459480235003866,-0.2261364609003067,0.1427195966243744
1772697856841606100,0.826606201171875,0.012990100309252739,-0.10085870325565338,0.024480042979121208
1772697856851655000,0.836655029296875,0.025248099118471146,0.011541341431438923,-0.09687408059835434
1772697856861704200,0.8467041015625,0.0329773910343647,0.11017044633626938,-0.19993974268436432
1772697856871752000,0.856751953125,0.05210927501320839,0.18643991649150848,-0.273576945066452
1772697856881801200,0.86680126953125,0.0690310001373291,0.2378506362438202,-0.3214675188064575
1772697856891850200,0.876850341796875,0.09964802861213684,0.26219114661216736,-0.34368467330932617
1772697856901898200,0.886898193359375,0.13812485337257385,0.2616071105003357,-0.34665781259536743
1772697856911947000,0.896947021484375,0.176183819770813,0.2691374719142914,-0.3420598804950714
1772697856921996000,0.90699609375,0.20772257447242737,0.28995564579963684,-0.32957735657691956
1772697856932044000,0.9170439453125,0.2287897765636444,0.3030480146408081,-0.31571054458618164
1772697856942093000,0.927093017578125,0.24608354270458221,0.30024397373199463,-0.2836516797542572
1772697856952142000,0.93714208984375,0.25970879197120667,0.2909570038318634,-0.23702852427959442
1772697856962191000,0.947191162109375,0.2799333930015564,0.254520446062088,-0.18092317879199982
1772697856972239600,0.957239501953125,0.3013167083263397,0.2101026326417923,-0.1288921982049942
1772697856982288600,0.96728857421875,0.32547956705093384,0.15414589643478394,-0.09393581748008728
1772697856992337700,0.977337646484375,0.3462945520877838,0.11177287250757217,-0.0792924240231514
1772697857002385700,0.9873857421875,0.3608069121837616,0.10301240533590317,-0.09479867666959763
1772697857012434700,0.9974345703125,0.3837612569332123,0.12002653628587723,-0.11823582649230957
1772697857022483700,1.007483642578125,0.40865540504455566,0.1612488031387329,-0.16784971952438354
1772697857032531700,1.01753173828125,0.430004358291626,0.19226159155368805,-0.22683314979076385
1772697857042580500,1.02758056640625,0.44123733043670654,0.202034592628479,-0.29946234822273254
1772697857052629800,1.037629638671875,0.4602256715297699,0.17238454520702362,-0.368913859128952
1772697857062677500,1.047677490234375,0.4947625994682312,0.12835077941417694,-0.4184630215167999
1772697857072726800,1.057726806640625,0.5325339436531067,0.09093896299600601,-0.47855672240257263
1772697857082775600,1.067775634765625,0.5774345993995667,0.03684137016534805,-0.5458268523216248
1772697857092823800,1.07782373046875,0.6147289276123047,-0.006399842444807291,-0.5976098775863647
1772697857102872600,1.08787255859375,0.6494339108467102,-0.0030479878187179565,-0.6560380458831787
1772697857112921600,1.097921630859375,0.6657947897911072,-0.0015446334145963192,-0.7039954662322998
1772697857122970600,1.107970703125,0.6936419010162354,-0.03453187644481659,-0.7332414984703064
1772697857133018600,1.1180185546875,0.7267665266990662,-0.1061599925160408,-0.768103301525116
1772697857143067600,1.128067626953125,0.7478140592575073,-0.18993425369262695,-0.8099732995033264
1772697857153116700,1.13811669921875,0.7682841420173645,-0.2636321783065796,-0.8649523854255676
1772697857163164700,1.14816455078125,0.7859702110290527,-0.33041226863861084,-0.9248567223548889
1772697857173213700,1.158213623046875,0.8045989871025085,-0.3784849941730499,-0.9722186326980591
1772697857183262500,1.168262451171875,0.8227042555809021,-0.37868553400039673,-1.0084341764450073
1772697857193310700,1.178310791015625,0.8210904002189636,-0.31239810585975647,-1.0240740776062012
1772697857203359500,1.188359375,0.7895950078964233,-0.1896146684885025,-1.0142427682876587
1772697857213408800,1.19840869140625,0.7584624290466309,-0.07231361418962479,-0.9389304518699646
1772697857223456500,1.20845654296875,0.7178683876991272,-0.024876853451132774,-0.8067820072174072
1772697857233505800,1.218505859375,0.6873704195022583,-0.04893052577972412,-0.6663575172424316
1772697857243554600,1.228554443359375,0.6501372456550598,-0.11872664839029312,-0.5414429903030396
1772697857253602800,1.238602783203125,0.6149699687957764,-0.20855693519115448,-0.4697280824184418
1772697857263651600,1.248651611328125,0.5659214854240417,-0.31450706720352173,-0.4536982476711273
1772697857273700600,1.25870068359375,0.5006998181343079,-0.38035187125205994,-0.49051111936569214
1772697857283749600,1.26874951171875,0.46780821681022644,-0.4460456669330597,-0.573153018951416
1772697857293797600,1.278797607421875,0.4408532977104187,-0.5681555867195129,-0.6813111901283264
1772697857303846700,1.2888466796875,0.4251677989959717,-0.6931585073471069,-0.7738600373268127
1772697857313895700,1.298895751953125,0.4429321587085724,-0.7949602603912354,-0.8327742218971252
1772697857323943700,1.308943603515625,0.47885340452194214,-0.8658930063247681,-0.8297067880630493
1772697857333992700,1.31899267578125,0.5143362879753113,-0.8725095987319946,-0.7751865386962891
1772697857344041500,1.32904150390625,0.5559372901916504,-0.7477466464042664,-0.7101503014564514
1772697857354089700,1.33908984375,0.6110982894897461,-0.5153824090957642,-0.6088659763336182
1772697857364138500,1.349138427734375,0.6453116536140442,-0.20816998183727264,-0.47836390137672424
1772697857374187800,1.359187744140625,0.6518840193748474,0.034454379230737686,-0.33153611421585083
1772697857384235500,1.369235595703125,0.6365639567375183,0.17626850306987762,-0.19811680912971497
1772697857394284800,1.379284912109375,0.6056310534477234,0.21981678903102875,-0.09724505990743637
1772697857404333600,1.38933349609375,0.5673878192901611,0.17069557309150696,-0.04001745581626892
1772697857414382600,1.399382568359375,0.520412027835846,0.08566723018884659,-0.015837818384170532
1772697857424430600,1.4094306640625,0.46479111909866333,0.04488358646631241,-0.005528456065803766
1772697857434479600,1.419479736328125,0.4253566265106201,0.041246771812438965,0.0033846113365143538
1772697857444528600,1.429528564453125,0.3904913067817688,0.06736945360898972,0.01980539597570896
1772697857454576600,1.43957666015625,0.3728444278240204,0.1142117902636528,0.05633624270558357
1772697857464625700,1.449625732421875,0.3698406219482422,0.14360830187797546,0.11154117435216904
1772697857474674700,1.4596748046875,0.3852635324001312,0.13920237123966217,0.1816110759973526
1772697857484722700,1.46972265625,0.3987351357936859,0.11839854717254639,0.24631257355213165
1772697857494771700,1.479771728515625,0.41565313935279846,0.06680139899253845,0.29190030694007874
1772697857504820500,1.489820556640625,0.4123140573501587,0.006718090269714594,0.31190410256385803
1772697857514868700,1.49986865234375,0.39429032802581787,-0.04423856735229492,0.301710844039917
1772697857524917500,1.50991748046875,0.351243793964386,-0.09156081080436707,0.26660531759262085
1772697857534966800,1.519966796875,0.3096316158771515,-0.11269565671682358,0.23690415918827057
1772697857545015600,1.530015625,0.2648652195930481,-0.11720385402441025,0.2195347547531128
1772697857555063800,1.540063720703125,0.2205374389886856,-0.11584723740816116,0.2122241109609604
1772697857565112600,1.550112548828125,0.18522018194198608,-0.09643200039863586,0.20415259897708893
1772697857575161600,1.56016162109375,0.15514591336250305,-0.07655230164527893,0.1944326013326645
1772697857585209600,1.570209716796875,0.12513607740402222,-0.033738523721694946,0.18145900964736938
1772697857595258600,1.580258544921875,0.0946815013885498,0.018260229378938675,0.16889022290706635
1772697857605307600,1.5903076171875,0.06552761048078537,0.0778236910700798,0.1662539541721344
1772697857615355600,1.600355712890625,0.03707333281636238,0.12387427687644958,0.1591595560312271
1772697857625404700,1.61040478515625,0.012927250005304813,0.1731659173965454,0.15514351427555084
1772697857635453700,1.62045361328125,0.0002961435238830745,0.2215592861175537,0.15013544261455536
1772697857645501700,1.630501708984375,-0.004084223881363869,0.24992355704307556,0.15075889229774475
1772697857655550700,1.64055078125,-0.007140733767300844,0.26585909724235535,0.15576322376728058
1772697857665599500,1.650599609375,-0.01193975005298853,0.2732107639312744,0.16215801239013672
1772697857675647700,1.660647705078125,-0.019179286435246468,0.2730187475681305,0.17644454538822174
1772697857685696500,1.670696533203125,-0.03069719299674034,0.24660392105579376,0.18600422143936157
1772697857695745800,1.680745849609375,-0.03687546029686928,0.18684712052345276,0.1922759711742401
1772697857705793500,1.69079345703125,-0.04399435594677925,0.11578146368265152,0.19605232775211334
1772697857715842800,1.7008427734375,-0.04868711158633232,0.03849546238780022,0.20965176820755005
1772697857725891600,1.7108916015625,-0.05168556421995163,-0.05052708834409714,0.2172851860523224
1772697857735940600,1.720940673828125,-0.06004469469189644,-0.04794009402394295,0.22184345126152039
1772697857745988600,1.730988525390625,-0.07657413929700851,-0.05197158828377724,0.2152252197265625
1772697857756037600,1.74103759765625,-0.08890190720558167,-0.04899816960096359,0.19734662771224976
1772697857766086700,1.751086669921875,-0.10239854454994202,-0.04086674004793167,0.1919744908809662
1772697857776134700,1.761134765625,-0.11857245117425919,-0.026971163228154182,0.19644728302955627
1772697857786183700,1.77118359375,-0.13033562898635864,-0.012075038626790047,0.21451762318611145
1772697857796232700,1.781232666015625,-0.13697196543216705,0.00920441746711731,0.24519431591033936
1772697857806280700,1.79128076171875,-0.135293111205101,-0.007782289292663336,0.2755618095397949
1772697857816329700,1.801329833984375,-0.13963885605335236,0.05421796441078186,0.3157270550727844
1772697857826378500,1.81137841796875,-0.15490835905075073,0.08275853097438812,0.3448532521724701
1772697857836426800,1.8214267578125,-0.1666180044412613,0.08495590090751648,0.36739373207092285
1772697857846475500,1.8314755859375,-0.18588678538799286,0.102690689265728,0.36131665110588074
1772697857856524800,1.84152490234375,-0.2118837535381317,0.1200832650065422,0.3489936888217926
1772697857866573600,1.851573486328125,-0.23806342482566833,0.11470767110586166,0.3284449875354767
1772697857876621800,1.861621826171875,-0.2617325484752655,0.1631029099225998,0.31474781036376953
1772697857886670600,1.871670654296875,-0.28589433431625366,0.18926899135112762,0.30568748712539673
1772697857896719600,1.8817197265625,-0.30605632066726685,0.2112019956111908,0.30213403701782227
1772697857906767600,1.891767578125,-0.3171638548374176,0.24324727058410645,0.2926340103149414
1772697857916816600,1.901816650390625,-0.3317877948284149,0.2632492184638977,0.2918584942817688
1772697857926865700,1.91186572265625,-0.34294402599334717,0.2897937297821045,0.2903450131416321
1772697857936913700,1.92191357421875,-0.3659481704235077,0.3185625374317169,0.3031090199947357
1772697857946962700,1.931962646484375,-0.3806200325489044,0.3303243815898895,0.32322174310684204
1772697857957011700,1.94201171875,-0.4029698371887207,0.33630824089050293,0.35642656683921814
1772697857967059700,1.952059814453125,-0.421814888715744,0.3320319950580597,0.39368870854377747
1772697857977108700,1.962108642578125,-0.44873544573783875,0.3351830542087555,0.43402308225631714
1772697857987157800,1.97215771484375,-0.4753337800502777,0.3507854640483856,0.4738690257072449
1772697857997206800,1.982206787109375,-0.5036242604255676,0.35703882575035095,0.5129022002220154
1772697858007254800,1.9922548828125,-0.5222866535186768,0.3587144911289215,0.5447471737861633
1772697858017303800,2.0023037109375,-0.5344809889793396,0.3631880581378937,0.559640645980835
1772697858027352800,2.012352783203125,-0.5446068644523621,0.3456476926803589,0.5675750374794006
1772697858037400800,2.02240087890625,-0.5463674664497375,0.3570617139339447,0.561951220035553
1772697858047449900,2.032449951171875,-0.5386139154434204,0.39092034101486206,0.533183217048645
1772697858057498600,2.04249853515625,-0.5326181054115295,0.4147071838378906,0.509578287601471
1772697858067547000,2.052546875,-0.5274321436882019,0.41541212797164917,0.4734700918197632
1772697858077595600,2.062595703125,-0.5251505970954895,0.4364154040813446,0.4440213739871979
1772697858087645000,2.07264501953125,-0.5220307111740112,0.45727646350860596,0.438737690448761
1772697858097692700,2.082692626953125,-0.519733726978302,0.46858853101730347,0.45710283517837524
1772697858107742000,2.092741943359375,-0.5144803524017334,0.46965405344963074,0.4856569766998291
1772697858117790700,2.102790771484375,-0.5005879998207092,0.40959763526916504,0.497539222240448
1772697858127839000,2.1128388671875,-0.4858663082122803,0.4170803129673004,0.5210844874382019
1772697858137887700,2.1228876953125,-0.4663999378681183,0.36274516582489014,0.5337193012237549
1772697858147936800,2.132936767578125,-0.4590187072753906,0.27588218450546265,0.5201795101165771
1772697858157985800,2.14298583984375,-0.45277732610702515,0.20448416471481323,0.49423423409461975
1772697858168033800,2.15303369140625,-0.4606344401836395,0.17178986966609955,0.48381486535072327
1772697858178082800,2.163082763671875,-0.47746801376342773,0.10985645651817322,0.4703882932662964
1772697858188131800,2.1731318359375,-0.49347150325775146,0.06233581155538559,0.47296568751335144
1772697858198179800,2.183179931640625,-0.5072605609893799,0.04577228054404259,0.48342791199684143
1772697858208228900,2.193228759765625,-0.5264347791671753,0.06692949682474136,0.5028564929962158
1772697858218277600,2.203277587890625,-0.5435492992401123,0.05317959934473038,0.488349974155426
1772697858228326000,2.213325927734375,-0.5546491146087646,0.06281118839979172,0.47435906529426575
1772697858238374700,2.223374755859375,-0.5774486660957336,0.10310987383127213,0.46559804677963257
1772697858248424000,2.233423828125,-0.6084055304527283,0.12999394536018372,0.43424147367477417
1772697858258471700,2.2434716796875,-0.6420133113861084,0.1779835820198059,0.4287806451320648
1772697858268521000,2.25352099609375,-0.6807543039321899,0.13894616067409515,0.39933380484580994
1772697858278569700,2.26356982421875,-0.7092536091804504,0.0991247221827507,0.34923017024993896
1772697858288618800,2.27361865234375,-0.7265143394470215,0.09690364450216293,0.29692354798316956
1772697858298666800,2.283666748046875,-0.7279532551765442,0.07148110866546631,0.23867648839950562
1772697858308715800,2.2937158203125,-0.7225393056869507,0.06841261684894562,0.178334578871727
1772697858318764800,2.303764892578125,-0.6984059810638428,0.09217280149459839,0.1310429722070694
1772697858328812800,2.313812744140625,-0.6438197493553162,0.09945095330476761,0.11704060435295105
1772697858338861800,2.32386181640625,-0.5518993735313416,0.12934787571430206,0.12355629354715347
1772697858348910800,2.333910888671875,-0.42031657695770264,0.2627714276313782,0.1685227006673813
1772697858358958800,2.343958740234375,-0.2545928657054901,0.4111555814743042,0.1818651407957077
1772697858369007900,2.3540078125,-0.09334619343280792,0.5082091689109802,0.13037079572677612
1772697858379056600,2.364056640625,-0.008360194973647594,0.5256177186965942,0.003403253620490432
1772697858389105000,2.37410498046875,-0.004881041590124369,0.5405306220054626,-0.15533499419689178
1772697858399153700,2.384153564453125,-0.11832717806100845,0.4394386112689972,-0.2845076322555542
1772697858409202700,2.39420263671875,-0.342729389667511,0.3039851784706116,-0.3350917100906372
1772697858419250700,2.404250732421875,-0.5315414071083069,0.25523948669433594,-0.29553258419036865
1772697858429299700,2.4142998046875,-0.6569280624389648,0.21505264937877655,-0.15191230177879333
1772697858439348700,2.4243486328125,-0.6504989266395569,0.16162778437137604,0.059118445962667465
1772697858449397800,2.434397705078125,-0.5734355449676514,0.1089179590344429,0.29769161343574524
1772697858459445800,2.44444580078125,-0.5075598955154419,0.0607331208884716,0.5151504278182983
1772697858469494800,2.454494873046875,-0.47589996457099915,0.12972310185432434,0.6865701079368591
1772697858479543800,2.464543701171875,-0.45301222801208496,0.232706218957901,0.8272454738616943
1772697858489591800,2.474591796875,-0.44961774349212646,0.31154298782348633,0.9357863068580627
1772697858499640600,2.484640625,-0.45844560861587524,0.3122335374355316,0.9839839339256287
1772697858509689900,2.49468994140625,-0.43687719106674194,0.32272371649742126,0.904827892780304
1772697858519737600,2.504737548828125,-0.4333176016807556,0.3183518648147583,0.6837972402572632
1772697858529787000,2.514786865234375,-0.44331592321395874,0.27592933177948,0.3818373680114746
1772697858539835600,2.524835693359375,-0.42499202489852905,0.1988784819841385,0.09705224633216858
1772697858549884000,2.5348837890625,-0.3766610026359558,0.11411032825708389,-0.08108872920274734
1772697858559932700,2.5449326171875,-0.331635981798172,0.05066850408911705,-0.16904334723949432
1772697858569981700,2.554981689453125,-0.30314043164253235,-0.009532252326607704,-0.2040252983570099
1772697858580030700,2.56503076171875,-0.27902311086654663,-0.054015565663576126,-0.2008875608444214
1772697858590078700,2.57507861328125,-0.2641826570034027,-0.08401288092136383,-0.18627852201461792
1772697858600127700,2.585127685546875,-0.24426034092903137,-0.09880220890045166,-0.1807601898908615
1772697858610176800,2.5951767578125,-0.22117312252521515,-0.10728491097688675,-0.1888764500617981
1772697858620224800,2.605224853515625,-0.2000121921300888,-0.11681503057479858,-0.1929396241903305
1772697858630273800,2.615273681640625,-0.17463038861751556,-0.13104189932346344,-0.19831255078315735
1772697858640322600,2.625322509765625,-0.1457097977399826,-0.11208126693964005,-0.20696383714675903
1772697858650370800,2.635370849609375,-0.13310745358467102,-0.060861486941576004,-0.22978073358535767
1772697858660419600,2.645419677734375,-0.11425307393074036,0.010427340865135193,-0.25668904185295105
1772697858670468900,2.65546875,-0.10718876868486404,0.06998734176158905,-0.283368319272995
1772697858680516600,2.6655166015625,-0.0958346500992775,0.13363902270793915,-0.31736835837364197
1772697858690566000,2.67556591796875,-0.09119196236133575,0.1884508728981018,-0.34160155057907104
1772697858700614700,2.68561474609375,-0.07523323595523834,0.20677287876605988,-0.3480418622493744
1772697858710663700,2.69566357421875,-0.05236813426017761,0.205606147646904,-0.3581741154193878
1772697858720711700,2.705711669921875,-0.01990899257361889,0.16867822408676147,-0.3580910265445709
1772697858730760700,2.7157607421875,0.01546204648911953,0.13501107692718506,-0.3426814377307892
1772697858740809700,2.725809814453125,0.04517839848995209,0.12217384576797485,-0.3134857416152954
1772697858750857700,2.735857666015625,0.07577572017908096,0.1333303600549698,-0.282392293214798
1772697858760906800,2.74590673828125,0.10336314141750336,0.16282592713832855,-0.24619698524475098
1772697858770955800,2.755955810546875,0.12711401283740997,0.14532044529914856,-0.22196196019649506
1772697858781003800,2.766003662109375,0.15387584269046783,0.11726031452417374,-0.19696979224681854
1772697858791052800,2.776052734375,0.16767741739749908,0.05997971445322037,-0.1811777800321579
1772697858801101600,2.7861015625,0.17566582560539246,-0.03280588239431381,-0.18726523220539093
1772697858811149800,2.79614990234375,0.1776363104581833,-0.127619206905365,-0.21947775781154633
1772697858821198600,2.806198486328125,0.1763598471879959,-0.1934586763381958,-0.2660415470600128
1772697858831248000,2.816247802734375,0.17949998378753662,-0.2788026034832001,-0.3386837840080261
1772697858841295600,2.826295654296875,0.19138087332248688,-0.3699205219745636,-0.4385209083557129
1772697858851345000,2.836344970703125,0.20686130225658417,-0.4365386962890625,-0.5301123261451721
1772697858861393700,2.8463935546875,0.21566012501716614,-0.48416027426719666,-0.606715738773346
1772697858871442700,2.856442626953125,0.2168329805135727,-0.508974552154541,-0.6688047051429749
1772697858881490700,2.86649072265625,0.2016492336988449,-0.5047622323036194,-0.7137932181358337
1772697858891539700,2.876539794921875,0.18654164671897888,-0.5153416395187378,-0.7417744994163513
1772697858901588700,2.886588623046875,0.17767837643623352,-0.5134782195091248,-0.7574384212493896
1772697858911636700,2.89663671875,0.1706383228302002,-0.500895619392395,-0.7665413618087769
1772697858921685800,2.906685791015625,0.1610994040966034,-0.45229610800743103,-0.7702357172966003
1772697858931734800,2.91673486328125,0.15331977605819702,-0.3797531723976135,-0.7599332928657532
1772697858941782800,2.92678271484375,0.15672090649604797,-0.2964279353618622,-0.7427836060523987
1772697858951831800,2.936831787109375,0.15932148694992065,-0.21387127041816711,-0.716693103313446
1772697858961880600,2.946880615234375,0.16376283764839172,-0.13580390810966492,-0.6983197331428528
1772697858971927800,2.956927734375,0.1709965169429779,-0.09121992439031601,-0.6860023140907288
1772697858981976800,2.966976806640625,0.17121702432632446,-0.04500529170036316,-0.6759132146835327
1772697858992025900,2.97702587890625,0.18482550978660583,-0.042223621159791946,-0.6485977172851562
1772697859002075000,2.987074951171875,0.18877683579921722,-0.06687729805707932,-0.627328634262085
1772697859012123000,2.997122802734375,0.18200601637363434,-0.1062321662902832,-0.5973528623580933
1772697859022172000,3.007171875,0.19218142330646515,-0.18819308280944824,-0.5673172473907471
1772697859032221000,3.017220947265625,0.19976983964443207,-0.26848044991493225,-0.5395780205726624
1772697859042268700,3.0272685546875,0.1975114792585373,-0.3088683485984802,-0.5249588489532471
1772697859052318000,3.03731787109375,0.2053331732749939,-0.37465721368789673,-0.5111988186836243
1772697859062367000,3.047366943359375,0.20278453826904297,-0.4250999093055725,-0.5195608735084534
1772697859072415000,3.0574150390625,0.2299775332212448,-0.4963325262069702,-0.520399272441864
1772697859082464000,3.067464111328125,0.26272404193878174,-0.5227779746055603,-0.532293975353241
1772697859092512800,3.0775126953125,0.29850414395332336,-0.5335485935211182,-0.5447746515274048
1772697859102560800,3.087560791015625,0.3390488922595978,-0.49402329325675964,-0.5541555881500244
1772697859112609800,3.09760986328125,0.3851460814476013,-0.4312821626663208,-0.5644055604934692
1772697859122659000,3.1076591796875,0.41600945591926575,-0.38235244154930115,-0.5687366724014282
1772697859132707800,3.117707763671875,0.45096638798713684,-0.35858264565467834,-0.5577279925346375
1772697859142756000,3.127756103515625,0.4787333011627197,-0.34154269099235535,-0.5390336513519287
1772697859152804900,3.137804931640625,0.5075305700302124,-0.3592287302017212,-0.4887225329875946
1772697859162854000,3.14785400390625,0.5214149951934814,-0.3695756494998932,-0.45490625500679016
1772697859172902000,3.15790185546875,0.5191922783851624,-0.36306795477867126,-0.4072343409061432
1772697859182951000,3.167950927734375,0.5187392830848694,-0.36794179677963257,-0.3566904664039612
1772697859193000000,3.178,0.5158686637878418,-0.3505915701389313,-0.3072670102119446
1772697859203047700,3.188047607421875,0.5147789120674133,-0.315870076417923,-0.239078089594841
1772697859213097000,3.198096923828125,0.5125775337219238,-0.2934790253639221,-0.1863914430141449
1772697859223146000,3.20814599609375,0.5090349912643433,-0.2764137387275696,-0.1470309942960739
1772697859233194000,3.218194091796875,0.5030673742294312,-0.24976669251918793,-0.10957816243171692
1772697859243243000,3.228242919921875,0.49621349573135376,-0.2404264509677887,-0.09611747413873672
1772697859253291800,3.238291748046875,0.48931777477264404,-0.2616683542728424,-0.09252779930830002
1772697859263341000,3.248341064453125,0.4940400719642639,-0.290093332529068,-0.10076123476028442
1772697859273388800,3.258388916015625,0.491825133562088,-0.3112596273422241,-0.11435400694608688
1772697859283438000,3.26843798828125,0.49156680703163147,-0.3255791664123535,-0.12155093252658844
1772697859293486800,3.27848681640625,0.4890564978122711,-0.34202444553375244,-0.13726066052913666
1772697859303535000,3.28853515625,0.4879840612411499,-0.3515947759151459,-0.1417110562324524
1772697859313583900,3.298583984375,0.4894525110721588,-0.356444388628006,-0.13723322749137878
1772697859323633000,3.3086328125,0.4778059720993042,-0.3465547561645508,-0.15438903868198395
1772697859333681000,3.318680908203125,0.44773703813552856,-0.304813951253891,-0.19008737802505493
1772697859343730000,3.32872998046875,0.3899698853492737,-0.23246093094348907,-0.22110629081726074
1772697859353779000,3.338779052734375,0.35545769333839417,-0.10843220353126526,-0.20264099538326263
1772697859363826700,3.34882666015625,0.33876046538352966,0.017238641157746315,-0.17135444283485413
1772697859373876000,3.3588759765625,0.3218691051006317,0.08831627666950226,-0.1420397013425827
1772697859383925000,3.368925048828125,0.2560650706291199,0.04599092900753021,-0.1385432332754135
1772697859393973000,3.378972900390625,0.11726217716932297,-0.11667894572019577,-0.2273324877023697
1772697859404022000,3.38902197265625,-0.0035350800026208162,-0.38033029437065125,-0.3869386613368988
1772697859414070800,3.39907080078125,-0.021526597440242767,-0.7742064595222473,-0.5373111367225647
1772697859424120000,3.4091201171875,-0.01236159447580576,-1.1287312507629395,-0.6387213468551636
1772697859434167800,3.419167724609375,0.02165735885500908,-1.2586344480514526,-0.6475028991699219
1772697859444217000,3.429217041015625,0.10207603126764297,-1.1726641654968262,-0.568596601486206
1772697859454265900,3.439265869140625,0.23146705329418182,-0.8567258715629578,-0.4374058246612549
1772697859464313900,3.44931396484375,0.34498268365859985,-0.35046932101249695,-0.23167796432971954
1772697859474363000,3.45936279296875,0.37757524847984314,-0.08402139693498611,-0.07546812295913696
1772697859484412000,3.469411865234375,0.40433576703071594,0.0441749170422554,-0.0023877902422100306
1772697859494460000,3.4794599609375,0.4015152156352997,0.14524880051612854,0.053584132343530655
1772697859504509000,3.489509033203125,0.35965484380722046,0.1930599957704544,0.10872514545917511
1772697859514558000,3.499557861328125,0.2996234595775604,0.22810427844524384,0.14874526858329773
1772697859524605700,3.509605712890625,0.24180170893669128,0.24331864714622498,0.20680484175682068
1772697859534655000,3.519655029296875,0.2109130322933197,0.1858779937028885,0.29594722390174866
1772697859544704000,3.5297041015625,0.1923723816871643,0.095535047352314,0.3828887939453125
1772697859554752800,3.539752685546875,0.17319734394550323,0.02918744646012783,0.44862014055252075
1772697859564801000,3.549801025390625,0.1520281434059143,-0.009018261916935444,0.47518011927604675
1772697859574849800,3.559849853515625,0.12373099476099014,-0.009159144014120102,0.4757303297519684
1772697859584899000,3.569899169921875,0.111946240067482,-0.033725474029779434,0.4508928656578064
1772697859594946800,3.57994677734375,0.10335008800029755,0.032700955867767334,0.4212242066860199
1772697859604995800,3.589995849609375,0.10910011827945709,0.07637280225753784,0.3904641568660736
1772697859615044900,3.600044921875,0.13162779808044434,0.05391596257686615,0.3321760892868042
1772697859625092900,3.6100927734375,0.13192874193191528,0.15180790424346924,0.2929581105709076
1772697859635142000,3.620141845703125,0.12124786525964737,0.20403994619846344,0.26923227310180664
1772697859645191000,3.63019091796875,0.11152280122041702,0.2315671741962433,0.26414749026298523
1772697859655239000,3.640239013671875,0.08810056746006012,0.25040292739868164,0.2585178315639496
1772697859665288000,3.650287841796875,0.061635132879018784,0.2469237595796585,0.23579815030097961
1772697859675337000,3.6603369140625,0.048892974853515625,0.24632082879543304,0.20607087016105652
1772697859685386000,3.670385986328125,0.04898006096482277,0.2516636550426483,0.16639617085456848
1772697859695433700,3.680433837890625,0.05636340752243996,0.2660684287548065,0.12193682789802551
1772697859705483000,3.69048291015625,0.07021424174308777,0.28212621808052063,0.08682464063167572
1772697859715531800,3.70053173828125,0.07443641871213913,0.3081410527229309,0.06970531493425369
1772697859725580000,3.710580078125,0.06726798415184021,0.3235461115837097,0.08426640927791595
1772697859735628800,3.72062890625,0.040333572775125504,0.30867713689804077,0.12529774010181427
1772697859745677800,3.730677734375,0.01865491084754467,0.25630316138267517,0.1752557009458542
1772697859755725800,3.740725830078125,-0.022794527933001518,0.28577715158462524,0.21580339968204498
1772697859765774800,3.75077490234375,-0.06057599559426308,0.2263106405735016,0.25143197178840637
1772697859775824000,3.760823974609375,-0.08682544529438019,0.1395597606897354,0.2584725618362427
1772697859785872000,3.770871826171875,-0.10315141826868057,0.06223274767398834,0.24208267033100128
1772697859795921000,3.7809208984375,-0.1226593405008316,-0.021209947764873505,0.20934656262397766
1772697859805970000,3.790969970703125,-0.12853240966796875,-0.08849391341209412,0.15995052456855774
1772697859816019000,3.80101904296875,-0.13139237463474274,-0.10577064007520676,0.11651329696178436
1772697859826067000,3.81106689453125,-0.13458125293254852,-0.06645944714546204,0.09969303756952286
1772697859836115700,3.82111572265625,-0.14027269184589386,-0.001588575541973114,0.09824507683515549
1772697859846165000,3.8311650390625,-0.14023514091968536,0.07981174439191818,0.10612190514802933
1772697859856212700,3.841212646484375,-0.13138119876384735,0.1416868269443512,0.12140791863203049
1772697859866262000,3.851261962890625,-0.122873455286026,0.19661186635494232,0.13658873736858368
1772697859876310800,3.861310791015625,-0.12032268196344376,0.23765437304973602,0.1681583821773529
1772697859886359000,3.871359130859375,-0.13266457617282867,0.288376122713089,0.18189549446105957
1772697859896407800,3.88140771484375,-0.14322346448898315,0.31507885456085205,0.198281928896904
1772697859906456800,3.891456787109375,-0.14899827539920807,0.32539620995521545,0.20762163400650024
1772697859916504800,3.9015048828125,-0.165031298995018,0.3351939618587494,0.21172769367694855
1772697859926553900,3.911553955078125,-0.1729230433702469,0.32077401876449585,0.20366604626178741
1772697859936603000,3.921602783203125,-0.1753326654434204,0.29726123809814453,0.19770722091197968
1772697859946652000,3.93165185546875,-0.17354542016983032,0.26619812846183777,0.18655362725257874
1772697859956700000,3.941699951171875,-0.16810324788093567,0.25368207693099976,0.18000945448875427
1772697859966749000,3.9517490234375,-0.16247013211250305,0.2292608767747879,0.1834435909986496
1772697859976798200,3.961798095703125,-0.15656377375125885,0.21782153844833374,0.18975289165973663
1772697859986846500,3.971846435546875,-0.16123603284358978,0.19522808492183685,0.19204294681549072
1772697859996895200,3.981895263671875,-0.1649269014596939,0.17407725751399994,0.19792293012142181
1772697860006944500,3.991944580078125,-0.17039623856544495,0.17588500678539276,0.19831015169620514
1772697860016992300,4.0019921875,-0.18317142128944397,0.19005729258060455,0.19543474912643433
1772697860027041500,4.01204150390625,-0.186623677611351,0.20659151673316956,0.1976931095123291
1772697860037090300,4.02209033203125,-0.19473007321357727,0.21869905292987823,0.19737565517425537
1772697860047138600,4.032138671875,-0.19933760166168213,0.2297128289937973,0.19411461055278778
1772697860057187300,4.042187255859375,-0.20602799952030182,0.2604568898677826,0.20926666259765625
1772697860067236400,4.052236328125,-0.2181650847196579,0.23009392619132996,0.222115620970726
1772697860077285400,4.062285400390625,-0.23662665486335754,0.2681550085544586,0.2522493004798889
1772697860087333400,4.07233349609375,-0.2494140863418579,0.24525396525859833,0.296814888715744
1772697860097382400,4.08238232421875,-0.2563910484313965,0.19440490007400513,0.34645089507102966
1772697860107431400,4.092431396484375,-0.27895841002464294,0.2449604868888855,0.4000352919101715
1772697860117479400,4.1024794921875,-0.29903197288513184,0.2240043431520462,0.4424482583999634
1772697860127528400,4.112528564453125,-0.33509331941604614,0.2634555995464325,0.4864226281642914
1772697860137577200,4.1225771484375,-0.37718963623046875,0.29045820236206055,0.5348935127258301
1772697860147625500,4.13262548828125,-0.4120994210243225,0.2809602916240692,0.5924571752548218
1772697860157674200,4.14267431640625,-0.4439857006072998,0.255575567483902,0.649675726890564
1772697860167723500,4.1527236328125,-0.4633873701095581,0.2695273458957672,0.682475745677948
1772697860177771300,4.162771240234375,-0.4589068591594696,0.2416618913412094,0.6858199238777161
1772697860187820500,4.172820556640625,-0.466417521238327,0.2601248025894165,0.669766902923584
1772697860197869300,4.182869384765625,-0.48781973123550415,0.2750970721244812,0.6348193287849426
1772697860207918300,4.19291845703125,-0.5230072736740112,0.27791285514831543,0.6139633059501648
1772697860217966300,4.20296630859375,-0.5700845122337341,0.29407450556755066,0.6059503555297852
1772697860228015400,4.213015380859375,-0.610806405544281,0.25651541352272034,0.6239395141601562
1772697860238064400,4.223064453125,-0.6539269685745239,0.25549647212028503,0.64951092004776
1772697860248112400,4.2331123046875,-0.6858177781105042,0.25334465503692627,0.6697586178779602
1772697860258161400,4.243161376953125,-0.7117529511451721,0.27405819296836853,0.683814287185669
1772697860268210400,4.25321044921875,-0.7219230532646179,0.2964191436767578,0.6872460246086121
1772697860278258400,4.263258544921875,-0.719679594039917,0.27835172414779663,0.6743467450141907
1772697860288307500,4.273307373046875,-0.7151463627815247,0.25811490416526794,0.6320634484291077
1772697860298356200,4.283356201171875,-0.7014979124069214,0.23247292637825012,0.5743677020072937
1772697860308404500,4.293404541015625,-0.6958315372467041,0.2049773782491684,0.5106675028800964
1772697860318453200,4.303453369140625,-0.6999288201332092,0.16987931728363037,0.45014533400535583
1772697860328502500,4.31350244140625,-0.7090789079666138,0.13982714712619781,0.3962344229221344
1772697860338551300,4.32355126953125,-0.7193488478660583,0.11907978355884552,0.35703614354133606
1772697860348599600,4.333599609375,-0.7204042673110962,0.11077818274497986,0.3450809717178345
1772697860358648300,4.3436484375,-0.7247803211212158,0.10177483409643173,0.343254029750824
1772697860368697300,4.353697265625,-0.7108573317527771,0.1000368520617485,0.35471442341804504
1772697860378745300,4.363745361328125,-0.678502082824707,0.10952489823102951,0.3728465437889099
1772697860388794400,4.37379443359375,-0.6173995733261108,0.1614176481962204,0.4004288911819458
1772697860398843400,4.383843505859375,-0.5421021580696106,0.2878355085849762,0.43634775280952454
1772697860408891400,4.393891357421875,-0.4576338827610016,0.3605470061302185,0.4708396792411804
1772697860418940400,4.4039404296875,-0.38587579131126404,0.46370428800582886,0.4932728111743927
1772697860428989400,4.413989501953125,-0.31571534276008606,0.5725008249282837,0.476358026266098
1772697860439037400,4.424037353515625,-0.2376682162284851,0.6379112601280212,0.42396777868270874
1772697860449086500,4.43408642578125,-0.1768312305212021,0.646453320980072,0.33521342277526855
1772697860459135200,4.44413525390625,-0.1859443038702011,0.6455127000808716,0.21732087433338165
1772697860469184500,4.4541845703125,-0.22944970428943634,0.5701020956039429,0.07153090834617615
1772697860479232300,4.464232177734375,-0.2923804521560669,0.45044252276420593,-0.05969661846756935
1772697860489281500,4.474281494140625,-0.3664983808994293,0.3013435900211334,-0.1002456471323967
1772697860499330300,4.484330322265625,-0.38811710476875305,0.13733015954494476,-0.042518697679042816
1772697860509378600,4.494378662109375,-0.3763696551322937,-0.007169762160629034,0.11502619087696075
1772697860519427300,4.50442724609375,-0.3497348427772522,-0.10848227143287659,0.3682480752468109
1772697860529476400,4.514476318359375,-0.3195497691631317,-0.16134122014045715,0.6095967888832092
1772697860539524400,4.5245244140625,-0.30464911460876465,-0.18013009428977966,0.7376628518104553
1772697860549573400,4.534573486328125,-0.2845371961593628,-0.1884428858757019,0.7504806518554688
1772697860559622400,4.544622314453125,-0.25175315141677856,-0.27793920040130615,0.6556622385978699
1772697860569670400,4.55467041015625,-0.2223595678806305,-0.4179421067237854,0.5135411024093628
1772697860579719400,4.564719482421875,-0.21187390387058258,-0.47714763879776,0.37416133284568787
1772697860589768400,4.5747685546875,-0.2363065481185913,-0.5421399474143982,0.26837658882141113
1772697860599817200,4.584817138671875,-0.2651592195034027,-0.6116407513618469,0.19605925679206848
1772697860609865500,4.594865478515625,-0.27304670214653015,-0.6399728059768677,0.13588379323482513
1772697860619914200,4.604914306640625,-0.2753114700317383,-0.6020110249519348,0.06876920908689499
1772697860629963500,4.614963623046875,-0.2721713185310364,-0.5081002116203308,-0.012402340769767761
1772697860640011300,4.62501123046875,-0.2630540132522583,-0.3549565076828003,-0.10979121178388596
1772697860650060300,4.635060302734375,-0.24835042655467987,-0.17141222953796387,-0.23672279715538025
1772697860660109300,4.645109375,-0.22022292017936707,0.017732391133904457,-0.35469818115234375
1772697860670157300,4.6551572265625,-0.1947564333677292,0.15292562544345856,-0.4541933238506317
1772697860680206300,4.665206298828125,-0.15142254531383514,0.22688427567481995,-0.5510826110839844
1772697860690255400,4.67525537109375,-0.09928317368030548,0.29217806458473206,-0.6344469785690308
1772697860700303400,4.685303466796875,-0.026378344744443893,0.35674506425857544,-0.6929851174354553
1772697860710352400,4.695352294921875,0.050825364887714386,0.40677228569984436,-0.7297801971435547
1772697860720401400,4.7054013671875,0.11158192157745361,0.3904969096183777,-0.7546847462654114
1772697860730450400,4.715450439453125,0.15334615111351013,0.2766196131706238,-0.7513200640678406
1772697860740498400,4.72549853515625,0.17388977110385895,0.06917161494493484,-0.7384684681892395
1772697860750547500,4.73554736328125,0.17030036449432373,-0.23313204944133759,-0.7198063731193542
1772697860760596200,4.74559619140625,0.1483045220375061,-0.5778422951698303,-0.6642195582389832
1772697860770644500,4.75564453125,0.1098916158080101,-0.8199976682662964,-0.6122942566871643
1772697860780693200,4.765693359375,0.06816733628511429,-0.947417140007019,-0.5509816408157349
1772697860790742300,4.7757421875,0.04897553101181984,-0.940470814704895,-0.48044705390930176
1772697860800790300,4.785790283203125,0.04700133204460144,-0.855134904384613,-0.39617183804512024
1772697860810839300,4.79583935546875,0.029384786263108253,-0.7471506595611572,-0.34053173661231995
1772697860820888300,4.805888427734375,0.022916501387953758,-0.675829291343689,-0.31381410360336304
1772697860830937300,4.815937255859375,0.018748121336102486,-0.6217623353004456,-0.2806481719017029
1772697860840985300,4.8259853515625,0.018150242045521736,-0.5506101250648499,-0.26253628730773926
1772697860851034400,4.836034423828125,0.013882526196539402,-0.5291399955749512,-0.2815200984477997
1772697860861083400,4.84608349609375,0.014990933239459991,-0.5188644528388977,-0.3357827961444855
1772697860871131400,4.85613134765625,0.017016267403960228,-0.44434523582458496,-0.404256135225296
1772697860881180200,4.86618017578125,0.04202521592378616,-0.33168792724609375,-0.4709818959236145
1772697860891229400,4.8762294921875,0.07578397542238235,-0.274099737405777,-0.5429189205169678
1772697860901277200,4.886277099609375,0.10988202691078186,-0.23079219460487366,-0.5872171521186829
1772697860911326500,4.896326416015625,0.1360158920288086,-0.19742172956466675,-0.6042140126228333
1772697860921375200,4.906375244140625,0.14837774634361267,-0.19106529653072357,-0.6283153295516968
1772697860931423500,4.916423583984375,0.15085475146770477,-0.21721380949020386,-0.6449621915817261
1772697860941472300,4.92647216796875,0.16061045229434967,-0.23026089370250702,-0.63420569896698
1772697860951521300,4.936521240234375,0.17804430425167084,-0.24157561361789703,-0.6187202334403992
1772697860961570300,4.9465703125,0.193891704082489,-0.23716114461421967,-0.5785120725631714
1772697860971618000,4.9566181640625,0.21561697125434875,-0.20059914886951447,-0.4970502555370331
1772697860981666800,4.966666748046875,0.22878018021583557,-0.19795861840248108,-0.41875916719436646
1772697860991715800,4.9767158203125,0.2432033270597458,-0.19770056009292603,-0.33887234330177307
1772697861001763800,4.986763916015625,0.2663328945636749,-0.18924182653427124,-0.2526887059211731
1772697861011812900,4.996812744140625,0.2863268256187439,-0.20832790434360504,-0.16681161522865295
1772697861021862000,5.00686181640625,0.2933991253376007,-0.22331804037094116,-0.1114112138748169
1772697861031910000,5.016909912109375,0.302194207906723,-0.28274035453796387,-0.0968671590089798
1772697861041959000,5.026958984375,0.3369327485561371,-0.3375956118106842,-0.11645950376987457
1772697861052008000,5.037008056640625,0.38018327951431274,-0.3626924455165863,-0.15152747929096222
1772697861062056000,5.047055908203125,0.3994464576244354,-0.31510069966316223,-0.18828442692756653
1772697861072105000,5.05710498046875,0.40776804089546204,-0.24388323724269867,-0.204782173037529
1772697861082153700,5.06715380859375,0.41172176599502563,-0.20765678584575653,-0.2067049741744995
1772697861092203000,5.077203125,0.4072636365890503,-0.2131815105676651,-0.20270144939422607
1772697861102250800,5.087250732421875,0.41039925813674927,-0.24866467714309692,-0.19661132991313934
1772697861112300000,5.097300048828125,0.42547807097435,-0.273693323135376,-0.1780397742986679
1772697861122349000,5.10734912109375,0.44430580735206604,-0.2638031542301178,-0.15140363574028015
1772697861132397000,5.11739697265625,0.4525246024131775,-0.24171622097492218,-0.12288251519203186
1772697861142445800,5.12744580078125,0.42897719144821167,-0.22064156830310822,-0.1295798271894455
1772697861152494800,5.137494873046875,0.39170411229133606,-0.1374896913766861,-0.1621127426624298
1772697861162542800,5.14754296875,0.35258254408836365,-0.17861661314964294,-0.21935632824897766
1772697861172591900,5.157591796875,0.31782057881355286,-0.24936401844024658,-0.2737378180027008
1772697861182641000,5.167640869140625,0.3179776966571808,-0.27912217378616333,-0.2960710823535919
1772697861192689000,5.17768896484375,0.32182544469833374,-0.29683300852775574,-0.2981320917606354
1772697861202738000,5.187738037109375,0.3524211645126343,-0.3182687759399414,-0.2915809750556946
1772697861212787000,5.197786865234375,0.40215781331062317,-0.3616895079612732,-0.28031688928604126
1772697861222836000,5.2078359375,0.4123010039329529,-0.4231339395046234,-0.24741113185882568
1772697861232884000,5.217884033203125,0.4155692458152771,-0.45102575421333313,-0.19306053221225739
1772697861242932700,5.2279326171875,0.40800267457962036,-0.5241034626960754,-0.16331622004508972
1772697861252982000,5.23798193359375,0.4203850328922272,-0.533855676651001,-0.14726375043392181
1772697861263029800,5.24802978515625,0.43949535489082336,-0.5076406002044678,-0.11945848912000656
1772697861273079000,5.2580791015625,0.46964791417121887,-0.4818952679634094,-0.0973593071103096
1772697861283128000,5.268128173828125,0.5198911428451538,-0.48010748624801636,-0.10573921352624893
1772697861293175800,5.27817578125,0.5814908146858215,-0.4751795828342438,-0.11282908171415329
1772697861303224800,5.288224853515625,0.6054039001464844,-0.47064873576164246,-0.09291449189186096
1772697861313273900,5.29827392578125,0.5735481977462769,-0.5321334004402161,-0.07813208550214767
1772697861323323100,5.3083232421875,0.5317142009735107,-0.5708602666854858,-0.08175078779459
1772697861333371000,5.318370849609375,0.5197364091873169,-0.5756582617759705,-0.07000944763422012
1772697861343420000,5.328419921875,0.5406496524810791,-0.5584228038787842,-0.07701249420642853
1772697861353468000,5.338468017578125,0.5655201077461243,-0.4964260160923004,-0.10269149392843246
1772697861363517000,5.348516845703125,0.596767008304596,-0.38282912969589233,-0.11343122273683548
1772697861373566000,5.35856591796875,0.6428591012954712,-0.2828831076622009,-0.10422440618276596
1772697861383614000,5.368614013671875,0.6821242570877075,-0.21369338035583496,-0.0758524164557457
1772697861393663000,5.3786630859375,0.703097939491272,-0.11729732900857925,-0.012106996960937977
1772697861403711700,5.388711669921875,0.682023286819458,-0.09162499010562897,0.015780027955770493
1772697861413760000,5.398760009765625,0.6738095879554749,-0.10147735476493835,0.018249843269586563
1772697861423808800,5.408808837890625,0.663189709186554,-0.05042322725057602,0.04604472219944
1772697861433857800,5.41885791015625,0.5959637761116028,0.04122520238161087,0.08867767453193665
1772697861443907000,5.428906982421875,0.4765170216560364,0.08622036874294281,0.13216975331306458
1772697861453954800,5.438954833984375,0.3661332428455353,0.060749899595975876,0.18078069388866425
1772697861464003800,5.44900390625,0.3148269057273865,-0.025833994150161743,0.23596486449241638
1772697861474052900,5.459052978515625,0.27671656012535095,-0.15809562802314758,0.24434423446655273
1772697861484100900,5.469100830078125,0.2484031468629837,-0.22353428602218628,0.19226637482643127
1772697861494150000,5.47914990234375,0.21882395446300507,-0.24714933335781097,0.09844455122947693
1772697861504199000,5.489198974609375,0.18575522303581238,-0.30189353227615356,-0.022727416828274727
1772697861514247000,5.499246826171875,0.12249342352151871,-0.374184787273407,-0.1353043019771576
1772697861524295700,5.509295654296875,0.05097876116633415,-0.38341236114501953,-0.14632871747016907
1772697861534345000,5.519344970703125,-0.02484383061528206,-0.27491146326065063,-0.04387105256319046
1772697861544394000,5.52939404296875,-0.06314674764871597,-0.14860385656356812,0.1044933870434761
1772697861554442000,5.53944189453125,-0.051291417330503464,-0.08967422693967819,0.20905041694641113
1772697861564490800,5.54949072265625,-0.01660534180700779,-0.01005236804485321,0.2193422019481659
1772697861574539800,5.559539794921875,0.006311425473541021,0.12913241982460022,0.15508092939853668
1772697861584587800,5.569587890625,0.02166374959051609,0.22205783426761627,0.023802800104022026
1772697861594636800,5.57963671875,0.014058827422559261,0.3018903434276581,-0.1204286739230156
1772697861604686000,5.58968603515625,-0.028379444032907486,0.3536299765110016,-0.23500531911849976
1772697861614733800,5.59973388671875,-0.08065196871757507,0.3886697292327881,-0.27576953172683716
1772697861624782800,5.609782958984375,-0.10298550128936768,0.46104857325553894,-0.24054549634456635
1772697861634832000,5.619831787109375,-0.12087448686361313,0.560974657535553,-0.14750610291957855
1772697861644880000,5.6298798828125,-0.13984818756580353,0.6248226165771484,-0.02726091630756855
1772697861654929000,5.639928955078125,-0.15393683314323425,0.6314445734024048,0.09497178345918655
1772697861664978000,5.64997802734375,-0.15503299236297607,0.5603994131088257,0.20205402374267578
1772697861675027000,5.66002685546875,-0.11698281019926071,0.4366457760334015,0.2950572073459625
1772697861685074700,5.67007470703125,-0.05832402780652046,0.34516406059265137,0.36826297640800476
1772697861695124000,5.6801240234375,0.0011294466676190495,0.2842003107070923,0.3896026313304901
1772697861705173000,5.690173095703125,0.05371462553739548,0.2651296555995941,0.37837234139442444
1772697861715221000,5.700220947265625,0.10487101972103119,0.27132099866867065,0.3587570786476135
1772697861725269800,5.710269775390625,0.130850151181221,0.24776320159435272,0.3154684603214264
1772697861735318800,5.72031884765625,0.13909876346588135,0.22243280708789825,0.2797064781188965
1772697861745366800,5.73036669921875,0.12651799619197845,0.21052208542823792,0.27199316024780273
1772697861755415800,5.740415771484375,0.09861871600151062,0.16861458122730255,0.2805653512477875
1772697861765465000,5.750465087890625,0.06939878314733505,0.11579237878322601,0.2865888774394989
1772697861775512800,5.760512939453125,0.04059403017163277,0.06384076178073883,0.2901495397090912
1772697861785561900,5.770561767578125,0.02738342061638832,0.03995141014456749,0.28038373589515686
1772697861795611000,5.78061083984375,0.03266926482319832,0.04554351791739464,0.24817945063114166
1772697861805660000,5.790659912109375,0.039860066026449203,0.06292890012264252,0.21460364758968353
1772697861815708000,5.8007080078125,0.036376383155584335,0.09067770838737488,0.18703752756118774
1772697861825757000,5.8107568359375,0.037703171372413635,0.1335170418024063,0.1684257686138153
1772697861835806000,5.820805908203125,0.0441616028547287,0.13661643862724304,0.17272037267684937
1772697861845853700,5.830853759765625,0.04556508734822273,0.12921124696731567,0.1903582215309143
1772697861855903000,5.840903076171875,0.05464779958128929,0.0924452468752861,0.20330145955085754
1772697861865952000,5.850951904296875,0.06750287860631943,0.03427887707948685,0.20636329054832458
1772697861876000000,5.861,0.07296182215213776,-0.04336771368980408,0.16686062514781952
1772697861886048800,5.871048828125,0.0847708135843277,-0.14048680663108826,0.0982285663485527
1772697861896097800,5.881097900390625,0.0999244675040245,-0.19837434589862823,0.015360048040747643
1772697861906147000,5.89114697265625,0.11708348244428635,-0.1720639020204544,-0.06083831563591957
1772697861916194800,5.90119482421875,0.12054186314344406,-0.08778338134288788,-0.11428316682577133
1772697861926244000,5.911244140625,0.13195855915546417,-0.02394474670290947,-0.15225371718406677
1772697861936292900,5.92129296875,0.14087535440921783,0.02371145412325859,-0.16387681663036346
1772697861946340900,5.9313408203125,0.1397128850221634,0.06408790498971939,-0.16064053773880005
1772697861956390000,5.941389892578125,0.13600817322731018,0.08700307458639145,-0.15067392587661743
1772697861966439000,5.95143896484375,0.13217881321907043,0.08890723437070847,-0.14163462817668915
1772697861976487400,5.9614873046875,0.1277683526277542,0.08072707056999207,-0.14651593565940857
1772697861986536400,5.971536376953125,0.10491149872541428,0.07769586145877838,-0.15848630666732788
1772697861996585700,5.981585693359375,0.07573337852954865,0.0672120600938797,-0.16362380981445312
1772697862006633500,5.991633544921875,0.05359931290149689,0.08025116473436356,-0.17226950824260712
1772697862016682500,6.0016826171875,0.029207685962319374,0.09521999210119247,-0.17820942401885986
1772697862026731500,6.0117314453125,0.01702425628900528,0.09681016951799393,-0.16903509199619293
1772697862036780500,6.021780517578125,0.018037589266896248,0.10576345026493073,-0.13901114463806152
1772697862046828500,6.03182861328125,0.01763731613755226,0.11855407804250717,-0.09147185832262039
1772697862056877300,6.041877197265625,0.021395836025476456,0.1001359224319458,-0.03802834078669548
1772697862066926600,6.051926513671875,0.026997528970241547,0.058219365775585175,0.006734868045896292
1772697862076974300,6.061974365234375,0.024202542379498482,0.03520592302083969,0.05054120346903801
1772697862087023600,6.072023681640625,0.0062642875127494335,0.024106668308377266,0.07829507440328598
1772697862097072600,6.08207275390625,-0.018147578462958336,0.0285235196352005,0.11427171528339386
1772697862107120600,6.09212060546875,-0.04686018452048302,0.03155206888914108,0.1546630859375
1772697862117169400,6.10216943359375,-0.07798720896244049,0.032044220715761185,0.18742501735687256
1772697862127218400,6.112218505859375,-0.09504236280918121,0.02630111202597618,0.21853207051753998
1772697862137267700,6.122267822265625,-0.11905261874198914,0.028241757303476334,0.2544615864753723
1772697862147315500,6.1323154296875,-0.13052232563495636,0.02863750420510769,0.2802758514881134
1772697862157364500,6.142364501953125,-0.1386079490184784,0.036611806601285934,0.30175745487213135
1772697862167413500,6.15241357421875,-0.14087562263011932,0.06308788806200027,0.30880871415138245
1772697862177461500,6.16246142578125,-0.1453915536403656,0.0719468966126442,0.30215081572532654
1772697862187510500,6.172510498046875,-0.16318786144256592,0.09632493555545807,0.2768084406852722
1772697862197559600,6.1825595703125,-0.19268076121807098,0.10297191888093948,0.24710699915885925
1772697862207607600,6.192607666015625,-0.22039414942264557,0.10896003991365433,0.22116434574127197
1772697862217656300,6.20265625,-0.23637525737285614,0.1242108941078186,0.21541990339756012
1772697862227705600,6.21270556640625,-0.2555966079235077,0.14930959045886993,0.21244008839130402
1772697862237754600,6.222754638671875,-0.27513623237609863,0.16664011776447296,0.20856119692325592
1772697862247802400,6.23280224609375,-0.2803112864494324,0.1983916461467743,0.2425500601530075
1772697862257851600,6.2428515625,-0.282026082277298,0.19720707833766937,0.2514980137348175
1772697862267900400,6.252900390625,-0.27887532114982605,0.18641860783100128,0.24870595335960388
1772697862277948400,6.262948486328125,-0.27201634645462036,0.171253502368927,0.23900485038757324
1772697862287997400,6.27299755859375,-0.2560698688030243,0.21735309064388275,0.25624775886535645
1772697862298046500,6.28304638671875,-0.22763662040233612,0.23353205621242523,0.2858711779117584
1772697862308094500,6.293094482421875,-0.21383851766586304,0.2604001462459564,0.3117925226688385
1772697862318143500,6.3031435546875,-0.21627157926559448,0.2795022130012512,0.337534636259079
1772697862328192500,6.313192626953125,-0.22774368524551392,0.2878762483596802,0.36442455649375916
1772697862338240500,6.323240478515625,-0.25780385732650757,0.2587151825428009,0.3858177363872528
1772697862348289500,6.33328955078125,-0.29688146710395813,0.21834112703800201,0.4303548336029053
1772697862358338600,6.343338623046875,-0.33450713753700256,0.1778578758239746,0.4587015211582184
1772697862368387600,6.3533876953125,-0.376316100358963,0.0987742468714714,0.46141317486763
1772697862378435300,6.363435302734375,-0.38280677795410156,0.09457603842020035,0.4585215151309967
1772697862388484400,6.373484375,-0.37499839067459106,0.0981161817908287,0.46892914175987244
1772697862398533600,6.38353369140625,-0.3372315466403961,0.13282489776611328,0.46774935722351074
1772697862408581400,6.393581298828125,-0.315267413854599,0.1633007824420929,0.4418320059776306
1772697862418630700,6.403630615234375,-0.311798632144928,0.22032330930233002,0.42765146493911743
1772697862428679400,6.413679443359375,-0.30594635009765625,0.21733711659908295,0.40555867552757263
1772697862438727400,6.4237275390625,-0.31697583198547363,0.18348807096481323,0.3687324821949005
1772697862448776400,6.4337763671875,-0.3092992603778839,0.12238983064889908,0.3420473635196686
1772697862458825500,6.443825439453125,-0.2842221260070801,0.059129100292921066,0.32824552059173584
1772697862468874500,6.45387451171875,-0.260162353515625,0.01079538930207491,0.30633488297462463
1772697862478922500,6.463922607421875,-0.23965759575366974,-0.02377616986632347,0.2869042158126831
1772697862488971500,6.473971435546875,-0.21764737367630005,-0.04783250391483307,0.28691592812538147
1772697862499020500,6.4840205078125,-0.17790980637073517,-0.05464540049433708,0.294574111700058
1772697862509068500,6.494068603515625,-0.12958009541034698,0.05018940195441246,0.3114553689956665
1772697862519117600,6.50411767578125,-0.08463579416275024,0.27320143580436707,0.3333457410335541
1772697862529166300,6.514166259765625,-0.07333413511514664,0.4447561502456665,0.3139701783657074
1772697862539214300,6.52421435546875,-0.08202269673347473,0.3863096237182617,0.2771652936935425
1772697862549263400,6.534263427734375,-0.13935069739818573,0.22042638063430786,0.23194748163223267
1772697862559312600,6.544312744140625,-0.21327047049999237,0.005093295592814684,0.15773557126522064
1772697862569360400,6.5543603515625,-0.26058071851730347,-0.14691194891929626,0.13269759714603424
1772697862579409700,6.56440966796875,-0.2843387722969055,-0.18032929301261902,0.21341507136821747
1772697862589458400,6.57445849609375,-0.29180389642715454,-0.15279033780097961,0.29903170466423035
1772697862599507500,6.584507568359375,-0.2918560802936554,-0.13297003507614136,0.3989713490009308
1772697862609555500,6.594555419921875,-0.27388960123062134,-0.08294601738452911,0.5089404582977295
1772697862619604500,6.6046044921875,-0.2425021231174469,-0.005335909314453602,0.5953685641288757
1772697862629653500,6.614653564453125,-0.21245740354061127,0.10943727940320969,0.6462826132774353
1772697862639701500,6.624701416015625,-0.16773414611816406,0.23970873653888702,0.6455174684524536
1772697862649750500,6.63475048828125,-0.10403957962989807,0.34108248353004456,0.5931339263916016
1772697862659799600,6.644799560546875,-0.04830814525485039,0.45157676935195923,0.5100909471511841
1772697862669847600,6.65484765625,-0.048592571169137955,0.5315770506858826,0.3844749629497528
1772697862679896600,6.664896484375,-0.06944964826107025,0.5234176516532898,0.26844024658203125
1772697862689945300,6.6749453125,-0.08258595317602158,0.4433244466781616,0.20170915126800537
1772697862699994600,6.68499462890625,-0.08157075941562653,0.34848901629447937,0.13845641911029816
1772697862710042400,6.69504248046875,-0.06328762322664261,0.28160130977630615,0.06262529641389847
1772697862720091600,6.705091552734375,-0.04483884572982788,0.2143610268831253,0.004815794061869383
1772697862730140400,6.715140380859375,-0.020832577720284462,0.1486528515815735,-0.009520800784230232
1772697862740188700,6.725188720703125,-0.0040855552069842815,0.15686525404453278,0.036432843655347824
1772697862750237400,6.735237548828125,-0.008986038155853748,0.20273979008197784,0.11507119238376617
1772697862760286500,6.745286376953125,-0.038831017911434174,0.20864002406597137,0.16437482833862305
1772697862770334500,6.75533447265625,-0.06750474125146866,0.20927518606185913,0.18717175722122192
1772697862780383500,6.765383544921875,-0.08994293957948685,0.1498025506734848,0.17079117894172668
1772697862790432500,6.7754326171875,-0.09336776286363602,0.08775914460420609,0.14088840782642365
1772697862800481500,6.7854814453125,-0.08753011375665665,0.04960084334015846,0.120257169008255
1772697862810529500,6.795529541015625,-0.08020908385515213,0.042449455708265305,0.1076819896697998
1772697862820578600,6.80557861328125,-0.07043661922216415,0.06667277216911316,0.08241285383701324
1772697862830627300,6.81562744140625,-0.05396096780896187,0.05324750766158104,0.05471863970160484
1772697862840675600,6.825675537109375,-0.003245061729103327,0.017110276967287064,0.16148343682289124
1772697862850724400,6.835724365234375,0.04108884558081627,-0.058167167007923126,0.25132277607917786
1772697862860773600,6.845773681640625,0.03941744565963745,-0.04006166383624077,0.22549889981746674
1772697862870821400,6.8558212890625,0.002804841147735715,-0.0014958975370973349,0.19231964647769928
1772697862880870700,6.86587060546875,-0.04883971065282822,0.05482117086648941,0.12518055737018585
1772697862890919400,6.87591943359375,-0.08427200466394424,0.08886382728815079,0.029273733496665955
1772697862900967700,6.8859677734375,-0.09397736191749573,0.15411579608917236,-0.06994392722845078
1772697862911016400,6.896016357421875,-0.10638449341058731,0.2544759511947632,-0.10890038311481476
1772697862921065500,6.9060654296875,-0.10963861644268036,0.2968364655971527,-0.1263238489627838
1772697862931114500,6.916114501953125,-0.12283031642436981,0.281873494386673,-0.09564343839883804
1772697862941162500,6.92616259765625,-0.14453694224357605,0.22577346861362457,-0.05397694930434227
