time,seconds_elapsed,z,y,x
1772697833346443500,0.063443603515625,-0.28274083682596685,0.06501636978983878,0.14856500609219073
1772697833356492300,0.0734921875,-0.2171639105439186,0.03663812430649996,0.135973820066452
1772697833366540500,0.08354052734375,-0.09597864041700958,0.061225453074276445,0.12987199606001376
1772697833376589300,0.09358935546875,0.02341828498840332,0.07968991504758596,0.10846505089402197
1772697833386638300,0.103638427734375,0.10445508460029959,0.11120908890515566,0.0691372491121292
1772697833396686300,0.113686279296875,0.137215929082036,0.10551116952449083,0.04458908331096172
1772697833406735400,0.1237353515625,0.1262660805225372,0.07786825257837772,0.0038502456873655317
1772697833416784400,0.133784423828125,0.10004150594174861,0.03796995743215084,-0.008470306703448295
1772697833426832400,0.143832275390625,0.051299248474091286,0.02003536455184221,0.00220423204600811
1772697833436881400,0.15388134765625,-0.022283654935285446,-0.043701486821472645,0.014100421544909477
1772697833446930400,0.163930419921875,-0.06252528362646699,-0.12588701807707547,-0.04109247336685657
1772697833456978400,0.173978515625,-0.1065594364684075,-0.16709785712659359,-0.07556874346435069
1772697833467027500,0.18402734375,-0.16058511423170566,-0.11642097833454608,-0.05802198085784912
1772697833477076200,0.194076171875,-0.10665946277678012,-0.013456278422474861,-0.057850131422281265
1772697833487124500,0.20412451171875,-0.00039396775364875793,0.06605915684103965,-0.09129413586258887
1772697833497173200,0.21417333984375,0.05101422098763287,0.0846338011905551,-0.10439385593235492
1772697833507222500,0.224222412109375,0.02865603951141238,0.026206454402208326,-0.09965747506022453
1772697833517270300,0.234270263671875,-0.077355773011595,-0.04932955583631992,-0.09255436505675316
1772697833527319600,0.244319580078125,-0.13511004284396766,-0.11135931103080511,-0.06498714369535445
1772697833537368300,0.254368408203125,-0.09704349316954612,-0.1523269889742136,-0.0556003066688776
1772697833547416600,0.26441650390625,-0.02230586676709354,-0.2048860282510519,-0.05734802711904049
1772697833557465300,0.27446533203125,-0.005983019932359457,-0.20873422811180353,-0.09096505003869533
1772697833567513300,0.284513427734375,-0.02118307328224182,-0.1451879308745265,-0.1506833134204149
1772697833577562400,0.294562255859375,-0.05351297900080681,-0.032849837939441205,-0.2376245147705078
1772697833587611400,0.304611328125,-0.05081657952368259,0.15073036743253468,-0.28022388556897637
1772697833597659400,0.314659423828125,-0.0505324288200587,0.25410978562533854,-0.20398177288770675
1772697833607708400,0.32470849609375,-0.20870120262503622,0.2284104039624333,-0.09535188682079315
1772697833617757400,0.33475732421875,-0.46475978423058983,0.17808423830419778,-0.06755494835674762
1772697833627805400,0.344805419921875,-0.5947790798068047,0.2168675579458475,-0.12675181821286677
1772697833637854500,0.3548544921875,-0.5761386767446994,0.3656880001038313,-0.10113689996302128
1772697833647903500,0.364903564453125,-0.4836918637156486,0.4755322303965687,-0.03405424529314041
1772697833657951200,0.374951171875,-0.4051543335735798,0.4394795047625899,0.012686463093757629
1772697833668000500,0.38500048828125,-0.40879473590254783,0.3439569375500083,-0.0359065951615572
1772697833678049300,0.39504931640625,-0.4007791872292757,0.2248307919099927,-0.10324819302856922
1772697833688097500,0.40509765625,-0.31817155810408293,0.18078356039077043,-0.12504618333876133
1772697833698146300,0.415146240234375,-0.2664244927972555,0.21323533892333507,-0.16759937690794466
1772697833708195300,0.4251953125,-0.33794439926221964,0.2959489857062697,-0.1897749683588743
1772697833718243300,0.435243408203125,-0.4134299944877624,0.39135669436752796,-0.17501169899106025
1772697833728292400,0.445292236328125,-0.4621083929389715,0.44444384917169805,-0.18821312586963176
1772697833738341400,0.45534130859375,-0.49605523233488197,0.39016923814862964,-0.18831366363465785
1772697833748389400,0.465389404296875,-0.5575282304294407,0.2563292152404785,-0.17248481086194514
1772697833758438400,0.4754384765625,-0.5714449659705162,0.1502437529593706,-0.10193944851756095
1772697833768486400,0.485486328125,-0.5075928907196968,0.03337561537921428,-0.07851765639781952
1772697833778535400,0.495535400390625,-0.5037777163457126,-0.008704407720267772,0.17930442774891853
1772697833788584400,0.50558447265625,-0.6337894862025976,0.09520721765309571,0.46320437148213384
1772697833798632400,0.515632568359375,-0.8342220421761274,0.1947685388624668,0.2452846741348505
1772697833808681500,0.525681396484375,-0.8374111205410212,0.346398777744174,-0.2170943524390459
1772697833818730200,0.535730224609375,-0.6415711530547589,0.4824123452991247,-0.508355764850974
1772697833828778500,0.545778564453125,-0.44565760887563227,0.510668425707519,-0.5211380895346402
1772697833838827300,0.5558271484375,-0.36969431313574314,0.44358080260157584,-0.45990825254619117
1772697833848876500,0.56587646484375,-0.4123907876331359,0.3501408868819475,-0.44113457849323745
1772697833858924300,0.57592431640625,-0.4747826541382819,0.22520254783183336,-0.49082244624793525
1772697833868973600,0.5859736328125,-0.5566676680773496,0.10705050792098045,-0.4329945266574621
1772697833879022300,0.596022216796875,-0.7159404576014727,-0.008072247296571732,-0.1636409946709871
1772697833889070600,0.606070556640625,-0.9079653237789869,-0.06165303083658218,0.012831424522399902
1772697833899119400,0.616119384765625,-0.9464724568277597,-0.07140987021923065,0.07003156760334968
1772697833909168400,0.62616845703125,-0.9471294594317674,0.01267068100273609,0.10921265439093113
1772697833919216400,0.63621630859375,-0.9242734845012426,0.07895137163996696,0.0010194061756134032
1772697833929265400,0.646265380859375,-0.8312690375894307,0.10959230135828256,-0.21555530630350112
1772697833939314400,0.656314453125,-0.6106137777984142,0.15971534565985201,-0.4994833070874214
1772697833949362700,0.66636279296875,-0.36722003197669983,0.14754092374145983,-0.736944155728817
1772697833959411700,0.67641162109375,-0.22417700417637823,0.18091478555500506,-0.7745511250674724
1772697833969459700,0.686459716796875,-0.2767910615760833,0.14262889404147863,-0.5378840571522713
1772697833979508700,0.6965087890625,-0.347843642790243,0.005179448464512825,-0.404905911770463
1772697833989557800,0.706557861328125,-0.3376794647157192,-0.16449118175953625,-0.313168123793602
1772697833999605800,0.716605712890625,-0.27073176153711975,-0.32568332197368144,-0.20981588586866853
1772697834009654800,0.72665478515625,-0.11860124498307704,-0.3989122243136167,-0.1507236454308033
1772697834019703600,0.73670361328125,0.023993454527854917,-0.40340573634058235,-0.10888707569837569
1772697834029751800,0.746751708984375,0.0796638307582587,-0.42976679678261276,-0.1339443600654602
1772697834039800600,0.756800537109375,0.0796685799986124,-0.4374535518929362,-0.32883214139342304
1772697834049849900,0.766849853515625,0.18862638284564018,-0.3151201346442103,-0.3213192815452814
1772697834059897600,0.776897705078125,0.2698275792390108,-0.1661833726301789,-0.13069675644636153
1772697834069947000,0.78694677734375,0.2574614341408014,-0.14170418041199445,0.2481605218321085
1772697834079995600,0.79699560546875,0.2564846980631351,-0.21325638171136377,0.6305845526814461
1772697834090044000,0.8070439453125,0.3050853551030159,-0.32236002276986836,0.8367004149883985
1772697834100092700,0.8170927734375,0.2432845132935792,-0.3528171203538775,0.8236760982424021
1772697834110141700,0.8271416015625,0.1144680907011032,-0.32752661175280806,0.7335445764183998
1772697834120189700,0.837189697265625,0.017856595740653573,-0.3401023079484701,0.6127466981738805
1772697834130238700,0.84723876953125,-0.022422771145030856,-0.4258335489869117,0.436924267321825
1772697834140287700,0.857287841796875,-0.010217442631721496,-0.5263961561933159,0.31787878570258615
1772697834150335700,0.867335693359375,0.01410159058868885,-0.5748857540741562,0.193043030244112
1772697834160384800,0.877384765625,-0.09454228747095912,-0.6477285797059535,0.3354308090060949
1772697834170433800,0.887433837890625,-0.28889581579174844,-0.4892816465467214,0.3637076399415731
1772697834180481800,0.897481689453125,-0.4995148712694645,-0.21053104840070008,0.3176046449363231
1772697834190530800,0.90753076171875,-0.766642543900013,0.11588380271792412,0.3116898679345846
1772697834200578800,0.917578857421875,-0.8886737633317708,0.3696393680781126,0.35192367864549157
1772697834210627800,0.9276279296875,-0.8474994569003581,0.5157596113666891,0.35723990523219107
1772697834220676600,0.937676513671875,-0.8031564573049544,0.6238955764368176,0.3151204269051552
1772697834230724600,0.947724609375,-0.766577077448368,0.644143122434616,0.2400251461714506
1772697834240773600,0.957773681640625,-0.7650970680236816,0.48242608156353234,0.1677501835554838
1772697834250822700,0.96782275390625,-0.7580699458658695,0.2089163066804409,0.08315116141736507
1772697834260870700,0.97787060546875,-0.7335849084287881,-0.09949147084355353,-0.07334405315220356
1772697834270919700,0.987919677734375,-0.6935328840255737,-0.2781736750409007,-0.16542729356586933
1772697834280968700,0.99796875,-0.6041822834461927,-0.43419367331415415,-0.2717442265152931
1772697834291016700,1.0080166015625,-0.5398141484320164,-0.6094195995777845,-0.3053624184787273
1772697834301065700,1.018065673828125,-0.4394108234405517,-0.6828250275284051,-0.30612697311043735
1772697834311114800,1.02811474609375,-0.2605529886816628,-0.6934034124270081,-0.3249515005677938
1772697834321162800,1.038162841796875,-0.1395628027354367,-0.6296545783549546,-0.3687491412401199
1772697834331211800,1.048211669921875,-0.10587561892271041,-0.5925967673316598,-0.46864627027511596
1772697834341260500,1.058260498046875,-0.1444517438207753,-0.5480591219469905,-0.416763522824645
1772697834351308500,1.06830859375,-0.09534136542677879,-0.44265959610342975,-0.14468202717900275
1772697834361357600,1.078357666015625,0.03988897932861,-0.42306846818774935,0.010160744008421898
1772697834371406800,1.08840673828125,0.012267945420742034,-0.49682928544729943,0.016368950998783112
1772697834381454600,1.09845458984375,-0.17297756281495094,-0.5544029380157589,-0.14350655365884304
1772697834391503600,1.108503662109375,-0.3552326935956254,-0.5583744719952345,-0.21930910587906835
1772697834401551600,1.118551513671875,-0.5867500871300697,-0.49423693086653947,-0.20490940912663935
1772697834411600600,1.1286005859375,-0.8684323548138141,-0.38490444948822256,-0.12942074516117572
1772697834421649700,1.138649658203125,-1.0453811593472957,-0.3430766475841403,-0.05559796858131885
1772697834431697700,1.14869775390625,-1.1305343082368373,-0.39566315938979385,-0.04919043962657451
1772697834441746700,1.15874658203125,-1.3207178573966025,-0.35128947239518166,-0.06068097093403339
1772697834451795500,1.16879541015625,-1.4306664248466492,-0.22982377789169547,-0.07345394326746463
1772697834461843700,1.17884375,-1.4329273555159567,-0.18968349068313836,-0.039918753412365914
1772697834471892500,1.188892578125,-1.379417883646488,-0.2124631855070591,-0.020217443120479583
1772697834481941800,1.198941650390625,-1.362538060516119,-0.22886194712221622,-0.0010597381860017775
1772697834491989500,1.208989501953125,-1.3752829757988452,-0.20860943268835544,-0.011674655702710151
1772697834502038800,1.219038818359375,-1.3423966052412986,-0.18799071529060601,-0.015105799195170402
1772697834512087600,1.229087646484375,-1.3094576277136802,-0.20153058034330606,0.015983166551589965
1772697834522135800,1.2391357421875,-1.3076666526436804,-0.29082535908222196,0.10192717355787753
1772697834532184600,1.2491845703125,-1.327449796000123,-0.38873949760645626,0.2188894191622734
1772697834542233600,1.259233642578125,-1.329180565315485,-0.501709166443348,0.2839730089694261
1772697834552281600,1.269281494140625,-1.3048825748831032,-0.5664800370395183,0.3956768956542015
1772697834562330600,1.27933056640625,-1.3020435520648956,-0.555756982973218,0.4898626613050699
1772697834572379600,1.289379638671875,-1.3605880954921246,-0.4973068398311734,0.5587275232166051
1772697834582427600,1.299427734375,-1.4345190086215733,-0.4260872314870357,0.5692705445408821
1772697834592476700,1.3094765625,-1.5140350284069775,-0.3532441135942936,0.5230038834065198
1772697834602525700,1.319525634765625,-1.6049322739064693,-0.2877446364626288,0.49159343062043187
1772697834612573700,1.32957373046875,-1.60722476875782,-0.2398442366465926,0.5615630389034748
1772697834622622700,1.339622802734375,-1.535921866044402,-0.22890461722016334,0.60485857527256
1772697834632670700,1.349670654296875,-1.3742957183271645,-0.3687707685500383,0.6905722806543111
1772697834642719700,1.3597197265625,-1.1353414162576199,-0.5923553597912192,0.8355816400915383
1772697834652768500,1.3697685546875,-0.9349053531527519,-0.8230731639131903,0.7869973496645688
1772697834662816800,1.379816650390625,-0.9674795890212059,-1.0154349338948727,0.6607125644415617
1772697834672865500,1.389865478515625,-1.1744400854587553,-1.1247642004027962,0.5497539431661367
1772697834682914800,1.399914794921875,-1.3756032937943934,-1.1911685174196958,0.48206221668720245
1772697834692962600,1.409962646484375,-1.483020881462097,-1.1985828853294254,0.5230529832452535
1772697834703011800,1.42001171875,-1.391082017955184,-1.1755293420001864,0.9198013075232505
1772697834713060600,1.430060546875,-1.0313362673819064,-1.0608400097638369,1.7323083614975212
1772697834723108900,1.44010888671875,-0.61547057017982,-0.7613114120051264,2.5944950999200342
1772697834733157600,1.45015771484375,-0.40130755848493427,-0.409132005032897,3.201267984381318
1772697834743206700,1.46020654296875,-0.2914168952345848,-0.15451806927770376,3.329386414772272
1772697834753254700,1.470254638671875,-0.16238836426138878,-0.08670768485516309,3.1750112610965964
1772697834763303700,1.4803037109375,0.12639994516842998,-0.2524737088561058,2.6483050160408017
1772697834773352700,1.490352783203125,0.3371019570887089,-0.539831684088707,1.9332699097812174
1772697834783400700,1.500400634765625,0.46113048781752586,-0.786112968045473,1.0728653786003588
1772697834793449700,1.51044970703125,0.4379904352486133,-0.9455892442524433,0.06105448042154312
1772697834803498800,1.520498779296875,0.34349428847432134,-1.0062316367417574,-0.684720047494769
1772697834813546800,1.530546630859375,0.20335574994385242,-0.8331462296381592,-1.0443336961209773
1772697834823595800,1.540595703125,0.34981998436450956,-0.51428486263901,-0.9585995324730873
1772697834833643800,1.550643798828125,0.6903139219790697,-0.1804755173549056,-0.5235866517305374
1772697834843692800,1.56069287109375,1.029737015491724,0.23474340637624264,-0.05444821402430534
1772697834853741600,1.570741455078125,1.2966197734504938,0.6332260071009397,0.0958551601678133
1772697834863789800,1.580789794921875,1.4462667295604943,0.8665668532028794,-0.014819967991113661
1772697834873838600,1.590838623046875,1.4599123930752276,0.9339923299610614,-0.4649842406362295
1772697834883887900,1.600887939453125,1.3275368897616862,0.8756134984895586,-0.9041180007010697
1772697834893935600,1.610935546875,1.2841548441529274,0.6745040661677718,-1.1708850233256816
1772697834903985000,1.62098486328125,1.3870914870142936,0.5065583600401878,-1.281130527895689
1772697834914033700,1.63103369140625,1.5319278279721735,0.3219257230058312,-1.1927099016427993
1772697834924082000,1.64108203125,1.6947767954826354,0.16374503956735134,-1.0910849259018898
1772697834934130700,1.651130615234375,1.704906559830904,0.09355360522717238,-0.9709960727095603
1772697834944179700,1.6611796875,1.5952631128072738,0.11567015996724367,-0.6852104613602161
1772697834954227700,1.671227783203125,1.4233049561679363,0.12725859869122505,-0.42019875797033307
1772697834964276700,1.68127685546875,1.2081681675374507,0.12115297529250382,-0.17663666984438894
1772697834974325800,1.69132568359375,1.054802483165264,0.16837971363067625,0.02812427072227001
1772697834984373800,1.701373779296875,0.8799550348252058,0.18667875590920446,0.34197920773625373
1772697834994422800,1.7114228515625,0.7418348503798246,0.12364070045500992,0.6040238780140876
1772697835004471800,1.721471923828125,0.731024702551961,-0.04893967973589897,0.8313765896171331
1772697835014519800,1.731519775390625,0.7004658981591463,-0.23341771073043346,0.8980559241831302
1772697835024568800,1.74156884765625,0.5727174701243639,-0.3485799211755395,0.8331225565016269
1772697835034616800,1.751616943359375,0.43141514851152896,-0.38681642058938737,0.5248106405675411
1772697835044665600,1.76166552734375,0.3799544258654117,-0.28787147771269084,0.20120997008681296
1772697835054714600,1.771714599609375,0.338319516184926,-0.1367243461728096,-0.2147369756579399
1772697835064762600,1.7817626953125,0.31940497235655785,-0.012542086187005043,-0.5733312181085348
1772697835074811600,1.791811767578125,0.2927771142045036,0.1055339658781886,-0.7905921592861413
1772697835084861000,1.80186083984375,0.30123627845942974,0.1853515989586711,-0.8270861989468336
1772697835094908700,1.81190869140625,0.29842180556058884,0.2032873608827591,-0.7767226238876581
1772697835104957700,1.821957763671875,0.34289690710306164,0.20802841793000698,-0.5217535910844803
1772697835115006700,1.8320068359375,0.39141222394704817,0.2675640182211995,-0.16546528748869896
1772697835125054700,1.8420546875,0.46091129210889337,0.3892936243578791,0.16258827074766158
1772697835135103700,1.852103759765625,0.4547480202388018,0.510575194466114,0.3072761431455612
1772697835145152800,1.86215283203125,0.3301823869585991,0.5665452112302184,0.25174773266911504
1772697835155200800,1.87220068359375,0.20438743107914922,0.5646206729084253,-0.13172843758165836
1772697835165249500,1.88224951171875,0.17278240556903182,0.47966304659098385,-0.28081425267755983
1772697835175298800,1.892298828125,0.1750005930751562,0.35912995676249265,-0.43383273104727266
1772697835185346600,1.9023466796875,0.2050380039423704,0.20776713664531707,-0.5576058257102966
1772697835195395600,1.9123955078125,0.22910613114163278,0.024689035576581954,-0.6888140388101339
1772697835205444600,1.922444580078125,0.14719488678276538,-0.23175036204010246,-0.7812982612401247
1772697835215492600,1.93249267578125,0.02005677266605198,-0.46949411927610635,-0.725970341771841
1772697835225541600,1.942541748046875,-0.10105565142035483,-0.6888260215088725,-0.623003303772211
1772697835235589600,1.952589599609375,-0.24757146989777684,-0.8016384539574384,-0.43388826062679287
1772697835245638700,1.962638671875,-0.2833002242743969,-0.7846107467889786,-0.10973930861353874
1772697835255687700,1.972687744140625,-0.24756072930805384,-0.6557818300411105,0.01105856963098049
1772697835265735700,1.982735595703125,-0.21766250771582124,-0.5770163363620638,0.09414718720614909
1772697835275784700,1.99278466796875,-0.2883481553137302,-0.4774503389775753,-0.05668868642747402
1772697835285833500,2.00283349609375,-0.45738362943939864,-0.4587064755409956,-0.33611820674836634
1772697835295881700,2.0128818359375,-0.5032295078784227,-0.47454614196866746,-0.46204935622811316
1772697835305930500,2.022930419921875,-0.5433106853108853,-0.39291210711598396,-0.7128203528195619
1772697835315979800,2.032979736328125,-0.525507902116701,-0.23244068239182233,-0.8476064244061708
1772697835326027500,2.043027587890625,-0.5116818405337631,-0.12407353891432285,-0.9687328039526939
1772697835336076800,2.053076904296875,-0.5406231267273426,-0.17875117778033017,-1.01626027880311
1772697835346125600,2.06312548828125,-0.6116740274410695,-0.3262494314238429,-1.0513403600126505
1772697835356173800,2.073173828125,-0.7491027224909513,-0.4143938710838556,-0.9691700263261794
1772697835366222600,2.08322265625,-0.8849747626833617,-0.5135229383558034,-0.8141051368206739
1772697835376271600,2.093271728515625,-1.0340291597276925,-0.5475853669553995,-0.5253139139145613
1772697835386319600,2.103319580078125,-1.1355677723594009,-0.4921756144225597,-0.17093348976671693
1772697835396368600,2.11336865234375,-1.3377614927865564,-0.315506795874238,0.14851239912211894
1772697835406417700,2.123417724609375,-1.5424878004312514,-0.06718640730530023,0.2985246814131737
1772697835416465700,2.133465576171875,-1.7970229718618094,0.24365999554246662,0.37441725000441073
1772697835426514700,2.1435146484375,-2.1085573569737375,0.4801698270693421,0.5285276152640581
1772697835436563700,2.153563720703125,-2.447297436658293,0.46868426419794557,0.674886051222682
1772697835446611700,2.16361181640625,-2.580332719054818,0.353109089037776,0.7248626727908849
1772697835456660700,2.17366064453125,-2.4772096137106416,0.20134704046994448,0.7039122392207384
1772697835466708700,2.183708740234375,-2.2177922231964766,0.041998190034925935,0.5975146422505379
1772697835476757800,2.1937578125,-1.8704694624751805,-0.04538520212471485,0.49701487114727494
1772697835486806500,2.203806640625,-1.5672556003324687,-0.16272621791362762,0.3652975394815206
1772697835496854800,2.213854736328125,-1.3169308862037956,-0.26489918292611836,0.1603963136613369
1772697835506903600,2.223903564453125,-1.2120092070050537,-0.4105538545295596,-0.010811901393532752
1772697835516952800,2.233952880859375,-1.236278994256258,-0.4685150451108813,-0.18763795633018016
1772697835527000600,2.24400048828125,-1.2490319467149673,-0.341512467007339,-0.3575789279282093
1772697835537049900,2.2540498046875,-1.2165638015694915,0.005978782148659229,-0.45838323493599886
1772697835547098600,2.2640986328125,-1.0784918401800094,0.7132961536377668,-0.11830080073177814
1772697835557147000,2.27414697265625,-1.1469196258485317,1.7174968690738082,0.7874690588295459
1772697835567195600,2.284195556640625,-1.308513478731364,2.6497040691837666,1.594544735404849
1772697835577244700,2.29424462890625,-1.332202689615637,3.083618048773706,1.7781944988816976
1772697835587292700,2.304292724609375,-0.9113691408731043,2.918457881711423,1.2761983321905135
1772697835597341700,2.314341796875,0.037708676147460936,2.213229006934166,0.6350169821709394
1772697835607390700,2.324390625,0.8269026590734719,1.4149468776673078,0.15181903945207595
1772697835617438700,2.334438720703125,1.0501391675293446,0.5208665791168808,-0.21847850027382373
1772697835627487700,2.34448779296875,1.1000760416090487,0.02922229509204626,-0.772964732658863
1772697835637536800,2.354536865234375,1.3590050640843807,-0.01984334911108017,-1.2096078449517487
1772697835647584800,2.364584716796875,1.8749981919459997,0.5006888834848999,-1.4149217432260512
1772697835657633800,2.3746337890625,2.220807333233952,1.2002481881931424,-1.1020084709763527
1772697835667682600,2.3846826171875,2.312488422587514,1.79874219686985,-0.6041805298805236
1772697835677730800,2.394730712890625,2.276125900352001,2.0857418601840734,-0.1157581305116415
1772697835687779600,2.404779541015625,1.9706834023743867,1.8704472506433725,0.33199615838229657
1772697835697827600,2.41482763671875,1.3810346711933612,1.2457312977343797,0.7484054609417915
1772697835707876600,2.424876708984375,0.7987941704422235,0.41059330975711344,0.841891553890705
1772697835717926000,2.43492578125,0.48818044383917003,-0.23026976809352634,0.4303659317195415
1772697835727973600,2.4449736328125,0.5457528177659958,-0.5328633063808084,-0.2777238854467869
1772697835738023000,2.45502294921875,0.929869697073102,-0.6486860265612602,-0.836703337597847
1772697835748071700,2.46507177734375,1.38722884965837,-0.778895584012568,-1.0883978787750006
1772697835758119700,2.47511962890625,1.797546849605441,-0.8929965949669479,-1.051915529552102
1772697835768168700,2.485168701171875,2.0429168639361857,-0.9849231835141777,-0.8684674261271953
1772697835778217700,2.4952177734375,2.21723122831285,-1.0957944187670945,-0.6361959628224373
1772697835788265700,2.505265625,2.4201667070180175,-1.1281491666659713,-0.39047114370465275
1772697835798314500,2.515314453125,2.5404712487876413,-1.038375664499402,-0.30530981150865555
1772697835808363800,2.52536376953125,2.5231916126847267,-0.839780553086102,-0.13074001106619834
1772697835818411500,2.53541162109375,2.349050851309299,-0.6428387618377804,0.21203414644002913
1772697835828460800,2.545460693359375,2.099302183502912,-0.3730924311414361,0.483096235910058
1772697835838509800,2.555509765625,1.9169518121868372,-0.10373597654551267,0.6146510704904794
1772697835848557800,2.565557861328125,1.7756670262306928,0.09481237311661243,0.6005483108580112
1772697835858606600,2.575606689453125,1.5777695416927338,0.18594138154536485,0.4544914881944656
1772697835868655600,2.585655517578125,1.3134382217824458,0.24578297904580831,0.23071663507819173
1772697835878703600,2.59570361328125,1.163853224992752,0.3358607248559594,0.04209259032011032
1772697835888752600,2.605752685546875,1.0030360555708409,0.38840895047783847,-0.09066752839684486
1772697835898800600,2.615800537109375,0.6280816299498081,0.44837125174850223,-0.07529577174186707
1772697835908849700,2.625849609375,-0.05919686072296462,0.40399639571011065,-0.07692015807330609
1772697835918898700,2.635898681640625,-0.6564110678553581,0.3079080113083124,-0.2063110926181078
1772697835928946700,2.64594677734375,-0.9684159930884838,0.20476503221988676,-0.22639000405073165
1772697835938995700,2.65599560546875,-0.9668237554609775,0.09948971727788447,-0.2049205150425434
1772697835949044700,2.666044677734375,-0.7715607110798358,-0.12071078448295593,-0.23508535168170927
1772697835959092700,2.6760927734375,-0.3379366543471813,-0.40002515399158,-0.36358138321340083
1772697835969141500,2.6861416015625,0.10063011035150848,-0.4830456747666001,-0.3938409123986959
1772697835979190500,2.6961904296875,0.353424146336317,-0.2684431391432881,-0.4125526271313429
1772697835989238500,2.706238525390625,0.39094109930396076,0.02067015532404184,-0.38599019889831543
1772697835999287600,2.71628759765625,0.25024784950017925,0.28018355355858804,-0.22207623250484465
1772697836009336600,2.726336669921875,0.14393387569282204,0.44865357582122084,-0.1338128426402807
1772697836019384600,2.736384521484375,0.13802085225675254,0.41730332878977056,-0.10198562574684619
1772697836029433600,2.74643359375,0.08917228487040847,0.3475032318547368,-0.15185644885301589
1772697836039482600,2.756482666015625,-0.012013130409456788,0.24101474173068999,-0.1821200696915388
1772697836049530600,2.766530517578125,-0.09018007367346435,0.10404548088610172,-0.11495149030387401
1772697836059579600,2.77657958984375,-0.05534490713570266,-0.11567775875180959,-0.019246552261710168
1772697836069628400,2.78662841796875,0.02352583701610565,-0.26704846991449593,-0.06835048264861106
1772697836079676700,2.7966767578125,-0.0015887670287862419,-0.2890244471400976,-0.17332944499254227
1772697836089725400,2.806725341796875,0.041726679617166515,-0.31824849579781295,-0.15044482848942278
1772697836099774700,2.816774658203125,0.05908694320823997,-0.31326135503500696,-0.15338263550698755
1772697836109822500,2.826822509765625,-0.14650931567139922,-0.1755576424360275,-0.3238525994151831
1772697836119871700,2.836871826171875,-0.5670294876158237,0.03691168055087328,-0.49438686073124405
1772697836129920500,2.84692041015625,-0.7314648475348949,0.14355331541001795,-0.42368952269554133
1772697836139968500,2.856968505859375,-0.7945452808260918,0.3417854387298226,-0.470360088455677
1772697836150017500,2.867017578125,-0.8075076382517814,0.37129794894009827,-0.3532569730758667
1772697836160065500,2.8770654296875,-0.7233318099617958,0.3315983912363648,-0.3212964851915836
1772697836170114600,2.887114501953125,-0.6709528034269809,0.11775222693830728,-0.17843173656761646
1772697836180163600,2.89716357421875,-0.6929062765598297,-0.0180795543089509,-0.26993805387616154
1772697836190211600,2.907211669921875,-0.7860872490823269,-0.13847206662297248,-0.2226484794348478
1772697836200260600,2.917260498046875,-0.9262474149227142,-0.2596282567858696,-0.14112696504592895
1772697836210309600,2.9273095703125,-1.1040461142838,-0.36018034259825943,-0.04171323561370373
1772697836220357400,2.937357421875,-1.2053484339416027,-0.48203737450689077,0.04619067328870296
1772697836230406400,2.947406494140625,-1.1297381894230842,-0.6188289406970143,0.17479016519486903
1772697836240455700,2.95745556640625,-1.0027624993264674,-0.7871566318795085,0.25570026968717574
1772697836250503400,2.96750341796875,-0.9931424380660057,-0.9382496951445937,0.27039164286255835
1772697836260552400,2.977552490234375,-1.0511819545805454,-0.9349117828935384,0.24450375289022921
1772697836270601500,2.9876015625,-1.0769909340977668,-0.8163312884375452,0.2721978155016899
1772697836280649500,2.9976494140625,-1.000019922620058,-0.6428530826240778,0.43460780707299707
1772697836290698500,3.007698486328125,-0.8883820869088173,-0.5427262364864349,0.4761567920356989
1772697836300747500,3.01774755859375,-0.7994073339045047,-0.5552908267661929,0.3516185582190752
1772697836310795500,3.02779541015625,-0.7011223162412643,-0.5315504702165722,0.24469079989492892
1772697836320844300,3.03784423828125,-0.6855635125815868,-0.39351679501086473,0.2174468191385269
1772697836330893600,3.0478935546875,-0.6904723274111747,-0.2188569781973958,0.17704466612339018
1772697836340941300,3.05794140625,-0.6662158380329608,-0.08796732952743769,0.13775953443944453
1772697836350990600,3.067990478515625,-0.6697545335531234,-0.04646189144551754,0.06056465107798576
1772697836361039600,3.07803955078125,-0.7758242137432098,-0.041215222963690755,0.05299801521599293
1772697836371087600,3.088087646484375,-0.8427659986376762,-0.06396481491029263,0.040427871978282924
1772697836381136400,3.098136474609375,-0.9359212521970272,-0.10971738904267549,0.09630933367609977
1772697836391184600,3.1081845703125,-0.9635048401713371,-0.19815087477713822,0.11933423543274402
1772697836401233400,3.1182333984375,-0.9584913959234952,-0.3058595543459058,0.13743746287822722
1772697836411282400,3.128282470703125,-0.9455641098111868,-0.3804334415540099,0.15376199021339415
1772697836421330400,3.138330322265625,-0.8786801925837993,-0.4203825901046395,0.12185761643052101
1772697836431379500,3.14837939453125,-0.8099930253267288,-0.43924803409427404,0.10318623370826244
1772697836441428500,3.158428466796875,-0.7713806783378124,-0.3982598978847265,0.21151801361143588
1772697836451476500,3.1684765625,-0.7828028205841779,-0.38821079755723475,0.2580418643772602
1772697836461525500,3.178525390625,-0.8044985195636749,-0.49783670892417425,0.237405903583765
1772697836471574500,3.188574462890625,-0.8997802637577056,-0.5918839428871869,0.31390111424326894
1772697836481622500,3.19862255859375,-1.0796621991336346,-0.7161895369917154,0.31403087810277935
1772697836491671600,3.208671630859375,-1.2413783632218838,-0.8095029037222266,0.2598632345855236
1772697836501720300,3.21872021484375,-1.3789806612730025,-0.8809782403931021,0.3745762399584055
1772697836511768600,3.2287685546875,-1.2227209359597413,-0.9789674899801611,0.7414268541008233
1772697836521817300,3.2388173828125,-0.6768547209471464,-0.9335364028871059,1.6470646117150782
1772697836531866600,3.24886669921875,-0.14674831205904482,-0.542146098510921,2.969246696445346
1772697836541914400,3.258914306640625,0.1057984985658899,-0.2533548756048083,3.957167015948891
1772697836551963600,3.268963623046875,0.33621757546961306,-0.25809359456449743,4.1317531830042595
1772697836562012400,3.279012451171875,0.8533434336882084,-0.5495534521579742,3.9876042397886513
1772697836572060700,3.289060791015625,1.5516484274864195,-0.9341977894052863,3.287015007510781
1772697836582109400,3.299109375,2.1118957076162097,-1.303571784545481,2.136295404857397
1772697836592157700,3.30915771484375,2.329681549450755,-1.6465283128812909,0.8801701388806105
1772697836602206500,3.31920654296875,1.9200135378450154,-1.8212445360571146,-0.31805414226949213
1772697836612255500,3.32925537109375,0.8273211767464875,-1.652557363912463,-1.2569500263631344
1772697836622303500,3.339303466796875,-0.17594750027013942,-1.2123317169576882,-1.781159193906188
1772697836632352500,3.3493525390625,-0.4622206211417913,-0.6249126445248723,-1.9284961195081471
1772697836642401500,3.359401611328125,-0.005928221005201339,-0.0641030543372035,-1.7035744344443082
1772697836652449500,3.369449462890625,0.7756196310818195,0.4596659682229161,-0.9758972887545824
1772697836662498600,3.37949853515625,1.2669815910339355,0.9327300549402833,-0.3565209433078766
1772697836672547600,3.389547607421875,1.3000351348519323,1.1394479747936128,-0.17216098573505878
1772697836682595600,3.399595703125,1.0361796157598495,0.9475017998754978,-0.11018939046859741
1772697836692644600,3.40964453125,0.8564169228494167,0.49905339123755693,-0.35410043816268444
1772697836702693400,3.419693359375,0.864937498435378,0.07358721425831317,-0.7668015338540076
1772697836712741600,3.42974169921875,1.1984475685119629,-0.20167554177194832,-0.9071025694698095
1772697836722790400,3.439790283203125,1.5366327907927333,-0.36280513814389703,-0.95210432523489
1772697836732839700,3.449839599609375,1.7605027748465536,-0.32324089725762606,-0.7961147220999002
1772697836742887400,3.459887451171875,1.8389730849713086,-0.08454641516804695,-0.5259592260807753
1772697836752936700,3.469936767578125,1.844016924357414,0.23359335955828428,-0.1933311995357275
1772697836762985500,3.4799853515625,1.7498469407975672,0.42432080633640284,0.2324310377806425
1772697836773033700,3.49003369140625,1.4808821158677339,0.4350365538790822,0.5387164163231849
1772697836783082500,3.50008251953125,1.2078501876294612,0.28703444236665965,0.8303577679634093
1772697836793131500,3.510131591796875,0.926917277008295,0.18996581475585697,1.1250310346454382
1772697836803179500,3.520179443359375,0.6465291407883167,0.023244097465276718,1.3203566228687762
1772697836813228500,3.530228515625,0.5093103256294503,-0.15502309619039295,1.4331290155678986
1772697836823277600,3.540277587890625,0.37791093733906744,-0.21126988406926392,1.4467927992612122
1772697836833325600,3.55032568359375,0.2690601019978523,-0.2703355287611484,1.342606448599696
1772697836843374600,3.56037451171875,0.35167766799516975,-0.2805129316434264,1.0267162063658237
1772697836853422600,3.570422607421875,0.4872399115860462,-0.15602233636081217,0.4833960956394672
1772697836863471600,3.5804716796875,0.6334387730687856,0.018297580973803997,-0.10003273811340331
1772697836873520600,3.590520751953125,0.7411468681156634,0.11780454164743423,-0.6204916132122278
1772697836883568600,3.600568603515625,0.8293728485792875,0.19575930346548556,-0.9858037657409906
1772697836893617700,3.61061767578125,0.9569991115391254,0.17528496297448873,-1.021773489266634
1772697836903666400,3.62066650390625,1.083384945983812,0.29874007772952316,-1.113788925141096
1772697836913714400,3.63071435546875,1.186995542583987,0.44024405939429995,-0.9899281521946192
1772697836923763500,3.640763427734375,1.106552544146776,0.6619862376391887,-0.8847282405763864
1772697836933812700,3.650812744140625,0.961350877007842,0.6760866591840982,-0.7649895159959793
1772697836943860500,3.660860595703125,0.6554530364781618,0.7005453931361436,-0.7755220159262418
1772697836953909200,3.6709091796875,0.5482412005156279,0.7153948794826864,-0.7545563847869634
1772697836963958300,3.680958251953125,0.3895575359910726,0.7250856678918004,-0.7712070753365755
1772697836974006300,3.69100634765625,0.15294716669917105,0.7022127418264746,-0.7378221076071262
1772697836984055300,3.70105517578125,0.006885083338618278,0.6031359892636537,-0.6126292092740535
1772697836994104300,3.711104248046875,-0.12068681908547878,0.5277548773258924,-0.46187867583632464
1772697837004152300,3.72115234375,-0.1574374638557434,0.495211328856647,-0.37414953897893427
1772697837014201000,3.731201171875,-0.14968787264227867,0.4442103326767683,-0.3857978911966085
1772697837024250400,3.74125048828125,-0.1775504236884415,0.32478198921978474,-0.431172571927309
1772697837034298000,3.751298095703125,-0.27134368289038535,0.13166677052229642,-0.4603600879669189
1772697837044347400,3.761347412109375,-0.3476730354636907,-0.011789806514978409,-0.40137715312242506
1772697837054396400,3.771396484375,-0.39163945683166385,-0.0484632943958044,-0.32173312304317947
1772697837064444400,3.7814443359375,-0.43258404616042967,-0.0801674694314599,-0.14537877727150916
1772697837074493200,3.7914931640625,-0.43675066432058807,-0.18541881897598503,0.07695522938668728
1772697837084541400,3.80154150390625,-0.448194433876872,-0.36465836479514835,0.16601941424012184
1772697837094590200,3.811590087890625,-0.41315629211291666,-0.5264230442002416,0.20564181505441664
1772697837104639200,3.82163916015625,-0.27145357300564643,-0.5918605620115995,0.2241957088768482
1772697837114687200,3.831687255859375,-0.18748174285516142,-0.5273047954708338,0.18319032927155493
1772697837124736300,3.841736328125,-0.11659501972720027,-0.38812428831756113,0.028352818781137466
1772697837134785300,3.851785400390625,-0.04467486189827323,-0.24795769273638724,-0.1971300072968006
1772697837144833300,3.861833251953125,-0.03855141058191657,-0.13238193305432797,-0.3773492118030786
1772697837154882300,3.87188232421875,-0.08599018423557281,-0.02993161240518093,-0.5322831684052944
1772697837164931300,3.881931396484375,-0.2802776615828276,0.08093494667261839,-0.6894272022724152
1772697837174979300,3.891979248046875,-0.4013290761969983,0.20587883868068454,-0.7538380073845387
1772697837185028400,3.9020283203125,-0.4832603404305875,0.33231063115894793,-0.7687287025243044
1772697837195077000,3.9120771484375,-0.667067778687179,0.39247897639572615,-0.6535702914714813
1772697837205125400,3.92212548828125,-0.9700571844242513,0.2573565124616027,-0.4307248281598091
1772697837215174100,3.932174072265625,-1.2952753731042146,-0.033660569800436496,-0.19157763386666773
1772697837225223400,3.942223388671875,-1.6969032861173152,-0.30135727449059485,-0.07044950075447559
1772697837235271200,3.952271240234375,-1.972537359678,-0.5896224276959896,0.1451899767011404
1772697837245320400,3.962320556640625,-2.0529430217795075,-0.774969642740488,0.25947277396321294
1772697837255369200,3.972369140625,-2.0494692081891,-0.8821890774875879,0.25403905847668645
1772697837265417200,3.982417236328125,-1.9131896831743418,-0.9695987731322645,0.19200842649936675
1772697837275466200,3.99246630859375,-1.699376982754469,-0.9147223968237638,0.10651274778246879
1772697837285515300,4.002515380859375,-1.465059108313918,-0.8708920229256153,0.07988894475102425
1772697837295563300,4.012563232421875,-1.216803455544263,-0.7272983755052089,0.06749766521155834
1772697837305612300,4.0226123046875,-1.0437363147497176,-0.5837962057605386,0.025378186884522435
1772697837315661300,4.032661376953125,-0.7818740153014659,-0.46258945445418354,-0.012808043646812439
1772697837325709300,4.042709228515625,-0.6953437328398228,-0.21289514718353747,-0.23576924229264257
1772697837335758300,4.05275830078125,-0.6604594664633273,0.015792027893662453,-0.3384241456031799
1772697837345806300,4.062806396484375,-0.5782127065397799,0.2542743285372853,-0.3470528577387333
1772697837355855000,4.072855224609375,-0.4349322167217731,0.6185062846139073,-0.35178163982629773
1772697837365904400,4.082904296875,-0.33094927967786786,1.129666000969708,0.10138123011291027
1772697837375952100,4.0929521484375,-0.5126895562715829,1.6104209344506262,1.1793453931570053
1772697837386001400,4.10300146484375,-0.7678320459455251,2.106488295614719,2.1029262192189693
1772697837396050200,4.11305029296875,-0.7599735875301062,2.41950970441401,2.3952041151970622
1772697837406098400,4.123098388671875,-0.5563606479547918,2.4282515215352176,1.9848872842937706
1772697837416147200,4.133147216796875,-0.3506356846615672,2.2651924184054133,1.308909346181154
1772697837426196200,4.1431962890625,-0.1162273554585874,2.0360104455485937,0.833827489900589
1772697837436244200,4.153244140625,0.15820800983682273,1.5754285315245389,0.24587737933099268
1772697837446293200,4.163293212890625,0.5037177297867834,1.1829966091409325,-0.4929571201890707
1772697837456342300,4.17334228515625,0.8412679420996457,0.7616197473019362,-0.993477369108796
1772697837466390300,4.183390380859375,0.8756647902853787,0.3141884067520499,-1.2664420773297547
1772697837476439300,4.193439208984375,0.4310253454763442,-0.1602335243150592,-1.2535668136656284
1772697837486488300,4.20348828125,-0.21945742830857634,-0.40848523156195876,-1.4621020120739936
1772697837496536300,4.213536376953125,-0.5955880581021309,-0.4230786973208189,-1.1049065305054186
1772697837506585300,4.22358544921875,-0.3060316960424185,-0.31402883227616546,-0.4842237786352634
1772697837516634000,4.233634033203125,0.26668212082013487,-0.28235768272727724,-0.1593108565121889
1772697837526682400,4.243682373046875,0.7076905887156725,-0.21933131771087644,-0.18053952250182628
1772697837536731100,4.253731201171875,0.931421675755456,-0.2765285381823778,0.05446107350587844
1772697837546780400,4.263780517578125,0.7407698514968156,-0.6647630088761448,0.26691490666270257
1772697837556828200,4.273828125,0.46658466157019135,-1.0077502246111631,0.2491787589639425
1772697837566877400,4.28387744140625,0.47038814550638197,-1.3234043200016021,-0.05977905365824699
1772697837576926200,4.29392626953125,0.9106126964826137,-1.4817770188808441,-0.4005483010828495
1772697837586974500,4.303974365234375,1.6298147862285375,-1.3913593735918401,-0.9045768503844738
1772697837597023200,4.314023193359375,2.285086620920896,-0.8125204979777335,-1.5415397059261797
1772697837607071200,4.3240712890625,2.405290624925494,-0.2688020355835557,-1.6918676300376652
1772697837617120300,4.334120361328125,2.232301956194639,0.06406447589248418,-1.4499965637385845
1772697837627169300,4.344169189453125,2.007576085963845,0.30752894886285065,-1.157271508514881
1772697837637217300,4.35421728515625,1.777661999440193,0.46924452842921016,-0.6789145760864019
1772697837647266300,4.364266357421875,1.5162427675843237,0.5518678665801883,-0.1917231798171997
1772697837657315300,4.3743154296875,1.275596859166026,0.7010168100401759,0.253996972900629
1772697837667363000,4.384363037109375,1.1310738219410181,0.9029983490213751,0.8858411702543496
1772697837677412400,4.394412353515625,0.9260083454698324,1.0408604670524597,1.4241431605577468
1772697837687461400,4.40446142578125,0.7326929280251264,1.0715773846164345,1.758486174327135
1772697837697509400,4.41450927734375,0.5208358917176723,0.9705132576286792,1.6756518237739801
1772697837707558100,4.42455810546875,0.16542963165342806,0.7648027612522244,1.2315654097378252
1772697837717607200,4.434607177734375,-0.25618016215860845,0.3979407489329576,0.7088982109397649
1772697837727655200,4.4446552734375,-0.7550380308240652,0.2391346270725131,0.283695361071825
1772697837737704200,4.4547041015625,-0.9435223748505115,0.024536183102428912,-0.01298223116993904
1772697837747753500,4.46475341796875,-0.676169076770544,-0.12103168700039386,-0.2168985376060009
1772697837757801200,4.47480126953125,-0.10478548559844493,-0.18319091379344463,-0.3930149829685688
1772697837767850200,4.484850341796875,0.26850597524642944,-0.025808394995331763,-0.6497989562392235
1772697837777899300,4.494899169921875,0.3168926972746849,0.20681874987930057,-0.7838257338911294
1772697837787947300,4.504947265625,0.35098084483742714,0.4306482557922601,-0.7911684978693723
1772697837797996300,4.514996337890625,0.3847884218931198,0.5958110532030463,-0.7663064438134431
1772697837808045300,4.52504541015625,0.48207390712499615,0.6365227105587721,-0.5493488694965839
1772697837818093300,4.53509326171875,0.5645534528911114,0.5033320914700627,-0.3337140682160854
1772697837828142000,4.54514208984375,0.6088555359542369,0.2559863931521773,-0.23569150088131427
1772697837838191400,4.55519140625,0.5351344661831855,0.07329904496669769,-0.15479834752380847
1772697837848239000,4.565239013671875,0.3400888639450073,-0.2509218032389879,-0.17588789730370044
1772697837858288400,4.575288330078125,0.1641641417622566,-0.5017509597584605,-0.29295301876068114
1772697837868336000,4.585336181640625,0.050508554754126814,-0.6561418955251574,-0.31970366304218767
1772697837878385400,4.595385498046875,-0.02080196501016617,-0.7863421006262302,-0.2873509609699249
1772697837888434200,4.60543408203125,-0.07875261593116446,-0.8763245693683623,-0.25931612209677696
1772697837898482400,4.615482421875,-0.126660048276186,-0.8714683615088462,-0.2501788759171963
1772697837908531200,4.62553125,-0.10306057976828888,-0.824507872891426,-0.08561842831373215
1772697837918580200,4.635580322265625,-0.03980243355631828,-0.6485930875808,0.054390930879116055
1772697837928628200,4.645628173828125,-0.10691022266745567,-0.44207098256051536,0.0719300947010517
1772697837938677200,4.65567724609375,-0.277630361944437,-0.2201505251392722,0.13467501242756844
1772697837948726300,4.665726318359375,-0.546573559564352,-0.0036021161451935766,0.09734043028950691
1772697837958775000,4.675775146484375,-0.7107014609694481,0.1268687225908041,0.05524199475049972
1772697837968824000,4.685823974609375,-0.7408078454196453,0.2610074361845851,-0.011979776129126547
1772697837978873300,4.695873291015625,-0.7247814242482185,0.354215004453063,-0.13074585628509522
1772697837988921000,4.705921142578125,-0.7608171987473964,0.33178456145823,-0.2592576699078083
1772697837998970000,4.71597021484375,-0.8441010466337203,0.2614431972533464,-0.3267138340651989
1772697838009019100,4.72601904296875,-0.8939666090428828,0.0996364322721958,-0.3094534871846437
1772697838019067100,4.736067138671875,-0.985230349767208,-0.09230682003647088,-0.16107260548770427
1772697838029116200,4.7461162109375,-1.1896586973786354,-0.2152101461276412,-0.11406360155344009
1772697838039165200,4.756165283203125,-1.3453671454846858,-0.29948446635603904,-0.18044950613081454
1772697838049213200,4.766213134765625,-1.4334569323480129,-0.32978315850794315,-0.19228256726562976
1772697838059262000,4.776261962890625,-1.5486369707107543,-0.3835013046920299,-0.18164777600467205
1772697838069311200,4.786311279296875,-1.693199755424261,-0.49517801110893483,-0.2303086387991905
1772697838079359000,4.79635888671875,-1.786865881115198,-0.5602899502277374,-0.25539047308564183
1772697838089408300,4.806408203125,-1.8520494241654872,-0.5623378226682544,-0.1819628333032131
1772697838099457300,4.816457275390625,-1.8447078292310237,-0.5635945447310805,-0.09038111267089843
1772697838109505300,4.82650537109375,-1.7509014182865619,-0.501242717975378,0.002641454419493675
1772697838119554000,4.836553955078125,-1.6208067193865776,-0.45598727971017355,0.1157189675450325
1772697838129602300,4.846602294921875,-1.4299287582218647,-0.4138794918209314,0.16600480119287966
1772697838139651000,4.856651123046875,-1.2846002498328686,-0.3285290667936206,0.1745259613007307
1772697838149700000,4.8667001953125,-1.2378022583007813,-0.20165829837620258,0.18045652039349078
1772697838159748000,4.876748046875,-1.1764257063180208,-0.020022505070269106,0.24026596919000148
1772697838169797000,4.886797119140625,-0.9936305138438939,0.20096680898070335,0.30248014104068277
1772697838179846100,4.89684619140625,-0.6904302418351173,0.3053650488272309,0.31419805136322976
1772697838189894100,4.90689404296875,-0.3982862013697624,0.24237755451649426,0.40640228780806065
1772697838199943200,4.916943115234375,-0.31841420775353907,0.05130290173590183,0.4787818798422813
1772697838209992200,4.9269921875,-0.5159779302924871,-0.19600918657332658,0.4857067106693983
1772697838220040200,4.937040283203125,-0.9310188671082258,-0.48746173764318224,0.586443797659874
1772697838230089200,4.947089111328125,-1.4747002123624084,-0.8495987672671675,0.5799135191082954
1772697838240138000,4.957137939453125,-2.023999397498369,-1.206317571234703,0.6302268252849579
1772697838250186200,4.967186279296875,-2.490795655992627,-1.448490543089807,0.7669342203229665
1772697838260235000,4.977235107421875,-2.5342595346659422,-1.4854559996545313,0.9125409611314534
1772697838270284300,4.9872841796875,-1.7428636577814816,-1.2366682858347893,1.654225004863739
1772697838280332000,4.99733203125,-0.5463257222831249,-0.6489949463799596,2.865453144493699
1772697838290381300,5.00738134765625,0.18335867157578467,-0.006867547681927681,3.906061682611704
1772697838300430000,5.01743017578125,0.7628099069345742,0.2721647900149226,4.392900027659535
1772697838310478300,5.027478271484375,1.381086255250126,0.22552432713210582,4.212690760025382
1772697838320527000,5.037527099609375,1.9651070635467767,0.031178689856827257,3.5397768856585023
1772697838330576100,5.047576171875,2.4413532874315975,-0.40289457194805145,2.496668931940198
1772697838340624100,5.0576240234375,2.648014508661628,-0.8058701001778245,1.3077899867624043
1772697838350673200,5.067673095703125,2.3302362607240674,-1.0302344436198472,0.09181436034440994
1772697838360722200,5.07772216796875,1.4983201574027538,-1.0533777110591531,-0.908067615109682
1772697838370770200,5.087770263671875,0.7735697128146887,-0.7265148239120841,-1.2757733847767114
1772697838380819200,5.097819091796875,0.7599363242596388,-0.18221710032522678,-1.0799608898192643
1772697838390868200,5.1078681640625,1.2151228089809416,0.3861705239012837,-0.6947709013879299
1772697838400916200,5.117916259765625,1.846294221639633,0.8728934258759021,-0.36078327692747114
1772697838410965200,5.12796533203125,2.3351877456516026,1.341263509558141,-0.34220366414189335
1772697838421013000,5.138012939453125,2.385024081966281,1.749599395777285,-0.6491746868610382
1772697838431062300,5.148062255859375,2.281152788603306,1.8187395674988627,-1.0970885502308607
1772697838441111000,5.158111083984375,2.3064760304301974,1.5026497110396624,-1.5423416699588297
1772697838451159300,5.1681591796875,2.5457640944987534,0.9938736749500036,-1.8473942918360233
1772697838461208000,5.1782080078125,2.7156343389481306,0.6832797855585813,-2.0242390514731405
1772697838471257000,5.188257080078125,2.7817922799885273,0.612630378317833,-1.7942390402317046
1772697838481305000,5.19830517578125,2.729126857727766,0.8022694453373551,-1.2495850505530834
1772697838491354000,5.20835400390625,2.3975346039712426,1.0275804219797253,-0.5247732311666011
1772697838501403100,5.218403076171875,1.8378128090202808,1.1234560404136775,0.12192483644783496
1772697838511451100,5.228451171875,1.312163964062929,1.0426330296829343,0.6445353366225958
1772697838521500200,5.238500244140625,0.9623159957129508,0.8367232113420963,0.9666057287961244
1772697838531549200,5.248549072265625,0.7081734037965536,0.5489657153978944,1.094351818743348
1772697838541597200,5.25859716796875,0.4421621679753065,0.24851941827237606,0.9397323349177836
1772697838551646200,5.268646240234375,0.24444646974503992,-0.07417991945445537,0.6152309162050486
1772697838561695000,5.278695068359375,0.06982464685440062,-0.2884106991559267,0.16827566873431204
1772697838571743200,5.2887431640625,0.0801168352227658,-0.5706748583808541,-0.20175942066311836
1772697838581792000,5.2987919921875,0.2439602205980569,-0.6116200322315096,-0.6700912181615829
1772697838591841300,5.30884130859375,0.5112135654348879,-0.4777054827824235,-1.094848077827692
1772697838601889000,5.318888916015625,0.7534511269588023,-0.3244946967110038,-1.2314870838046073
1772697838611938300,5.328938232421875,0.9150883075267076,-0.0627718057334423,-1.2123796477526425
1772697838621986000,5.338986083984375,0.9886655118476599,0.29556144769340753,-1.0455904181838036
1772697838632035300,5.349035400390625,0.9198346983361989,0.714263829626143,-0.820251969012618
1772697838642084000,5.359083984375,0.8205294707797467,1.0285197486564517,-0.5729232218295336
1772697838652132000,5.369132080078125,0.6411024395644664,1.2923805284455419,-0.5985451543420552
1772697838662181000,5.37918115234375,0.3782797706514597,1.3964301009848714,-0.5856202063173055
1772697838672230100,5.389230224609375,0.0652601884830743,1.3721476003825663,-0.6057838734239339
1772697838682278100,5.399278076171875,-0.2191155560683459,1.104616899909079,-0.5956394960284233
1772697838692327200,5.4093271484375,-0.3463636333655566,0.6488537843436002,-0.6288473536252975
1772697838702376200,5.419376220703125,-0.3503250112771988,0.18269757731854916,-0.7248948214948177
1772697838712424000,5.429423828125,-0.2593487822573632,-0.19167963293641804,-0.7646452326029539
1772697838722473200,5.43947314453125,-0.036149902398139235,-0.4189420359075069,-0.5826198554575442
1772697838732522200,5.449522216796875,0.2160405325371772,-0.49295828923285007,-0.20981120969355105
1772697838742570200,5.4595703125,0.3092163174279034,-0.4371808724313974,0.05033610253036022
1772697838752619300,5.469619384765625,0.3964297598481178,-0.3410772904604673,0.11140753408670424
1772697838762668000,5.47966796875,0.5285014579094947,-0.1705801462844014,0.16123334900736808
1772697838772716000,5.489716064453125,0.6608540187388658,0.14262363334447145,0.14748013346493244
1772697838782765000,5.49976513671875,0.6946937444984912,0.4696723984524607,-0.027128245422244072
1772697838792814300,5.509814453125,0.6652952891219407,0.6921987128123641,-0.1566962900996208
1772697838802862000,5.519862060546875,0.5386819295316935,0.8440902329787612,-0.3212660900533199
1772697838812911000,5.5299111328125,0.25004326683878897,0.872061943487823,-0.5269137503266335
1772697838822960000,5.539960205078125,-0.02680164381638169,0.8481801326408982,-0.522833787536621
1772697838833008000,5.550008056640625,-0.06717727415077387,0.5331444614097476,-0.46717327511310575
1772697838843057200,5.56005712890625,-0.23183380253985522,0.2817787137955427,-0.3933662806242704
1772697838853106200,5.570106201171875,-0.4731283110599965,0.2504173608481884,-0.11714870808720589
1772697838863154200,5.580154296875,-0.680395170032978,0.2144818318530917,0.09966098219156265
1772697838873203000,5.590202880859375,-0.6664652827493847,0.05437777913659811,0.25890578773021694
1772697838883252200,5.600252197265625,-0.48640389915332194,-0.14881196659058332,0.278148832860589
1772697838893300000,5.610300048828125,-0.34469073171727355,-0.23114538188427686,0.10097732548713684
1772697838903349200,5.620349365234375,-0.2457990533977747,-0.18852087664455175,-0.06128828917741775
1772697838913397000,5.63039697265625,-0.1430383516252041,-0.16682517766505478,-0.20268179620504378
1772697838923446300,5.6404462890625,-0.07734978166222573,-0.15218085850179194,-0.32316403262913224
1772697838933495000,5.6504951171875,-0.09365560429692268,-0.05949994445592165,-0.46761342009603973
1772697838943543300,5.660543212890625,-0.3015047201372683,0.15331366192400456,-0.4326613491803407
1772697838953591800,5.670591796875,-0.44333530340790744,0.2947600681826472,0.0015437223106622695
1772697838963640800,5.680640869140625,-0.12603336774520577,0.013796470162272452,0.49185120477378363
1772697838973689900,5.69068994140625,0.3189583976328373,-0.20140636944174764,0.4399088360905647
1772697838983737900,5.70073779296875,0.5277474246717989,-0.03695610421448946,0.18773147983253002
1772697838993787000,5.710786865234375,0.4484715703178197,0.2003366943836212,-0.12340952204763889
1772697839003836000,5.7208359375,0.3145329824060201,0.3276066912516951,-0.2685071442902088
1772697839013884000,5.7308837890625,0.2337975038282573,0.5118655265375972,-0.2776683558672666
1772697839023933000,5.740932861328125,0.10046769546456634,0.7570125457674265,-0.20703297715187072
1772697839033981700,5.750981689453125,0.005227525389939546,0.9545467499509454,-0.11957622749507427
1772697839044030000,5.761030029296875,0.05167582670152187,1.0642200075909494,0.02981178541779518
1772697839054078700,5.77107861328125,0.07538418067768216,1.0945470490545033,0.1688350561827421
1772697839064128000,5.7811279296875,0.07823547845557331,0.9936869202062487,0.32664252239465713
1772697839074175700,5.79117578125,0.1684966910738498,0.7281538232907653,0.37479543566703794
1772697839084225000,5.80122509765625,0.5045646289397031,0.4447843331724405,0.24338731608092784
1772697839094273800,5.811273681640625,0.8582828628517687,0.2955196543782949,0.006709142249822616
1772697839104322000,5.821322021484375,1.1012088450312614,0.14658669175654648,-0.18960721057653426
1772697839114370800,5.831370849609375,1.0272055242527276,0.05810585974901914,-0.23650807796120643
1772697839124419000,5.841419189453125,0.7644142003260552,-0.006490531063079834,-0.2860316950649023
1772697839134467800,5.8514677734375,0.5418314796037972,-0.024741350285708903,-0.35380817721784114
1772697839144516900,5.861516845703125,0.40788828858211634,0.10315642309188842,-0.4881950203537941
1772697839154564900,5.87156494140625,0.2859656440913677,0.3022884178608656,-0.6137520758241415
1772697839164614000,5.88161376953125,0.20712343191429972,0.43345249955803156,-0.5544950002133846
1772697839174663000,5.891662841796875,0.20078312297686934,0.47153585423678157,-0.48185237332880493
1772697839184711000,5.9017109375,0.2022141786932945,0.40632951483279467,-0.3948258317828178
1772697839194760000,5.911760009765625,0.1885205843836069,0.3371902198940515,-0.3333107481122017
1772697839204809000,5.92180908203125,0.11157280765101313,0.3501911557644605,-0.26322832710444927
1772697839214857000,5.93185693359375,0.016155454378575084,0.39991497161537404,-0.17986790685057638
1772697839224906000,5.941906005859375,-0.016301877111941573,0.4683335510641336,-0.09305003961920738
1772697839234954800,5.951954833984375,0.06958192413970828,0.5099754750072956,0.08945581451952457
1772697839245003000,5.9620029296875,0.21825813552141188,0.35260669247359033,0.29072189870774745
1772697839255051800,5.9720517578125,0.3116822691500187,0.1136579433619976,0.3395972810357809
1772697839265101000,5.98210107421875,0.35103235582895576,0.0003863689690828323,0.32645079921483994
1772697839275148800,5.992148681640625,0.36922596497163174,-0.0009480945050716399,0.2989578121334314
1772697839285198000,6.002197998046875,0.3797971894770861,0.0411804439112544,0.22316110513210297
1772697839295246800,6.012246826171875,0.34356209301352497,0.11176730730980634,0.0357364992916584
1772697839305295000,6.022295166015625,0.2756038245528936,0.2110509806215763,-0.11062018310129641
1772697839315344000,6.03234375,0.25563429177887736,0.23556670545786618,-0.1260883858680725
1772697839325393000,6.042392822265625,0.2520757225144654,0.14358546411395073,-0.1560118149667978
1772697839335441000,6.05244091796875,0.2732633989065885,0.0891299435660243,-0.21907354355752467
1772697839345490000,6.062489990234375,0.3317980054616928,0.061793608351051806,-0.234421919336915
1772697839355539000,6.0725390625,0.2790729619681835,0.03466477840691805,-0.2591594702303409
1772697839365587000,6.0825869140625,0.2541594699859619,0.029771453407406806,-0.2926443912029266
1772697839375636000,6.092635986328125,0.2875906880099326,0.04994271929860115,-0.30365386099517344
1772697839385685000,6.10268505859375,0.3120774059474468,0.03555237489640713,-0.29638474677503107
1772697839395733000,6.11273291015625,0.32120076973214745,0.10322539667487143,-0.20933599339723585
1772697839405782000,6.122781982421875,0.3290367971200496,0.15738924079984426,-0.0591641366302967
1772697839415830800,6.132830810546875,0.3711591249912977,0.2228583227932453,0.08643442087173461
1772697839425879000,6.142879150390625,0.6478326246023177,0.24908669676631687,0.028619945284724235
1772697839435927800,6.152927734375,1.415755855962634,0.244188987852633,0.07513911987543105
1772697839445977000,6.16297705078125,1.318963707205653,0.17036708805561065,0.4267109163433313
1772697839456024800,6.17302490234375,0.6304817498940974,0.029778467670083044,0.25607728630602355
1772697839466074000,6.18307421875,-0.19834698187112806,-0.06554740792661905,0.007088496956229209
1772697839476121900,6.193121826171875,-0.9646123630218207,-0.24096388832628726,-0.057819736284017556
1772697839486171000,6.2031708984375,-1.5842397606201468,-0.1862178603991866,-0.00720481681227684
1772697839496220000,6.213219970703125,-1.5637304949462414,-0.007457038007676601,-0.08324351587593555
1772697839506268000,6.223267822265625,-1.0302091630481183,-0.10508125367462634,-0.09770400290489197
1772697839516317000,6.23331689453125,-0.4512152430027723,-0.12884119170755148,-0.029543489870429037
