time,seconds_elapsed,z,y,x
1772697833346443500,0.063443603515625,0.013147908262908459,0.02575596794486046,0.04105750098824501
1772697833356492300,0.0734921875,0.012439507059752941,0.03622618317604065,0.030865849927067757
1772697833366540500,0.08354052734375,0.012555161491036415,0.04156789928674698,0.016725532710552216
1772697833376589300,0.09358935546875,0.014018569141626358,0.04706146568059921,0.010551259852945805
1772697833386638300,0.103638427734375,0.01576986350119114,0.04458259791135788,0.008805823512375355
1772697833396686300,0.113686279296875,0.026683764532208443,0.02581050805747509,0.018089070916175842
1772697833406735400,0.1237353515625,0.031337182968854904,0.01467537134885788,0.03328054025769234
1772697833416784400,0.133784423828125,0.03282402828335762,-0.0037896553985774517,0.055537108331918716
1772697833426832400,0.143832275390625,0.03119279071688652,-0.012143874540925026,0.07367829978466034
1772697833436881400,0.15388134765625,0.029223117977380753,-0.02076612412929535,0.07987654209136963
1772697833446930400,0.163930419921875,0.028437891975045204,-0.011757664382457733,0.06629374623298645
1772697833456978400,0.173978515625,0.03201291710138321,0.038188591599464417,0.059175390750169754
1772697833467027500,0.18402734375,0.03628595918416977,0.06829828768968582,0.05344266816973686
1772697833477076200,0.194076171875,0.03357592597603798,0.07909633964300156,0.03159915655851364
1772697833487124500,0.20412451171875,0.03450813144445419,0.07224671542644501,0.0074614593759179115
1772697833497173200,0.21417333984375,0.0358642153441906,0.04493067413568497,-0.0259175356477499
1772697833507222500,0.224222412109375,0.044836290180683136,0.020897794514894485,-0.04984763637185097
1772697833517270300,0.234270263671875,0.055426083505153656,0.010516258887946606,-0.06550515443086624
1772697833527319600,0.244319580078125,0.06915146857500076,0.011608200147747993,-0.0750708356499672
1772697833537368300,0.254368408203125,0.06792881339788437,0.022683488205075264,-0.08629286289215088
1772697833547416600,0.26441650390625,0.06709906458854675,0.03239606320858002,-0.10151641815900803
1772697833557465300,0.27446533203125,0.068277508020401,0.03584485873579979,-0.10001493245363235
1772697833567513300,0.284513427734375,0.0741279199719429,0.03269052505493164,-0.087349072098732
1772697833577562400,0.294562255859375,0.07838737964630127,0.02602490223944187,-0.06953492015600204
1772697833587611400,0.304611328125,0.08064766228199005,-0.0002216249704360962,-0.06821732223033905
1772697833597659400,0.314659423828125,0.08420644700527191,-0.05748651176691055,-0.0900813415646553
1772697833607708400,0.32470849609375,0.09151618927717209,-0.07984776794910431,-0.1000313088297844
1772697833617757400,0.33475732421875,0.09445605427026749,-0.03389252722263336,-0.0883173942565918
1772697833627805400,0.344805419921875,0.09094138443470001,0.0392351895570755,-0.07450131326913834
1772697833637854500,0.3548544921875,0.0850512757897377,0.09614960104227066,-0.07779404520988464
1772697833647903500,0.364903564453125,0.0793423056602478,0.08507777005434036,-0.08115455508232117
1772697833657951200,0.374951171875,0.08497276157140732,0.04693144932389259,-0.07798752188682556
1772697833668000500,0.38500048828125,0.08274611830711365,0.014734577387571335,-0.060537826269865036
1772697833678049300,0.39504931640625,0.08014421164989471,-0.018378103151917458,-0.054451704025268555
1772697833688097500,0.40509765625,0.07194647192955017,-0.030034895986318588,-0.06616561859846115
1772697833698146300,0.415146240234375,0.07642457634210587,-0.006912266835570335,-0.08019382506608963
1772697833708195300,0.4251953125,0.08119551092386246,0.04076046496629715,-0.08042658120393753
1772697833718243300,0.435243408203125,0.10010768473148346,0.07386861741542816,-0.06728814542293549
1772697833728292400,0.445292236328125,0.107387475669384,0.07886075228452682,-0.04392077028751373
1772697833738341400,0.45534130859375,0.11177157610654831,0.07933159917593002,-0.007717760745435953
1772697833748389400,0.465389404296875,0.12720316648483276,0.10815192013978958,0.03919342905282974
1772697833758438400,0.4754384765625,0.1206110343337059,0.12442197650671005,0.06047874316573143
1772697833768486400,0.485486328125,0.09232962131500244,0.10752814263105392,0.0513940304517746
1772697833778535400,0.495535400390625,0.046081699430942535,0.04883100837469101,0.01680569350719452
1772697833788584400,0.50558447265625,0.03371952846646309,-0.003398542059585452,0.008228719234466553
1772697833798632400,0.515632568359375,0.040794748812913895,0.01628408208489418,0.047538042068481445
1772697833808681500,0.525681396484375,0.04735949635505676,0.07499239593744278,0.09645165503025055
1772697833818730200,0.535730224609375,0.05060882121324539,0.1123909056186676,0.12758854031562805
1772697833828778500,0.545778564453125,0.04998571053147316,0.10009530931711197,0.1291869729757309
1772697833838827300,0.5558271484375,0.054293371737003326,0.08656325191259384,0.11964006721973419
1772697833848876500,0.56587646484375,0.07052374631166458,0.10608981549739838,0.1102159395813942
1772697833858924300,0.57592431640625,0.08662986755371094,0.10469308495521545,0.08948242664337158
1772697833868973600,0.5859736328125,0.10490614175796509,0.10985918343067169,0.059334274381399155
1772697833879022300,0.596022216796875,0.11280507594347,0.16303293406963348,0.06010526046156883
1772697833889070600,0.606070556640625,0.10338415950536728,0.2283700853586197,0.0849585086107254
1772697833899119400,0.616119384765625,0.09839685261249542,0.2710410952568054,0.12610886991024017
1772697833909168400,0.62616845703125,0.11491937190294266,0.26706820726394653,0.1814696043729782
1772697833919216400,0.63621630859375,0.12364362180233002,0.2225864976644516,0.23477649688720703
1772697833929265400,0.646265380859375,0.11918650567531586,0.1586872637271881,0.262311190366745
1772697833939314400,0.656314453125,0.1144479438662529,0.120076484978199,0.2528343200683594
1772697833949362700,0.66636279296875,0.11150798201560974,0.14280936121940613,0.20842212438583374
1772697833959411700,0.67641162109375,0.11929479241371155,0.2141655683517456,0.16405972838401794
1772697833969459700,0.686459716796875,0.12765462696552277,0.2924981713294983,0.14568910002708435
1772697833979508700,0.6965087890625,0.11750904470682144,0.3466876149177551,0.15293237566947937
1772697833989557800,0.706557861328125,0.10814735293388367,0.36944085359573364,0.17000482976436615
1772697833999605800,0.716605712890625,0.09735143184661865,0.3660013973712921,0.1867193728685379
1772697834009654800,0.72665478515625,0.07181850075721741,0.2977157533168793,0.1671585887670517
1772697834019703600,0.73670361328125,0.06750018894672394,0.20450378954410553,0.12847085297107697
1772697834029751800,0.746751708984375,0.07710549980401993,0.15397432446479797,0.09107565879821777
1772697834039800600,0.756800537109375,0.0824776291847229,0.1348176747560501,0.0468277744948864
1772697834049849900,0.766849853515625,0.0965505987405777,0.1200459897518158,-0.025321122258901596
1772697834059897600,0.776897705078125,0.10731057077646255,0.1652664691209793,-0.08437858521938324
1772697834069947000,0.78694677734375,0.1295733004808426,0.23451761901378632,-0.11638551950454712
1772697834079995600,0.79699560546875,0.13758274912834167,0.24575269222259521,-0.14063918590545654
1772697834090044000,0.8070439453125,0.15268483757972717,0.17284256219863892,-0.16971038281917572
1772697834100092700,0.8170927734375,0.1701250821352005,0.09491340816020966,-0.18855784833431244
1772697834110141700,0.8271416015625,0.1742776483297348,0.08419150114059448,-0.18261779844760895
1772697834120189700,0.837189697265625,0.16384151577949524,0.11701549589633942,-0.16773951053619385
1772697834130238700,0.84723876953125,0.14482451975345612,0.1711501181125641,-0.1490572988986969
1772697834140287700,0.857287841796875,0.10731576383113861,0.20031119883060455,-0.15077345073223114
1772697834150335700,0.867335693359375,0.1077609434723854,0.1705562174320221,-0.1630994826555252
1772697834160384800,0.877384765625,0.11554030328989029,0.12567582726478577,-0.1783900260925293
1772697834170433800,0.887433837890625,0.12670794129371643,0.13522712886333466,-0.16829253733158112
1772697834180481800,0.897481689453125,0.12367673963308334,0.2154921293258667,-0.11883309483528137
1772697834190530800,0.90753076171875,0.12959851324558258,0.33884531259536743,-0.02465958334505558
1772697834200578800,0.917578857421875,0.14204159379005432,0.40092891454696655,0.06464659422636032
1772697834210627800,0.9276279296875,0.15993550419807434,0.4013649523258209,0.118422731757164
1772697834220676600,0.937676513671875,0.17841117084026337,0.4052550196647644,0.1593557894229889
1772697834230724600,0.947724609375,0.19658641517162323,0.4352954626083374,0.19306501746177673
1772697834240773600,0.957773681640625,0.21831221878528595,0.47622957825660706,0.22290946543216705
1772697834250822700,0.96782275390625,0.2289603352546692,0.4946507215499878,0.24394138157367706
1772697834260870700,0.97787060546875,0.22364066541194916,0.518392026424408,0.25996536016464233
1772697834270919700,0.987919677734375,0.20508317649364471,0.5470587611198425,0.2599022388458252
1772697834280968700,0.99796875,0.17263548076152802,0.6035771369934082,0.25188344717025757
1772697834291016700,1.0080166015625,0.13765496015548706,0.677775502204895,0.24375268816947937
1772697834301065700,1.018065673828125,0.11431022733449936,0.7244135737419128,0.22984805703163147
1772697834311114800,1.02811474609375,0.09393350034952164,0.7005404233932495,0.20352432131767273
1772697834321162800,1.038162841796875,0.07244951277971268,0.624751627445221,0.1739472597837448
1772697834331211800,1.048211669921875,0.04126061871647835,0.5462542772293091,0.16543512046337128
1772697834341260500,1.058260498046875,0.03098294325172901,0.46797889471054077,0.151765376329422
1772697834351308500,1.06830859375,0.034268204122781754,0.35699382424354553,0.10404884815216064
1772697834361357600,1.078357666015625,0.03158826380968094,0.25030574202537537,0.04227283596992493
1772697834371406800,1.08840673828125,0.01235493179410696,0.14625386893749237,0.008149885572493076
1772697834381454600,1.09845458984375,-0.016542229801416397,0.009445419535040855,0.00031779531855136156
1772697834391503600,1.108503662109375,-0.04947976768016815,-0.12539350986480713,0.00287642958573997
1772697834401551600,1.118551513671875,-0.07501602172851562,-0.18108846247196198,0.03310996666550636
1772697834411600600,1.1286005859375,-0.08889926970005035,-0.1922522336244583,0.08752553164958954
1772697834421649700,1.138649658203125,-0.10144488513469696,-0.20590944588184357,0.12186086922883987
1772697834431697700,1.14869775390625,-0.11830709129571915,-0.254624605178833,0.1547212153673172
1772697834441746700,1.15874658203125,-0.13669408857822418,-0.29760774970054626,0.1889609545469284
1772697834451795500,1.16879541015625,-0.13853366672992706,-0.2970774471759796,0.224786177277565
1772697834461843700,1.17884375,-0.14896659553050995,-0.2737465798854828,0.2440411001443863
1772697834471892500,1.188892578125,-0.13716331124305725,-0.2588987946510315,0.25805428624153137
1772697834481941800,1.198941650390625,-0.13000179827213287,-0.25301799178123474,0.26402562856674194
1772697834491989500,1.208989501953125,-0.12410523742437363,-0.22146154940128326,0.2760653495788574
1772697834502038800,1.219038818359375,-0.11763454973697662,-0.16684891283512115,0.2908826470375061
1772697834512087600,1.229087646484375,-0.10519475489854813,-0.10861518979072571,0.2956594228744507
1772697834522135800,1.2391357421875,-0.08619150519371033,-0.04929700866341591,0.3015013337135315
1772697834532184600,1.2491845703125,-0.06766584515571594,0.023615790531039238,0.31139883399009705
1772697834542233600,1.259233642578125,-0.05358518660068512,0.07464568316936493,0.3260699212551117
1772697834552281600,1.269281494140625,-0.032324958592653275,0.09837871789932251,0.3446567952632904
1772697834562330600,1.27933056640625,-0.014319063164293766,0.1300642043352127,0.3849506974220276
1772697834572379600,1.289379638671875,-0.008592521771788597,0.16790920495986938,0.4456842243671417
1772697834582427600,1.299427734375,-0.001473360345698893,0.18230971693992615,0.5428054332733154
1772697834592476700,1.3094765625,-0.00019727216567844152,0.14280076324939728,0.64643794298172
1772697834602525700,1.319525634765625,0.011337410658597946,0.08902488648891449,0.7485829591751099
1772697834612573700,1.32957373046875,0.020746761932969093,0.06555663049221039,0.8271625638008118
1772697834622622700,1.339622802734375,0.027963129803538322,0.07288964092731476,0.8717223405838013
1772697834632670700,1.349670654296875,0.059039156883955,0.10086861997842789,0.8567802906036377
1772697834642719700,1.3597197265625,0.09034541249275208,0.14561425149440765,0.7847961187362671
1772697834652768500,1.3697685546875,0.10432219505310059,0.16538387537002563,0.6879416108131409
1772697834662816800,1.379816650390625,0.10650385916233063,0.1370859295129776,0.6124420762062073
1772697834672865500,1.389865478515625,0.09110001474618912,0.08526642620563507,0.5847963094711304
1772697834682914800,1.399914794921875,0.06756965816020966,0.049723342061042786,0.5947471857070923
1772697834692962600,1.409962646484375,0.04847978055477142,0.0007673092186450958,0.6146152019500732
1772697834703011800,1.42001171875,0.08153413981199265,-0.018504654988646507,0.5961824059486389
1772697834713060600,1.430060546875,0.14192453026771545,0.04026661068201065,0.5184682607650757
1772697834723108900,1.44010888671875,0.19170592725276947,0.16361038386821747,0.4043949842453003
1772697834733157600,1.45015771484375,0.21169956028461456,0.31409457325935364,0.31826263666152954
1772697834743206700,1.46020654296875,0.21305164694786072,0.4950670301914215,0.2769303619861603
1772697834753254700,1.470254638671875,0.20000164210796356,0.6104802489280701,0.25391170382499695
1772697834763303700,1.4803037109375,0.16596031188964844,0.593074381351471,0.23334519565105438
1772697834773352700,1.490352783203125,0.1024276614189148,0.4962089955806732,0.20695659518241882
1772697834783400700,1.500400634765625,-0.008295388892292976,0.36318355798721313,0.19280189275741577
1772697834793449700,1.51044970703125,-0.1302846074104309,0.21907998621463776,0.2032119184732437
1772697834803498800,1.520498779296875,-0.23244665563106537,0.09876342117786407,0.23802264034748077
1772697834813546800,1.530546630859375,-0.2826233208179474,-0.00516554107889533,0.2708740532398224
1772697834823595800,1.540595703125,-0.2789374887943268,-0.09042078256607056,0.2492009848356247
1772697834833643800,1.550643798828125,-0.23587489128112793,-0.07198423147201538,0.18703867495059967
1772697834843692800,1.56069287109375,-0.21097832918167114,0.0478348508477211,0.11039768904447556
1772697834853741600,1.570741455078125,-0.22067078948020935,0.22226721048355103,0.038913924247026443
1772697834863789800,1.580789794921875,-0.2548505663871765,0.3437097668647766,-0.003981078043580055
1772697834873838600,1.590838623046875,-0.29503512382507324,0.37138259410858154,-0.012744743376970291
1772697834883887900,1.600887939453125,-0.2932385504245758,0.33495134115219116,0.019017446786165237
1772697834893935600,1.610935546875,-0.2610670030117035,0.22629006206989288,0.04018918052315712
1772697834903985000,1.62098486328125,-0.19985905289649963,0.04395461827516556,0.044248905032873154
1772697834914033700,1.63103369140625,-0.1378374993801117,-0.13327205181121826,0.009273207746446133
1772697834924082000,1.64108203125,-0.10824498534202576,-0.22987502813339233,-0.04474075883626938
1772697834934130700,1.651130615234375,-0.0886637270450592,-0.24729713797569275,-0.09623551368713379
1772697834944179700,1.6611796875,-0.09556584060192108,-0.2209842950105667,-0.14646193385124207
1772697834954227700,1.671227783203125,-0.1192331463098526,-0.1532401293516159,-0.18560945987701416
1772697834964276700,1.68127685546875,-0.16175450384616852,-0.10818424075841904,-0.21242323517799377
1772697834974325800,1.69132568359375,-0.18925854563713074,-0.12592443823814392,-0.24610182642936707
1772697834984373800,1.701373779296875,-0.19795216619968414,-0.18975189328193665,-0.2808606028556824
1772697834994422800,1.7114228515625,-0.18861572444438934,-0.2945259213447571,-0.3342077136039734
1772697835004471800,1.721471923828125,-0.17537474632263184,-0.4457005262374878,-0.40064266324043274
1772697835014519800,1.731519775390625,-0.18259936571121216,-0.5810208320617676,-0.4625060558319092
1772697835024568800,1.74156884765625,-0.22164185345172882,-0.6533916592597961,-0.5038862824440002
1772697835034616800,1.751616943359375,-0.2622498571872711,-0.7029168605804443,-0.5162017345428467
1772697835044665600,1.76166552734375,-0.30578961968421936,-0.7477381229400635,-0.522827684879303
1772697835054714600,1.771714599609375,-0.3486589193344116,-0.79139244556427,-0.5229119062423706
1772697835064762600,1.7817626953125,-0.3989676535129547,-0.7994199991226196,-0.5171091556549072
1772697835074811600,1.791811767578125,-0.43980690836906433,-0.7887212038040161,-0.5103155970573425
1772697835084861000,1.80186083984375,-0.47371214628219604,-0.788568913936615,-0.5105267763137817
1772697835094908700,1.81190869140625,-0.4929574131965637,-0.8114721179008484,-0.5232125520706177
1772697835104957700,1.821957763671875,-0.484010249376297,-0.8434865474700928,-0.5391259789466858
1772697835115006700,1.8320068359375,-0.43430542945861816,-0.8897321224212646,-0.5738561153411865
1772697835125054700,1.8420546875,-0.363895982503891,-0.9144129753112793,-0.6081874966621399
1772697835135103700,1.852103759765625,-0.2874367833137512,-0.9234239459037781,-0.6243278384208679
1772697835145152800,1.86215283203125,-0.2491903156042099,-0.9107787013053894,-0.6087960004806519
1772697835155200800,1.87220068359375,-0.24128445982933044,-0.8860007524490356,-0.5896815657615662
1772697835165249500,1.88224951171875,-0.24025914072990417,-0.8475159406661987,-0.5686300992965698
1772697835175298800,1.892298828125,-0.24064947664737701,-0.796485424041748,-0.5567771792411804
1772697835185346600,1.9023466796875,-0.2381269335746765,-0.7469207644462585,-0.5688130259513855
1772697835195395600,1.9123955078125,-0.2568019926548004,-0.6403016448020935,-0.5778127908706665
1772697835205444600,1.922444580078125,-0.28950268030166626,-0.5113287568092346,-0.5671308636665344
1772697835215492600,1.93249267578125,-0.3362824320793152,-0.46376147866249084,-0.5548825860023499
1772697835225541600,1.942541748046875,-0.3917424976825714,-0.4379996359348297,-0.5292968153953552
1772697835235589600,1.952589599609375,-0.41097456216812134,-0.4382372200489044,-0.499878466129303
1772697835245638700,1.962638671875,-0.39310264587402344,-0.4303646385669708,-0.48906388878822327
1772697835255687700,1.972687744140625,-0.33922430872917175,-0.4014197885990143,-0.5025269389152527
1772697835265735700,1.982735595703125,-0.2846231162548065,-0.3886866867542267,-0.5372247099876404
1772697835275784700,1.99278466796875,-0.23465800285339355,-0.3980761468410492,-0.5487558841705322
1772697835285833500,2.00283349609375,-0.15840211510658264,-0.39641353487968445,-0.542125940322876
1772697835295881700,2.0128818359375,-0.08293937891721725,-0.34291204810142517,-0.5187715888023376
1772697835305930500,2.022930419921875,-0.008308819495141506,-0.250007688999176,-0.48763176798820496
1772697835315979800,2.032979736328125,0.05868073180317879,-0.16952380537986755,-0.46861931681632996
1772697835326027500,2.043027587890625,0.1272965520620346,-0.13329629600048065,-0.47090616822242737
1772697835336076800,2.053076904296875,0.19423756003379822,-0.1359081268310547,-0.492527574300766
1772697835346125600,2.06312548828125,0.24116353690624237,-0.13985173404216766,-0.5265931487083435
1772697835356173800,2.073173828125,0.2725430727005005,-0.15005017817020416,-0.5587278008460999
1772697835366222600,2.08322265625,0.29423585534095764,-0.17708739638328552,-0.6037901043891907
1772697835376271600,2.093271728515625,0.3095643222332001,-0.23589235544204712,-0.6647054553031921
1772697835386319600,2.103319580078125,0.325519859790802,-0.340322345495224,-0.7401102185249329
1772697835396368600,2.11336865234375,0.34853771328926086,-0.45608070492744446,-0.8086654543876648
1772697835406417700,2.123417724609375,0.36557766795158386,-0.5634281635284424,-0.8510001301765442
1772697835416465700,2.133465576171875,0.387983113527298,-0.6514104604721069,-0.8474255204200745
1772697835426514700,2.1435146484375,0.4190555512905121,-0.7072015404701233,-0.7813221216201782
1772697835436563700,2.153563720703125,0.4382227063179016,-0.7194335460662842,-0.6717523336410522
1772697835446611700,2.16361181640625,0.42880868911743164,-0.6940434575080872,-0.5624799132347107
1772697835456660700,2.17366064453125,0.3996933698654175,-0.679631233215332,-0.4914149343967438
1772697835466708700,2.183708740234375,0.3867882192134857,-0.7345530390739441,-0.4789143204689026
1772697835476757800,2.1937578125,0.40292373299598694,-0.820917010307312,-0.5194098353385925
1772697835486806500,2.203806640625,0.4190651476383209,-0.91131591796875,-0.6076105237007141
1772697835496854800,2.213854736328125,0.4284172058105469,-0.9805246591567993,-0.7060056924819946
1772697835506903600,2.223903564453125,0.42677536606788635,-1.0255517959594727,-0.796173095703125
1772697835516952800,2.233952880859375,0.41783154010772705,-1.059138298034668,-0.8652889132499695
1772697835527000600,2.24400048828125,0.38710612058639526,-1.033212423324585,-0.915824294090271
1772697835537049900,2.2540498046875,0.2722269296646118,-1.0206880569458008,-1.0111337900161743
1772697835547098600,2.2640986328125,0.1252926141023636,-0.8705254197120667,-1.0995161533355713
1772697835557147000,2.27414697265625,0.02328231930732727,-0.48269572854042053,-1.063144326210022
1772697835567195600,2.284195556640625,0.012031796388328075,0.03375352919101715,-0.8677154183387756
1772697835577244700,2.29424462890625,0.07576732337474823,0.5384618043899536,-0.575600266456604
1772697835587292700,2.304292724609375,0.13863763213157654,0.7936943769454956,-0.34757933020591736
1772697835597341700,2.314341796875,0.164073646068573,0.7258492708206177,-0.28440794348716736
1772697835607390700,2.324390625,0.16694773733615875,0.6185699105262756,-0.26275670528411865
1772697835617438700,2.334438720703125,0.13446351885795593,0.5952962040901184,-0.18802163004875183
1772697835627487700,2.34448779296875,0.09812574833631516,0.6278479695320129,-0.07254296541213989
1772697835637536800,2.354536865234375,0.047138020396232605,0.6007988452911377,-0.013373780995607376
1772697835647584800,2.364584716796875,0.014471689239144325,0.5441198348999023,-0.0401204414665699
1772697835657633800,2.3746337890625,0.028106044977903366,0.5529515743255615,-0.11680829524993896
1772697835667682600,2.3846826171875,0.0752226933836937,0.5982652306556702,-0.21603527665138245
1772697835677730800,2.394730712890625,0.13636955618858337,0.6299546360969543,-0.3056495785713196
1772697835687779600,2.404779541015625,0.22335851192474365,0.6732357740402222,-0.3051563501358032
1772697835697827600,2.41482763671875,0.35168471932411194,0.6767199635505676,-0.1839456409215927
1772697835707876600,2.424876708984375,0.4691980183124542,0.6378788352012634,0.01966073550283909
1772697835717926000,2.43492578125,0.5563725829124451,0.5304886698722839,0.22620297968387604
1772697835727973600,2.4449736328125,0.5759550929069519,0.41906920075416565,0.35505419969558716
1772697835738023000,2.45502294921875,0.548444390296936,0.33376964926719666,0.38681837916374207
1772697835748071700,2.46507177734375,0.5047917366027832,0.31221163272857666,0.33972570300102234
1772697835758119700,2.47511962890625,0.4536927342414856,0.3428935110569,0.24834837019443512
1772697835768168700,2.485168701171875,0.3782193064689636,0.41474825143814087,0.14863082766532898
1772697835778217700,2.4952177734375,0.30184242129325867,0.5411360859870911,0.04026761278510094
1772697835788265700,2.505265625,0.23287531733512878,0.5840601325035095,-0.08797717839479446
1772697835798314500,2.515314453125,0.18722273409366608,0.5348122715950012,-0.22024919092655182
1772697835808363800,2.52536376953125,0.17908598482608795,0.5021253824234009,-0.3257058560848236
1772697835818411500,2.53541162109375,0.19454027712345123,0.44496646523475647,-0.40842244029045105
1772697835828460800,2.545460693359375,0.21642692387104034,0.3737782835960388,-0.48076799511909485
1772697835838509800,2.555509765625,0.23524700105190277,0.28858432173728943,-0.5461528897285461
1772697835848557800,2.565557861328125,0.25128376483917236,0.19661471247673035,-0.6144635081291199
1772697835858606600,2.575606689453125,0.25900590419769287,0.15194164216518402,-0.6638785600662231
1772697835868655600,2.585655517578125,0.26258331537246704,0.13673792779445648,-0.6930841207504272
1772697835878703600,2.59570361328125,0.2669351100921631,0.11438842117786407,-0.7166339159011841
1772697835888752600,2.605752685546875,0.27736085653305054,0.07262978702783585,-0.72104412317276
1772697835898800600,2.615800537109375,0.2987928092479706,-0.0012533646076917648,-0.6450866460800171
1772697835908849700,2.625849609375,0.29371121525764465,-0.09548798203468323,-0.4683779180049896
1772697835918898700,2.635898681640625,0.25057974457740784,-0.1773633509874344,-0.24734073877334595
1772697835928946700,2.64594677734375,0.20509402453899384,-0.2523113489151001,-0.04343447834253311
1772697835938995700,2.65599560546875,0.15661965310573578,-0.2334483563899994,0.10233151167631149
1772697835949044700,2.666044677734375,0.11971809715032578,-0.0577862486243248,0.15953435003757477
1772697835959092700,2.6760927734375,0.11219377815723419,0.18302924931049347,0.11770341545343399
1772697835969141500,2.6861416015625,0.10373637825250626,0.3767926096916199,0.020049288868904114
1772697835979190500,2.6961904296875,0.09680165350437164,0.5002051591873169,-0.07535259425640106
1772697835989238500,2.706238525390625,0.10788945853710175,0.5379562377929688,-0.10965624451637268
1772697835999287600,2.71628759765625,0.13901570439338684,0.5322329998016357,-0.07925000041723251
1772697836009336600,2.726336669921875,0.17540007829666138,0.4723854064941406,-0.03475603461265564
1772697836019384600,2.736384521484375,0.1902330070734024,0.4096844494342804,0.014323225244879723
1772697836029433600,2.74643359375,0.16962279379367828,0.3490850329399109,0.06560719013214111
1772697836039482600,2.756482666015625,0.15164002776145935,0.29378965497016907,0.10688565671443939
1772697836049530600,2.766530517578125,0.14300072193145752,0.2666730582714081,0.13904039561748505
1772697836059579600,2.77657958984375,0.14458084106445312,0.2993287146091461,0.14363475143909454
1772697836069628400,2.78662841796875,0.11325700581073761,0.3542955815792084,0.1379888504743576
1772697836079676700,2.7966767578125,0.08205192536115646,0.3883037865161896,0.1201934665441513
1772697836089725400,2.806725341796875,0.05157924443483353,0.3963286876678467,0.08721314370632172
1772697836099774700,2.816774658203125,0.016555478796362877,0.35484862327575684,0.06854278594255447
1772697836109822500,2.826822509765625,-0.048797428607940674,0.24843350052833557,0.1188001036643982
1772697836119871700,2.836871826171875,-0.09236560016870499,0.12557637691497803,0.2295529842376709
1772697836129920500,2.84692041015625,-0.11299311369657516,0.04205751046538353,0.34576746821403503
1772697836139968500,2.856968505859375,-0.11592183262109756,-0.014834573492407799,0.4508363902568817
1772697836150017500,2.867017578125,-0.10895713418722153,-0.049177102744579315,0.5327823162078857
1772697836160065500,2.8770654296875,-0.08780290186405182,-0.08037229627370834,0.5704894065856934
1772697836170114600,2.887114501953125,-0.07807464152574539,-0.11861768364906311,0.5877985954284668
1772697836180163600,2.89716357421875,-0.08406270295381546,-0.15563909709453583,0.5867925882339478
1772697836190211600,2.907211669921875,-0.09123486280441284,-0.20899152755737305,0.5944928526878357
1772697836200260600,2.917260498046875,-0.0909116193652153,-0.24817471206188202,0.6150432825088501
1772697836210309600,2.9273095703125,-0.0930328294634819,-0.23453320562839508,0.6500316262245178
1772697836220357400,2.937357421875,-0.11102933436632156,-0.1742601841688156,0.6633243560791016
1772697836230406400,2.947406494140625,-0.13106669485569,-0.09842932969331741,0.6387519240379333
1772697836240455700,2.95745556640625,-0.15437611937522888,-0.025949956849217415,0.5946565270423889
1772697836250503400,2.96750341796875,-0.1763668954372406,0.04654661566019058,0.5490075349807739
1772697836260552400,2.977552490234375,-0.17506548762321472,0.1043056920170784,0.5340784192085266
1772697836270601500,2.9876015625,-0.15583506226539612,0.12572096288204193,0.5346914529800415
1772697836280649500,2.9976494140625,-0.12761083245277405,0.14829976856708527,0.5375581979751587
1772697836290698500,3.007698486328125,-0.11376798152923584,0.15754279494285583,0.5476502776145935
1772697836300747500,3.01774755859375,-0.10897162556648254,0.13758587837219238,0.5650849342346191
1772697836310795500,3.02779541015625,-0.1066480204463005,0.10246730595827103,0.5939826369285583
1772697836320844300,3.03784423828125,-0.10032439976930618,0.054638806730508804,0.6274256706237793
1772697836330893600,3.0478935546875,-0.08699634671211243,0.0181412510573864,0.6681334376335144
1772697836340941300,3.05794140625,-0.08127935975790024,-0.01454873289912939,0.7038896083831787
1772697836350990600,3.067990478515625,-0.08365170657634735,-0.024762753397226334,0.7446873784065247
1772697836361039600,3.07803955078125,-0.08299103379249573,-0.02915988862514496,0.7903961539268494
1772697836371087600,3.088087646484375,-0.0800250694155693,-0.0627407506108284,0.830607533454895
1772697836381136400,3.098136474609375,-0.07096300274133682,-0.0812821239233017,0.8570235967636108
1772697836391184600,3.1081845703125,-0.06383718550205231,-0.0802895650267601,0.8620862364768982
1772697836401233400,3.1182333984375,-0.05434997007250786,-0.046084508299827576,0.8597370982170105
1772697836411282400,3.128282470703125,-0.04485606774687767,0.007757683750241995,0.8361140489578247
1772697836421330400,3.138330322265625,-0.04611920192837715,0.05991462618112564,0.8047299981117249
1772697836431379500,3.14837939453125,-0.04425951838493347,0.10928484052419662,0.7620068192481995
1772697836441428500,3.158428466796875,-0.031187694519758224,0.16290301084518433,0.7349205017089844
1772697836451476500,3.1684765625,-0.03375258296728134,0.150488942861557,0.7171905040740967
1772697836461525500,3.178525390625,-0.028794405981898308,0.09294600784778595,0.7257897853851318
1772697836471574500,3.188574462890625,-0.03572474792599678,0.004400424659252167,0.7576797604560852
1772697836481622500,3.19862255859375,-0.05263742059469223,-0.0959876999258995,0.8174970149993896
1772697836491671600,3.208671630859375,-0.07228808850049973,-0.18176518380641937,0.898447573184967
1772697836501720300,3.21872021484375,-0.06447131931781769,-0.24682986736297607,0.9748743176460266
1772697836511768600,3.2287685546875,-0.006133704446256161,-0.26409512758255005,0.9868617653846741
1772697836521817300,3.2388173828125,0.09576012939214706,-0.17113567888736725,0.9110875725746155
1772697836531866600,3.24886669921875,0.2058967500925064,-0.0258871428668499,0.7825239896774292
1772697836541914400,3.258914306640625,0.28346967697143555,0.1342417448759079,0.6609467267990112
1772697836551963600,3.268963623046875,0.32253000140190125,0.3284543454647064,0.5464891195297241
1772697836562012400,3.279012451171875,0.32693028450012207,0.5582668781280518,0.39547857642173767
1772697836572060700,3.289060791015625,0.25017157196998596,0.7483369708061218,0.19068653881549835
1772697836582109400,3.299109375,0.11305416375398636,0.8571725487709045,-0.03889818117022514
1772697836592157700,3.30915771484375,-0.02893652394413948,0.8433491587638855,-0.22945533692836761
1772697836602206500,3.31920654296875,-0.16113725304603577,0.6641801595687866,-0.27116069197654724
1772697836612255500,3.32925537109375,-0.24308431148529053,0.3873003423213959,-0.13704685866832733
1772697836622303500,3.339303466796875,-0.28275439143180847,0.1819983571767807,0.09893118590116501
1772697836632352500,3.3493525390625,-0.3007970452308655,0.04545995593070984,0.2947177290916443
1772697836642401500,3.359401611328125,-0.28736990690231323,-0.0033450345508754253,0.3805680572986603
1772697836652449500,3.369449462890625,-0.22950313985347748,-0.021510722115635872,0.3628942668437958
1772697836662498600,3.37949853515625,-0.19611099362373352,-0.10712667554616928,0.3133699893951416
1772697836672547600,3.389547607421875,-0.15295767784118652,-0.25777530670166016,0.3009641766548157
1772697836682595600,3.399595703125,-0.10599027574062347,-0.4607883095741272,0.3328089118003845
1772697836692644600,3.40964453125,-0.08013684302568436,-0.6451501846313477,0.373715341091156
1772697836702693400,3.419693359375,-0.07524638622999191,-0.7364853620529175,0.35891443490982056
1772697836712741600,3.42974169921875,-0.07056587934494019,-0.7016200423240662,0.2561590373516083
1772697836722790400,3.439790283203125,-0.078295037150383,-0.581977903842926,0.08233436197042465
1772697836732839700,3.449839599609375,-0.09161217510700226,-0.4188470244407654,-0.14581385254859924
1772697836742887400,3.459887451171875,-0.10573697835206985,-0.25821998715400696,-0.38275930285453796
1772697836752936700,3.469936767578125,-0.0996929332613945,-0.1337350457906723,-0.6040700674057007
1772697836762985500,3.4799853515625,-0.07001298666000366,-0.03725332021713257,-0.7738913893699646
1772697836773033700,3.49003369140625,-0.02807006426155567,0.0035170125775039196,-0.8719161748886108
1772697836783082500,3.50008251953125,0.00880887545645237,-0.04813409969210625,-0.9018105864524841
1772697836793131500,3.510131591796875,0.028410272672772408,-0.17561323940753937,-0.8763453960418701
1772697836803179500,3.520179443359375,0.019697777926921844,-0.3385251462459564,-0.8222081661224365
1772697836813228500,3.530228515625,-0.0073431613855063915,-0.5049380660057068,-0.7591346502304077
1772697836823277600,3.540277587890625,-0.05015113577246666,-0.6584275364875793,-0.6880781650543213
1772697836833325600,3.55032568359375,-0.09818550944328308,-0.7594878077507019,-0.6323363184928894
1772697836843374600,3.56037451171875,-0.13920272886753082,-0.7793641090393066,-0.6076737642288208
1772697836853422600,3.570422607421875,-0.17974083125591278,-0.7409427165985107,-0.6130810379981995
1772697836863471600,3.5804716796875,-0.2258913516998291,-0.6839395761489868,-0.6424075961112976
1772697836873520600,3.590520751953125,-0.2754943072795868,-0.6483997106552124,-0.6776593327522278
1772697836883568600,3.600568603515625,-0.3100685775279999,-0.621831476688385,-0.7256635427474976
1772697836893617700,3.61061767578125,-0.3288838267326355,-0.6238557696342468,-0.7872602939605713
1772697836903666400,3.62066650390625,-0.3304712772369385,-0.6616519689559937,-0.8649922013282776
1772697836913714400,3.63071435546875,-0.3278595209121704,-0.7256938219070435,-0.926600992679596
1772697836923763500,3.640763427734375,-0.2890757918357849,-0.8253787755966187,-0.9556973576545715
1772697836933812700,3.650812744140625,-0.23988135159015656,-0.9741137027740479,-0.929663896560669
1772697836943860500,3.660860595703125,-0.1768762320280075,-1.1030136346817017,-0.8745481967926025
1772697836953909200,3.6709091796875,-0.13567952811717987,-1.1660772562026978,-0.8196815252304077
1772697836963958300,3.680958251953125,-0.11717148870229721,-1.1687374114990234,-0.7558329701423645
1772697836974006300,3.69100634765625,-0.08990418165922165,-1.1115822792053223,-0.6808351874351501
1772697836984055300,3.70105517578125,-0.057369496673345566,-0.9955265522003174,-0.6136629581451416
1772697836994104300,3.711104248046875,-0.015435096807777882,-0.8305655121803284,-0.5565488338470459
1772697837004152300,3.72115234375,0.019127212464809418,-0.6073917150497437,-0.5197877883911133
1772697837014201000,3.731201171875,0.04231908544898033,-0.3780917227268219,-0.49715253710746765
1772697837024250400,3.74125048828125,0.05792943388223648,-0.19269871711730957,-0.4669629633426666
1772697837034298000,3.751298095703125,0.06035024672746658,-0.06750164926052094,-0.4294273257255554
1772697837044347400,3.761347412109375,0.053856153041124344,0.006065721157938242,-0.38048017024993896
1772697837054396400,3.771396484375,0.04087324067950249,0.032604120671749115,-0.3297131061553955
1772697837064444400,3.7814443359375,0.03175608068704605,0.009559223428368568,-0.29838913679122925
1772697837074493200,3.7914931640625,0.014382949098944664,-0.028494419530034065,-0.27032554149627686
1772697837084541400,3.80154150390625,-0.008343120105564594,-0.08188776671886444,-0.24922144412994385
1772697837094590200,3.811590087890625,-0.03795720636844635,-0.14214684069156647,-0.2529330849647522
1772697837104639200,3.82163916015625,-0.06474877148866653,-0.17925599217414856,-0.2742947041988373
1772697837114687200,3.831687255859375,-0.06718610227108002,-0.20498666167259216,-0.3148975372314453
1772697837124736300,3.841736328125,-0.06845741719007492,-0.23054173588752747,-0.3691288232803345
1772697837134785300,3.851785400390625,-0.05535013601183891,-0.24320052564144135,-0.43014851212501526
1772697837144833300,3.861833251953125,-0.03228147700428963,-0.26235952973365784,-0.4901089072227478
1772697837154882300,3.87188232421875,-0.013609522022306919,-0.25766652822494507,-0.5181980729103088
1772697837164931300,3.881931396484375,-0.0025052973069250584,-0.2958385944366455,-0.5371183753013611
1772697837174979300,3.891979248046875,0.006267954595386982,-0.38645875453948975,-0.5694757699966431
1772697837185028400,3.9020283203125,0.023321887478232384,-0.5154856443405151,-0.6168281435966492
1772697837195077000,3.9120771484375,0.06018056720495224,-0.6498554348945618,-0.6437138319015503
1772697837205125400,3.92212548828125,0.12597858905792236,-0.7751274108886719,-0.6547217965126038
1772697837215174100,3.932174072265625,0.17325955629348755,-0.8587961792945862,-0.6254361271858215
1772697837225223400,3.942223388671875,0.20683014392852783,-0.8872904181480408,-0.56679767370224
1772697837235271200,3.952271240234375,0.23502662777900696,-0.878596305847168,-0.5132191777229309
1772697837245320400,3.962320556640625,0.26402008533477783,-0.8248277902603149,-0.49590006470680237
1772697837255369200,3.972369140625,0.28515198826789856,-0.7372329831123352,-0.5234360694885254
1772697837265417200,3.982417236328125,0.3083452582359314,-0.6040428876876831,-0.5968906283378601
1772697837275466200,3.99246630859375,0.328169047832489,-0.42598897218704224,-0.6720849871635437
1772697837285515300,4.002515380859375,0.342966765165329,-0.23744738101959229,-0.7338703870773315
1772697837295563300,4.012563232421875,0.3560119867324829,-0.05550340935587883,-0.7663564682006836
1772697837305612300,4.0226123046875,0.35674813389778137,0.08965350687503815,-0.7616950273513794
1772697837315661300,4.032661376953125,0.34651121497154236,0.13352109491825104,-0.7233169674873352
1772697837325709300,4.042709228515625,0.34843310713768005,0.08076371997594833,-0.6381593346595764
1772697837335758300,4.05275830078125,0.381649374961853,-0.07440029829740524,-0.545396625995636
1772697837345806300,4.062806396484375,0.38705912232398987,-0.24536868929862976,-0.4972568452358246
1772697837355855000,4.072855224609375,0.29965096712112427,-0.3952457904815674,-0.564811110496521
1772697837365904400,4.082904296875,0.20720671117305756,-0.4522371292114258,-0.7140527963638306
1772697837375952100,4.0929521484375,0.17334780097007751,-0.34391090273857117,-0.8385840654373169
1772697837386001400,4.10300146484375,0.17477722465991974,-0.20350635051727295,-0.9041197896003723
1772697837396050200,4.11305029296875,0.20108605921268463,-0.10337123274803162,-0.9273233413696289
1772697837406098400,4.123098388671875,0.22491629421710968,-0.007079585455358028,-0.8859072327613831
1772697837416147200,4.133147216796875,0.242715522646904,0.10134942084550858,-0.8090012669563293
1772697837426196200,4.1431962890625,0.2705041170120239,0.28809547424316406,-0.6900875568389893
1772697837436244200,4.153244140625,0.2808041572570801,0.5040069818496704,-0.5572687983512878
1772697837446293200,4.163293212890625,0.25741761922836304,0.673158586025238,-0.45467525720596313
1772697837456342300,4.17334228515625,0.217301607131958,0.7099581360816956,-0.4014970064163208
1772697837466390300,4.183390380859375,0.19539938867092133,0.6226263642311096,-0.31667667627334595
1772697837476439300,4.193439208984375,0.17839111387729645,0.4201797842979431,-0.1288364678621292
1772697837486488300,4.20348828125,0.14846575260162354,0.1856805980205536,0.12193544954061508
1772697837496536300,4.213536376953125,0.18007294833660126,0.0418776199221611,0.31987810134887695
1772697837506585300,4.22358544921875,0.2209859937429428,0.06959708034992218,0.388809472322464
1772697837516634000,4.233634033203125,0.24579200148582458,0.19376777112483978,0.3454822599887848
1772697837526682400,4.243682373046875,0.24638576805591583,0.3667208254337311,0.2564787268638611
1772697837536731100,4.253731201171875,0.29390960931777954,0.46897873282432556,0.19206753373146057
1772697837546780400,4.263780517578125,0.34687960147857666,0.5058603882789612,0.21841537952423096
1772697837556828200,4.273828125,0.35255905985832214,0.4464905560016632,0.29474103450775146
1772697837566877400,4.28387744140625,0.2866380214691162,0.3293825089931488,0.33770301938056946
1772697837576926200,4.29392626953125,0.22599968314170837,0.2551727294921875,0.2966189682483673
1772697837586974500,4.303974365234375,0.159349262714386,0.19431237876415253,0.11612842231988907
1772697837597023200,4.314023193359375,0.08586972206830978,0.23557433485984802,-0.14185652136802673
1772697837607071200,4.3240712890625,0.043498773127794266,0.4126271605491638,-0.40875330567359924
1772697837617120300,4.334120361328125,0.029301194474101067,0.5663560032844543,-0.6502538323402405
1772697837627169300,4.344169189453125,0.02354973740875721,0.6310662627220154,-0.8601680397987366
1772697837637217300,4.35421728515625,0.045915763825178146,0.6308494806289673,-1.0198167562484741
1772697837647266300,4.364266357421875,0.09311310201883316,0.6012787818908691,-1.114471673965454
1772697837657315300,4.3743154296875,0.18440599739551544,0.546515166759491,-1.1685247421264648
1772697837667363000,4.384363037109375,0.2973144054412842,0.4725503921508789,-1.1850615739822388
1772697837677412400,4.394412353515625,0.41174617409706116,0.35372599959373474,-1.1620577573776245
1772697837687461400,4.40446142578125,0.49322983622550964,0.2296154946088791,-1.0981824398040771
1772697837697509400,4.41450927734375,0.5083701610565186,0.11804848909378052,-0.9759277701377869
1772697837707558100,4.42455810546875,0.4672496020793915,0.032621268182992935,-0.778835117816925
1772697837717607200,4.434607177734375,0.37349435687065125,-0.009909145534038544,-0.49302437901496887
1772697837727655200,4.4446552734375,0.26239269971847534,0.0016714837402105331,-0.14541730284690857
1772697837737704200,4.4547041015625,0.17343619465827942,0.0988699421286583,0.18424449861049652
1772697837747753500,4.46475341796875,0.13402871787548065,0.2884310781955719,0.40839582681655884
1772697837757801200,4.47480126953125,0.11404142528772354,0.4986090660095215,0.5357194542884827
1772697837767850200,4.484850341796875,0.0937318280339241,0.63985276222229,0.6093306541442871
1772697837777899300,4.494899169921875,0.08121923357248306,0.6839035749435425,0.6636937260627747
1772697837787947300,4.504947265625,0.07583776116371155,0.6508090496063232,0.6957394480705261
1772697837797996300,4.514996337890625,0.08249566704034805,0.5441683530807495,0.6870418190956116
1772697837808045300,4.52504541015625,0.10928372293710709,0.38887888193130493,0.6245241761207581
1772697837818093300,4.53509326171875,0.13333392143249512,0.2295083999633789,0.5111430287361145
1772697837828142000,4.54514208984375,0.1473756730556488,0.1137893795967102,0.3653264045715332
1772697837838191400,4.55519140625,0.14677166938781738,0.04407393932342529,0.2212781459093094
1772697837848239000,4.565239013671875,0.12100594490766525,-0.000046244822442531586,0.11013045161962509
1772697837858288400,4.575288330078125,0.07933519780635834,0.0018222290091216564,0.020200025290250778
1772697837868336000,4.585336181640625,0.04756864905357361,0.040417421609163284,-0.034943241626024246
1772697837878385400,4.595385498046875,0.02271949127316475,0.11012859642505646,-0.0655304491519928
1772697837888434200,4.60543408203125,0.001953271683305502,0.1975557953119278,-0.06329899281263351
1772697837898482400,4.615482421875,-0.007919066585600376,0.24733586609363556,-0.03916143253445625
1772697837908531200,4.62553125,-0.015766847878694534,0.2611246109008789,-0.014621180482208729
1772697837918580200,4.635580322265625,-0.0579606369137764,0.2186969816684723,-0.011984119191765785
1772697837928628200,4.645628173828125,-0.1127736046910286,0.1610628217458725,-0.014087102375924587
1772697837938677200,4.65567724609375,-0.14534752070903778,0.13052062690258026,0.007357735652476549
1772697837948726300,4.665726318359375,-0.16139809787273407,0.1750876009464264,0.06131844222545624
1772697837958775000,4.675775146484375,-0.15529519319534302,0.2335360050201416,0.13556018471717834
1772697837968824000,4.685823974609375,-0.14539238810539246,0.22247549891471863,0.20358729362487793
1772697837978873300,4.695873291015625,-0.14961430430412292,0.13885357975959778,0.2591695785522461
1772697837988921000,4.705921142578125,-0.16270968317985535,0.018045108765363693,0.3106783628463745
1772697837998970000,4.71597021484375,-0.1809331625699997,-0.0861036628484726,0.34590479731559753
1772697838009019100,4.72601904296875,-0.19221903383731842,-0.16278359293937683,0.36196133494377136
1772697838019067100,4.736067138671875,-0.19838878512382507,-0.22596628963947296,0.37682151794433594
1772697838029116200,4.7461162109375,-0.22373607754707336,-0.28075265884399414,0.39191898703575134
1772697838039165200,4.756165283203125,-0.24949602782726288,-0.2974189817905426,0.39673396944999695
1772697838049213200,4.766213134765625,-0.2628292739391327,-0.27183082699775696,0.3966423571109772
1772697838059262000,4.776261962890625,-0.2583906054496765,-0.22057537734508514,0.40096229314804077
1772697838069311200,4.786311279296875,-0.25552898645401,-0.153784841299057,0.4118223786354065
1772697838079359000,4.79635888671875,-0.250040739774704,-0.08425050973892212,0.4414343535900116
1772697838089408300,4.806408203125,-0.24482208490371704,-0.02827431820333004,0.4778987467288971
1772697838099457300,4.816457275390625,-0.23482804000377655,0.020266853272914886,0.5241613388061523
1772697838109505300,4.82650537109375,-0.2166219800710678,0.06351780146360397,0.585106611251831
1772697838119554000,4.836553955078125,-0.1898351013660431,0.06108766794204712,0.6471787691116333
1772697838129602300,4.846602294921875,-0.16265800595283508,0.008127318695187569,0.7136976718902588
1772697838139651000,4.856651123046875,-0.14566944539546967,-0.06543797999620438,0.787800133228302
1772697838149700000,4.8667001953125,-0.13700522482395172,-0.12184743583202362,0.8824986815452576
1772697838159748000,4.876748046875,-0.12278208136558533,-0.14910675585269928,0.9729481339454651
1772697838169797000,4.886797119140625,-0.10959639400243759,-0.15215502679347992,1.0296577215194702
1772697838179846100,4.89684619140625,-0.07964115589857101,-0.12202562391757965,1.030403733253479
1772697838189894100,4.90689404296875,-0.039293959736824036,-0.07671694457530975,0.9910041093826294
1772697838199943200,4.916943115234375,-0.003884572070091963,-0.08154712617397308,0.951503336429596
1772697838209992200,4.9269921875,0.019376585260033607,-0.18130765855312347,0.9414165616035461
1772697838220040200,4.937040283203125,0.028007889166474342,-0.35649731755256653,0.9891513586044312
1772697838230089200,4.947089111328125,0.021464236080646515,-0.5754024982452393,1.0936706066131592
1772697838240138000,4.957137939453125,-0.004138328600674868,-0.7538185715675354,1.237976312637329
1772697838250186200,4.967186279296875,-0.03764617070555687,-0.7921903133392334,1.4112188816070557
1772697838260235000,4.977235107421875,-0.038466423749923706,-0.6904759407043457,1.496429443359375
1772697838270284300,4.9872841796875,0.04123970493674278,-0.4387931525707245,1.4118114709854126
1772697838280332000,4.99733203125,0.16462048888206482,-0.09800837188959122,1.227764368057251
1772697838290381300,5.00738134765625,0.2807474732398987,0.3053237497806549,1.0464284420013428
1772697838300430000,5.01743017578125,0.3509521484375,0.707627534866333,0.8874987363815308
1772697838310478300,5.027478271484375,0.3604969382286072,1.083781361579895,0.7219635844230652
1772697838320527000,5.037527099609375,0.2989254593849182,1.3741276264190674,0.5405725240707397
1772697838330576100,5.047576171875,0.20517531037330627,1.554309606552124,0.3484664559364319
1772697838340624100,5.0576240234375,0.08391121029853821,1.5243620872497559,0.19004592299461365
1772697838350673200,5.067673095703125,-0.08002960681915283,1.2449759244918823,0.15739397704601288
1772697838360722200,5.07772216796875,-0.22540411353111267,0.8138508200645447,0.278663694858551
1772697838370770200,5.087770263671875,-0.31220757961273193,0.4620445966720581,0.4742584824562073
1772697838380819200,5.097819091796875,-0.3334106206893921,0.27218785881996155,0.6356465816497803
1772697838390868200,5.1078681640625,-0.315640389919281,0.1476854383945465,0.6960628032684326
1772697838400916200,5.117916259765625,-0.3022494912147522,0.024494530633091927,0.6622076034545898
1772697838410965200,5.12796533203125,-0.3255748450756073,-0.10965820401906967,0.6056280732154846
1772697838421013000,5.138012939453125,-0.37060409784317017,-0.2056334763765335,0.5849714875221252
1772697838431062300,5.148062255859375,-0.4026448726654053,-0.2591671943664551,0.5853452682495117
1772697838441111000,5.158111083984375,-0.40734216570854187,-0.33361613750457764,0.5387458205223083
1772697838451159300,5.1681591796875,-0.3891976475715637,-0.41698142886161804,0.4142615795135498
1772697838461208000,5.1782080078125,-0.3734935224056244,-0.5049062371253967,0.21853815019130707
1772697838471257000,5.188257080078125,-0.35321012139320374,-0.5192005038261414,-0.042887598276138306
1772697838481305000,5.19830517578125,-0.3320755362510681,-0.48497143387794495,-0.3204720616340637
1772697838491354000,5.20835400390625,-0.3155536651611328,-0.41589343547821045,-0.5605913400650024
1772697838501403100,5.218403076171875,-0.31420502066612244,-0.31499478220939636,-0.720217227935791
1772697838511451100,5.228451171875,-0.3470655083656311,-0.1846514344215393,-0.8179027438163757
1772697838521500200,5.238500244140625,-0.4023822844028473,-0.07097653299570084,-0.851500391960144
1772697838531549200,5.248549072265625,-0.462478369474411,-0.039034102112054825,-0.8305566310882568
1772697838541597200,5.25859716796875,-0.5159035325050354,-0.09839756041765213,-0.7537753582000732
1772697838551646200,5.268646240234375,-0.5531847476959229,-0.2281007617712021,-0.6298048496246338
1772697838561695000,5.278695068359375,-0.5387139320373535,-0.37580206990242004,-0.4910581707954407
1772697838571743200,5.2887431640625,-0.5443916320800781,-0.490022748708725,-0.3673395812511444
1772697838581792000,5.2987919921875,-0.5674276947975159,-0.5480147004127502,-0.29608216881752014
1772697838591841300,5.30884130859375,-0.6158770322799683,-0.5362673401832581,-0.27744799852371216
1772697838601889000,5.318888916015625,-0.6594157218933105,-0.5088232159614563,-0.3016931712627411
1772697838611938300,5.328938232421875,-0.6817348599433899,-0.4859575927257538,-0.363675981760025
1772697838621986000,5.338986083984375,-0.6870140433311462,-0.5088711380958557,-0.44014066457748413
1772697838632035300,5.349035400390625,-0.6491566300392151,-0.5489447712898254,-0.518964946269989
1772697838642084000,5.359083984375,-0.5833384990692139,-0.5762531161308289,-0.5876801013946533
1772697838652132000,5.369132080078125,-0.49356314539909363,-0.5546665787696838,-0.6172317266464233
1772697838662181000,5.37918115234375,-0.37275975942611694,-0.5098652839660645,-0.603661060333252
1772697838672230100,5.389230224609375,-0.2627142667770386,-0.44838130474090576,-0.5372101068496704
1772697838682278100,5.399278076171875,-0.16862133145332336,-0.375357449054718,-0.4304221272468567
1772697838692327200,5.4093271484375,-0.10516070574522018,-0.30376219749450684,-0.3240230083465576
1772697838702376200,5.419376220703125,-0.08165271580219269,-0.22697050869464874,-0.2224859893321991
1772697838712424000,5.429423828125,-0.08321747183799744,-0.1330120712518692,-0.14428652822971344
1772697838722473200,5.43947314453125,-0.07119729369878769,-0.012371139600872993,-0.10366132855415344
1772697838732522200,5.449522216796875,-0.05287792533636093,0.11209418624639511,-0.08033883571624756
1772697838742570200,5.4595703125,-0.05772460997104645,0.19500264525413513,-0.05475543811917305
1772697838752619300,5.469619384765625,-0.08036100119352341,0.23910978436470032,-0.030812427401542664
1772697838762668000,5.47966796875,-0.07751088589429855,0.258412629365921,-0.009096745401620865
1772697838772716000,5.489716064453125,-0.05873908847570419,0.24026954174041748,0.02090204507112503
1772697838782765000,5.49976513671875,-0.02701924368739128,0.15131010115146637,0.06463008373975754
1772697838792814300,5.509814453125,0.007091517560184002,0.001516520045697689,0.10829233378171921
1772697838802862000,5.519862060546875,0.018579063937067986,-0.15933282673358917,0.16608798503875732
1772697838812911000,5.5299111328125,0.01668129488825798,-0.27490654587745667,0.21422675251960754
1772697838822960000,5.539960205078125,0.015242920257151127,-0.40869975090026855,0.2148885577917099
1772697838833008000,5.550008056640625,-0.01624511554837227,-0.5444208383560181,0.1630874127149582
1772697838843057200,5.56005712890625,-0.008968028239905834,-0.5207091569900513,0.13650426268577576
1772697838853106200,5.570106201171875,0.03490198031067848,-0.26189762353897095,0.14934338629245758
1772697838863154200,5.580154296875,0.0634332224726677,0.0024173990823328495,0.16915863752365112
1772697838873203000,5.590202880859375,0.057935360819101334,0.11684458702802658,0.15997765958309174
1772697838883252200,5.600252197265625,0.046631041914224625,0.08159418404102325,0.14285245537757874
1772697838893300000,5.610300048828125,0.037610139697790146,0.022253038361668587,0.12297555059194565
1772697838903349200,5.620349365234375,0.04474608227610588,-0.024137895554304123,0.0845317542552948
1772697838913397000,5.63039697265625,0.05817311257123947,-0.08911053836345673,0.036572881042957306
1772697838923446300,5.6404462890625,0.06375668942928314,-0.12432178854942322,-0.022771935909986496
1772697838933495000,5.6504951171875,0.09648752212524414,0.002858689520508051,-0.04441358894109726
1772697838943543300,5.660543212890625,0.1769978106021881,0.33482491970062256,0.01672459952533245
1772697838953591800,5.670591796875,0.22386009991168976,0.6074418425559998,0.13943813741207123
1772697838963640800,5.680640869140625,0.2158045768737793,0.5717275738716125,0.23796577751636505
1772697838973689900,5.69068994140625,0.2070302963256836,0.2972528636455536,0.3071616291999817
1772697838983737900,5.70073779296875,0.21214649081230164,0.011309796944260597,0.35505273938179016
1772697838993787000,5.710786865234375,0.21551299095153809,-0.17981435358524323,0.3800142705440521
1772697839003836000,5.7208359375,0.21199673414230347,-0.23774921894073486,0.3638078570365906
1772697839013884000,5.7308837890625,0.19732584059238434,-0.19520558416843414,0.3020443618297577
1772697839023933000,5.740932861328125,0.1729177087545395,-0.11575470119714737,0.2206682711839676
1772697839033981700,5.750981689453125,0.15072126686573029,-0.053248435258865356,0.13559506833553314
1772697839044030000,5.761030029296875,0.1306128054857254,0.005656692199409008,0.06898940354585648
1772697839054078700,5.77107861328125,0.1030382364988327,0.07350187748670578,0.05159178003668785
1772697839064128000,5.7811279296875,0.07514588534832001,0.15455412864685059,0.08279311656951904
1772697839074175700,5.79117578125,0.030891884118318558,0.20019708573818207,0.13416308164596558
1772697839084225000,5.80122509765625,-0.010048091411590576,0.18608711659908295,0.16476227343082428
1772697839094273800,5.811273681640625,-0.04876433685421944,0.09046062082052231,0.13913121819496155
1772697839104322000,5.821322021484375,-0.08676738291978836,-0.03059256076812744,0.07722018659114838
1772697839114370800,5.831370849609375,-0.10967900604009628,-0.1206415668129921,0.013073678128421307
1772697839124419000,5.841419189453125,-0.11634969711303711,-0.18849198520183563,-0.03025382198393345
1772697839134467800,5.8514677734375,-0.10971588641405106,-0.18587790429592133,-0.05099599063396454
1772697839144516900,5.861516845703125,-0.08706836402416229,-0.09209255874156952,-0.05052327737212181
1772697839154564900,5.87156494140625,-0.06225849315524101,0.011817939579486847,-0.04210621863603592
1772697839164614000,5.88161376953125,-0.0383390448987484,0.060063764452934265,-0.02960827201604843
1772697839174663000,5.891662841796875,-0.02241750992834568,0.05205221101641655,-0.04382994771003723
1772697839184711000,5.9017109375,-0.00774908484891057,0.03246146813035011,-0.06607665866613388
1772697839194760000,5.911760009765625,0.0015503554604947567,0.03627603501081467,-0.09476304799318314
1772697839204809000,5.92180908203125,0.002504033502191305,0.05195912718772888,-0.11147411167621613
1772697839214857000,5.93185693359375,0.007451172918081284,0.10005676001310349,-0.10653114318847656
1772697839224906000,5.941906005859375,0.0032407152466475964,0.17728842794895172,-0.08810339868068695
1772697839234954800,5.951954833984375,-0.003674333216622472,0.22001589834690094,-0.06350112706422806
1772697839245003000,5.9620029296875,-0.016573086380958557,0.1948021501302719,-0.04152685031294823
1772697839255051800,5.9720517578125,-0.03170172870159149,0.13188183307647705,-0.024849461391568184
1772697839265101000,5.98210107421875,-0.056386034935712814,0.07576583325862885,-0.01414461899548769
1772697839275148800,5.992148681640625,-0.06749849766492844,0.019870320335030556,-0.01834576018154621
1772697839285198000,6.002197998046875,-0.07594817131757736,-0.013149147853255272,-0.0326693058013916
1772697839295246800,6.012246826171875,-0.08048540353775024,0.011608129367232323,-0.04386443644762039
1772697839305295000,6.022295166015625,-0.0834881141781807,0.0716341882944107,-0.0511777400970459
1772697839315344000,6.03234375,-0.08732882142066956,0.11987482011318207,-0.052954744547605515
1772697839325393000,6.042392822265625,-0.09067162126302719,0.14416977763175964,-0.04853176698088646
1772697839335441000,6.05244091796875,-0.08904769271612167,0.12045609205961227,-0.06721502542495728
1772697839345490000,6.062489990234375,-0.08224251866340637,0.09587165713310242,-0.08590961992740631
1772697839355539000,6.0725390625,-0.07284505665302277,0.10233191400766373,-0.09907069802284241
1772697839365587000,6.0825869140625,-0.06494852155447006,0.11609353125095367,-0.10602208226919174
1772697839375636000,6.092635986328125,-0.05383605509996414,0.12941426038742065,-0.10842106491327286
1772697839385685000,6.10268505859375,-0.05702652037143707,0.15775693953037262,-0.09553642570972443
1772697839395733000,6.11273291015625,-0.05477364361286163,0.17578375339508057,-0.07159513235092163
1772697839405782000,6.122781982421875,-0.03987112641334534,0.15971744060516357,-0.04389852285385132
1772697839415830800,6.132830810546875,-0.004335144534707069,-0.03331882506608963,0.11295141279697418
1772697839425879000,6.142879150390625,0.0006098127923905849,-0.48798006772994995,0.3001023828983307
1772697839435927800,6.152927734375,0.003727526869624853,-0.7265203595161438,0.22506742179393768
1772697839445977000,6.16297705078125,0.003027648199349642,-0.7813130617141724,0.06869485974311829
1772697839456024800,6.17302490234375,-0.026562049984931946,-0.683097779750824,-0.07214880734682083
1772697839466074000,6.18307421875,-0.06889699399471283,-0.4024258852005005,-0.2192157506942749
1772697839476121900,6.193121826171875,-0.0742235779762268,-0.021282270550727844,-0.2964911162853241
1772697839486171000,6.2031708984375,-0.04921170324087143,0.27687087655067444,-0.3146008551120758
1772697839496220000,6.213219970703125,-0.04878827556967735,0.46892011165618896,-0.30117520689964294
1772697839506268000,6.223267822265625,-0.054760415107011795,0.5657228231430054,-0.2840966284275055
1772697839516317000,6.23331689453125,-0.05270396173000336,0.5651151537895203,-0.27192384004592896
