time,seconds_elapsed,z,y,x
1772697881409580800,0.064580810546875,0.337810397619009,0.08441811261326074,-0.017896306696534157
1772697881419629600,0.074629638671875,0.34140170010924337,0.10619359883069991,0.04722878416478633
1772697881429677800,0.084677734375,0.2633703659236431,0.17155454427450895,0.09902852950692176
1772697881439726600,0.0947265625,0.05388005874752998,0.1700482313647866,0.08283025889992714
1772697881449775600,0.104775634765625,-0.09060323098897934,0.10515490343272685,0.14908698413968086
1772697881459824600,0.11482470703125,-0.14049217427372931,0.0740720751658082,0.24806758285164832
1772697881469872600,0.12487255859375,-0.1307815121203661,0.06893208192884921,0.23332243366241454
1772697881479921700,0.134921630859375,-0.07602934671342372,0.04663052601069212,0.1837579000264406
1772697881489970700,0.144970703125,-0.014507833302021026,0.0028837387427687643,0.14198445865809917
1772697881500018700,0.155018798828125,0.04200491203665733,-0.07583996162116527,0.1329419050246477
1772697881510067700,0.165067626953125,0.06695522889792918,-0.09425123210251331,0.06331307300329209
1772697881520116500,0.175116455078125,0.08389759587049483,-0.12046616207212209,-0.024415479332208632
1772697881530165800,0.185165771484375,0.053859015959501266,-0.15347119057327507,-0.061283028480410576
1772697881540213500,0.195213623046875,0.035892566636204715,-0.1803559826284647,-0.041970425245165824
1772697881550262800,0.2052626953125,-0.008576105165481566,-0.17105127092748879,0.008024901023507117
1772697881560311600,0.2153115234375,-0.050445992645621295,-0.1515574659064412,0.04563654653728008
1772697881570360600,0.225360595703125,-0.09502338551878929,-0.151992350192368,0.13713234245181083
1772697881580408600,0.23540869140625,-0.0805786805808544,-0.13998714736104012,0.20227321540415286
1772697881590457600,0.24545751953125,-0.009752747729420662,-0.054127019245922565,0.18100363288223742
1772697881600506600,0.255506591796875,0.029290391892194748,-0.10941197635531424,0.0840472334742546
1772697881610555600,0.2655556640625,0.036060324418544766,-0.1411313489601016,0.02223053650856018
1772697881620603600,0.275603759765625,0.0445160180747509,-0.16577976026535032,0.05073240837156772
1772697881630652700,0.285652587890625,0.07678513351678848,-0.18325871833264826,0.060652913883328434
1772697881640701400,0.295701416015625,0.10803542730510234,-0.24780191765278575,0.06747486885786057
1772697881650749700,0.305749755859375,0.13771043460071086,-0.3028738165333867,0.06126257021427154
1772697881660798500,0.315798583984375,0.16103519608676434,-0.3244371213048696,0.05803893199265003
1772697881670847700,0.32584765625,0.18299276087284086,-0.28867987148612734,0.09828034148812294
1772697881680896800,0.335896728515625,0.16544950539767742,-0.3127498983815312,0.15346505309343336
1772697881690944800,0.34594482421875,0.1398480311512947,-0.291737213230133,0.18543898498117922
1772697881700993500,0.35599365234375,0.028032500785589217,-0.21700696641653774,0.165427878087759
1772697881711042600,0.36604248046875,-0.07322714877426624,-0.17445640319585798,0.07638005984723567
1772697881721091800,0.376091796875,-0.15051029494106768,-0.10090162990242242,0.027839608561992645
1772697881731139600,0.3861396484375,-0.15824118145406246,-0.07642565255463123,0.059742228779196736
1772697881741188900,0.39618896484375,-0.11480009913444518,-0.07429243991822004,0.1820505115866661
1772697881751237600,0.406237548828125,-0.09573065700531005,-0.10122866989970207,0.27697511290609833
1772697881761285600,0.41628564453125,-0.011697452056407927,-0.11398293753266334,0.45746728913486
1772697881771334700,0.426334716796875,0.03215454915165901,-0.1241015959650278,0.5608288794100285
1772697881781383700,0.4363837890625,-0.05518237351775169,-0.09908961204439401,0.5114847105264664
1772697881791432700,0.4464326171875,-0.18582769203782082,-0.09368395360857248,0.37450142115652557
1772697881801480400,0.45648046875,-0.3137076374977827,-0.10691285301595925,0.27303075919449327
1772697881811529700,0.46652978515625,-0.3305290084391832,-0.11903496022522449,0.12742226482033728
1772697881821578800,0.476578857421875,-0.33882805022895335,-0.042617198716104025,0.09206102858185768
1772697881831627500,0.48662744140625,-0.3512555701255798,-0.04080664216279983,0.09266659325957298
1772697881841675800,0.49667578125,-0.2846791114121675,-0.05796528223454952,0.02378594925701618
1772697881851724500,0.506724609375,-0.17288520835638047,-0.06807751092612743,-0.02189151381254196
1772697881861773800,0.51677392578125,-0.08807984999120234,-0.10647533838152885,0.000029810616374015806
1772697881871822600,0.526822509765625,0.043991117417812343,-0.0006079027652740478,0.059093994003534316
1772697881881870800,0.536870849609375,0.13468728738725186,0.023003274446725844,0.01476736102104187
1772697881891919600,0.546919677734375,0.08698094883859157,0.01790273643732071,-0.11701076092123984
1772697881901968600,0.55696875,0.0506897382736206,0.038384091190993785,-0.24472294859886168
1772697881912016600,0.5670166015625,0.026978023296594617,-0.03426438091248274,-0.37412849619090555
1772697881922065700,0.577065673828125,-0.017203063735365866,-0.06470394283980131,-0.42069326348900793
1772697881932114700,0.58711474609375,0.015262451061606406,-0.10467208835184573,-0.40788755792975423
1772697881942163700,0.597163818359375,-0.027599370065331457,-0.1297094989746809,-0.3057873658925295
1772697881952211700,0.607211669921875,0.013224807754158973,-0.18322013988792896,-0.1698462790518999
1772697881962260700,0.6172607421875,0.020955694267153737,-0.1932192635938525,-0.03589899637699127
1772697881972309500,0.6273095703125,0.0649807139545679,-0.15465192479044199,-0.04293956253826618
1772697881982358800,0.63735888671875,0.0026437925070524216,-0.07564648487567902,0.00473521182835102
1772697881992406000,0.647406005859375,-0.15710779350996015,-0.010186170710623263,-0.1326461369484663
1772697882002455300,0.657455322265625,-0.32470775493979454,-0.03230009510219097,-0.24688977124392986
1772697882012504000,0.667504150390625,-0.32057635422348973,-0.07037789682298898,-0.2976420533597469
1772697882022553000,0.677552978515625,-0.28119711451530455,-0.018004735507071018,-0.34529812302589413
1772697882032601000,0.68760107421875,-0.1379611944913864,0.030136487327516077,-0.3662532327711582
1772697882042650000,0.697650146484375,-0.11473346363902091,0.002444470542669296,-0.27018355306982994
1772697882052699100,0.70769921875,-0.0627583617299795,0.06814531546533108,-0.17150865930616854
1772697882062748200,0.717748046875,-0.08826514343023299,0.004748948092758655,-0.17253157261312008
1772697882072796200,0.727796142578125,-0.13467384338378904,-0.026787761421501636,-0.15346096144020557
1772697882082845200,0.73784521484375,-0.16621756716072558,-0.006388531993329525,-0.20084932008087633
1772697882092894000,0.74789404296875,-0.3213099291950464,-0.03208002261072397,-0.3022439941972494
1772697882102942200,0.757942138671875,-0.38870647211968895,-0.1176902676180005,-0.4060983364254236
1772697882112991000,0.767990966796875,-0.49547173335850236,-0.11359130786657333,-0.4620511097937822
1772697882123040300,0.778040283203125,-0.5118669878423213,-0.13300970956385136,-0.5026368026822805
1772697882133089000,0.788089111328125,-0.5850450367778539,-0.11876666467785835,-0.5059662393659353
1772697882143137300,0.79813720703125,-0.6252262405186891,-0.11992577158510684,-0.5116051220357418
1772697882153186000,0.80818603515625,-0.6415665499448776,-0.1520914266526699,-0.5144944137364625
1772697882163235000,0.818235107421875,-0.6180979960739612,-0.18910832114368675,-0.521248564171791
1772697882173284000,0.8282841796875,-0.6123755267739296,-0.2317114913344383,-0.5127157136261463
1772697882183332000,0.83833203125,-0.5985118365943431,-0.27372809380888935,-0.5026122527629137
1772697882193381000,0.848381103515625,-0.6584656622976064,-0.32426760995686055,-0.4979325705140829
1772697882203430100,0.85843017578125,-0.6934358533918857,-0.3342816389709711,-0.4462801246881485
1772697882213478100,0.86847802734375,-0.7484358560800551,-0.3339084217444062,-0.4191296674340963
1772697882223527200,0.878527099609375,-0.7730792989492415,-0.33377982692867514,-0.33563013097047806
1772697882233576000,0.888575927734375,-0.8041016292005777,-0.35773791788220405,-0.2695136909842491
1772697882243625200,0.898625244140625,-0.7912725427657366,-0.32412031044065953,-0.24548574966490266
1772697882253673000,0.9086728515625,-0.7218401100993156,-0.2814168947458267,-0.2613081726968288
1772697882263722200,0.91872216796875,-0.6628221039414406,-0.24690350750833748,-0.2374234392404556
1772697882273771000,0.92877099609375,-0.6259229906111955,-0.2909402176335454,-0.23357553164064881
1772697882283820000,0.938820068359375,-0.6381582028061151,-0.2886085598155856,-0.251951146286726
1772697882293868000,0.948867919921875,-0.714582686316967,-0.3087146515160799,-0.26985212915837764
1772697882303917000,0.9589169921875,-0.7268588150441646,-0.3159454795524478,-0.2950198881626129
1772697882313966000,0.968966064453125,-0.7092512621611357,-0.34284371561110016,-0.43401159474551676
1772697882324015000,0.97901513671875,-0.756411072742939,-0.2732882410869002,-0.4062000432342291
1772697882334063000,0.98906298828125,-0.8168529742240905,-0.30604221743643284,-0.43375849676728245
1772697882344112000,0.999112060546875,-0.8723638490438461,-0.27136428728699685,-0.44967619686722754
1772697882354161200,1.0091611328125,-0.9000234248638153,-0.2543088153287768,-0.5415788200169801
1772697882364210200,1.019210205078125,-0.8907645981311798,-0.26815730793923137,-0.6207102243989706
1772697882374258000,1.0292578125,-0.8984773644655942,-0.30162440099418164,-0.6383429117232561
1772697882384307200,1.03930712890625,-0.8976631254732609,-0.3633119186222553,-0.6720768390208482
1772697882394356200,1.049356201171875,-0.8803197764843702,-0.38201574230939145,-0.7116302662521601
1772697882404404200,1.059404296875,-0.8321826453030109,-0.43124154551029203,-0.7426999427765607
1772697882414453000,1.069452880859375,-0.7629501191228628,-0.49777591864764686,-0.739870272308588
1772697882424502000,1.079501953125,-0.7028092464148998,-0.5318275335922837,-0.6722387515842915
1772697882434551300,1.08955126953125,-0.7063759989857673,-0.5419777562066912,-0.6635042409867048
1772697882444599000,1.09959912109375,-0.7089180846840143,-0.5819064464911818,-0.6538315727561712
1772697882454648300,1.1096484375,-0.780838827034831,-0.6113239718943834,-0.5784983916133641
1772697882464697000,1.119697021484375,-0.7187596797406673,-0.6012108664199709,-0.4623363564759493
1772697882474746000,1.12974609375,-0.6904986308962107,-0.6208540167838335,-0.3050596361398697
1772697882484794000,1.139794189453125,-0.7163415126830339,-0.6134077924311161,-0.1098322475939989
1772697882494843100,1.149843017578125,-0.6832032131910324,-0.6035930853813887,0.07050795294344425
1772697882504892200,1.15989208984375,-0.7396633515596389,-0.547879089204967,0.39446518177688117
1772697882514941200,1.169941162109375,-0.8150257587969303,-0.46535862690657376,0.8646072435677051
1772697882524989200,1.1799892578125,-0.8686737623542546,-0.25230185942053796,1.3020271854519843
1772697882535038200,1.1900380859375,-0.8294418221622705,-0.053065527494251724,1.6426088013499973
1772697882545087000,1.2000869140625,-0.7726900073707104,0.03353022141903639,1.9018425058603285
1772697882555136300,1.21013623046875,-0.627794629701972,0.06945698258578777,1.9840496644258498
1772697882565184000,1.22018408203125,-0.5228577529340982,0.08421762160509824,1.95616738576591
1772697882575233300,1.2302333984375,-0.24485037437081336,0.0338239436686039,1.7659160320669411
1772697882585282000,1.240281982421875,-0.12586919015944004,-0.18331015625894068,1.4751812738776207
1772697882595330300,1.250330322265625,0.04841244099140167,-0.33904899950325484,1.2711650141984223
1772697882605379000,1.260379150390625,0.24405191746950147,-0.4330404116258025,0.8577911338120698
1772697882615428000,1.270427978515625,0.5533575206160545,-0.6738105309456587,0.32486908298134803
1772697882625477000,1.28047705078125,0.8011006938189268,-0.8982999620720744,-0.21513971123993395
1772697882635525000,1.290525146484375,0.8877735996216535,-0.9479615263417362,-0.4813964462548494
1772697882645574100,1.30057421875,0.8276835803180933,-0.8970780190616846,-0.720981447443366
1772697882655623200,1.310623046875,0.6677233199864625,-0.7758788665398955,-0.9559399578750133
1772697882665672000,1.320671875,0.3838245452970266,-0.6335220674380659,-1.004628293198347
1772697882675720200,1.33072021484375,0.17935586567521095,-0.5554141608849168,-0.962365607008338
1772697882685769000,1.34076904296875,-0.12313128962814807,-0.4376397221148014,-0.8315490235745906
1772697882695818200,1.350818359375,-0.32810850329399105,-0.31850656221210955,-0.6133861651211977
1772697882705867000,1.360866943359375,-0.29892975508272646,-0.18385142352879047,-0.29305881722271443
1772697882715915300,1.370915283203125,-0.1669961503177881,-0.0702463793978095,0.020658172625303266
1772697882725964000,1.380964111328125,-0.014456979897618292,0.048830958664417265,0.2273550496906042
1772697882736013000,1.391012939453125,0.09283493556380272,0.01648059467971325,0.3737392046123743
1772697882746061000,1.40106103515625,0.16794073769152162,-0.1466392987266183,0.47322073858380315
1772697882756110000,1.411110107421875,0.2658580910861492,-0.3474810200229287,0.5017436532348394
1772697882766159000,1.4211591796875,0.24413725766539573,-0.5472165336430073,0.49614860970675945
1772697882776208100,1.4312080078125,0.19690438184738157,-0.643378567802906,0.5244710333496332
1772697882786256100,1.441256103515625,0.16893267133831977,-0.7250991118952631,0.5404916093021631
1772697882796305200,1.45130517578125,-0.031003041028976438,-0.6809799841836095,0.5376601852685213
1772697882806354000,1.46135400390625,-0.12431728454232215,-0.549602259735763,0.5233715476751327
1772697882816403200,1.4714033203125,-0.030367081212997436,-0.4240785220131278,0.39856735639870167
1772697882826451000,1.481450927734375,0.17464987994134426,-0.42227585650533433,0.31021044303178785
1772697882836500200,1.491500244140625,0.49061026480197906,-0.3468281090721488,0.29228374119699
1772697882846549000,1.501549072265625,0.6937585094749927,-0.21305852105170486,0.27789865749180315
1772697882856598000,1.511597900390625,0.7862158438980579,-0.0803983555778861,0.22978432266414164
1772697882866646000,1.52164599609375,0.8047796745926141,0.11359890665113925,0.22037994998097418
1772697882876695000,1.531695068359375,0.8095125483334064,0.2932797664970159,0.24876374842226504
1772697882886744300,1.541744384765625,0.7066700134962797,0.39026100808531045,0.27929624933004377
1772697882896792000,1.5517919921875,0.6982324400186538,0.4690522207275033,0.27155016524791714
1772697882906841000,1.561841064453125,0.6263713189005852,0.5037257669627666,0.15935586469769478
1772697882916890000,1.57189013671875,0.5321668485492468,0.5859808563232421,0.11831599830090998
1772697882926939100,1.581939208984375,0.5029308171927929,0.6702958008229732,0.11845452998876571
1772697882936987100,1.591987060546875,0.4243991322696209,0.6520557952553033,0.10635083521902561
1772697882947036000,1.602035888671875,0.30011984165012834,0.5953183012500405,0.14465513917207717
1772697882957085200,1.612085205078125,0.09575169979333877,0.6313014687791466,0.19505203197896478
1772697882967134200,1.62213427734375,-0.13806523938775062,0.7162599718794226,0.2369184123277664
1772697882977182200,1.63218212890625,-0.40959260828197,0.8237605616554617,0.31268940036594867
1772697882987231200,1.642231201171875,-0.4716191486060619,0.8527195296362042,0.3534896127879619
1772697882997280300,1.6522802734375,-0.49450551867485043,0.8260323059797287,0.40328444804847235
1772697883007329500,1.66232958984375,-0.45275662722587584,0.8441869713515042,0.4029693907499313
1772697883017377300,1.672377197265625,-0.36596097182631493,0.7877551822945476,0.38559213949143883
1772697883027426600,1.682426513671875,-0.27232874840497967,0.7156824642524123,0.25570494586229325
1772697883037475300,1.692475341796875,-0.2768324895650148,0.5972299800902605,0.12437106055617332
1772697883047523600,1.702523681640625,-0.2889806079983711,0.45799277431368823,0.05474456662237644
1772697883057572400,1.712572265625,-0.35069735172092914,0.3708206868171692,0.11553893480300903
1772697883067621400,1.722621337890625,-0.36293081035017966,0.2386474280774593,0.11424188072979449
1772697883077670400,1.73267041015625,-0.3178635881334543,0.15180764127522706,0.09365385073125362
1772697883087718400,1.742718505859375,-0.202472537368536,0.12612082683295012,0.11294424213469027
1772697883097767400,1.752767333984375,-0.08286065403819083,0.11403759032934903,0.09236205735504627
1772697883107816400,1.76281640625,0.06407821215689181,0.10160334843099117,0.03448562244772911
1772697883117865200,1.772865234375,0.24201427416205404,0.1255488721638918,-0.053449850636720656
1772697883127913500,1.78291357421875,0.39952188064455985,0.14382657939344642,-0.15942776089012622
1772697883137962200,1.792962158203125,0.5003039758205413,0.11589373959004878,-0.26511574828624723
1772697883148011500,1.803011474609375,0.5834446158438921,0.09549100303053855,-0.35091830099523064
1772697883158060500,1.813060546875,0.6686328360468149,0.08674947817027569,-0.37791853612363335
1772697883168108500,1.823108642578125,0.7239958268284797,0.05667027398794889,-0.29934710371196266
1772697883178157300,1.8331572265625,0.7882780371248722,0.0120145551815629,-0.27382103278934955
1772697883188206300,1.843206298828125,0.8043740164011717,0.00038023148924112317,-0.12817805162370205
1772697883198254300,1.85325439453125,0.7771849807024002,-0.05529752433001995,0.04454992034435272
1772697883208303400,1.863303466796875,0.7333318104505538,-0.05189443788826465,0.047796939441561694
1772697883218352600,1.8733525390625,0.6910895825266837,-0.03642769642621278,0.031551907083392144
1772697883228401400,1.8834013671875,0.533747980260849,-0.057878772994875906,-0.055720718178153036
1772697883238449400,1.893449462890625,0.3478799562126398,-0.0384206238090992,-0.06037234337627887
1772697883248498400,1.90349853515625,0.21981062566041945,0.042789048151671887,-0.08107435514330863
1772697883258547500,1.91354736328125,0.12339373995661734,0.047129415443539616,-0.05259878676533699
1772697883268596500,1.923596435546875,0.05014321030676364,0.03882511295676231,-0.004994739547371864
1772697883278644200,1.933644287109375,0.0805266581326723,-0.021269290260970592,0.08307634261548519
1772697883288693500,1.943693603515625,0.032362054422497746,-0.04415156867653131,0.06537000553309917
1772697883298742500,1.953742431640625,-0.005607903009653091,-0.0680327950015664,0.0791542007356882
1772697883308791300,1.963791259765625,-0.0658265171289444,-0.0899643485635519,0.14599018716812132
1772697883318839600,1.973839599609375,-0.05170563731789589,-0.13232201956063508,0.16265198363363742
1772697883328888300,1.983888427734375,-0.25927637460827824,-0.10622808562219142,0.005027472773194313
1772697883338937600,1.9939375,-0.23436931236684322,-0.19978490571975707,-0.04911795891225338
1772697883348986400,2.003986328125,-0.3559627249032259,-0.3027683103322983,-0.04916647422909736
1772697883359034600,2.01403466796875,-0.4198644114494324,-0.33146044407039876,-0.15798866799771785
1772697883369083400,2.02408349609375,-0.3004179478138685,-0.4090598165795207,-0.10217384179532528
1772697883379132400,2.03413232421875,-0.42595396049618717,-0.4878083591237664,-0.14002572580575942
1772697883389180400,2.044180419921875,-0.37002690609097477,-0.5217696654364467,-0.22713117780685424
1772697883399229400,2.0542294921875,-0.36484921119213104,-0.5262780827715993,-0.14991116000413893
1772697883409278500,2.064278564453125,-0.32491467568874355,-0.5761380922228098,-0.2414016952216625
1772697883419327500,2.074327392578125,-0.3563455867409706,-0.5262283984109759,-0.26352351065874097
1772697883429375500,2.08437548828125,-0.3217968359291553,-0.4173226180121302,-0.39948271767795085
1772697883439424500,2.094424560546875,-0.30026363403499123,-0.36978169915825126,-0.536642532658577
1772697883449473300,2.104473388671875,-0.22675942188501358,-0.35434038439840077,-0.6106862585127353
1772697883459522600,2.1145224609375,-0.18343115229010581,-0.39600422791242595,-0.6451385632127523
1772697883469570300,2.1245703125,-0.1455553028821945,-0.4200593494996428,-0.6577759264677763
1772697883479619600,2.13461962890625,-0.15931494816541672,-0.41190030070245265,-0.6948065572232007
1772697883489668400,2.14466845703125,-0.10051029249727725,-0.39727059458643194,-0.6991530619949102
1772697883499716600,2.154716552734375,-0.06593348463475704,-0.34455811831355093,-0.7584837873637675
1772697883509765400,2.164765380859375,-0.06800795282125473,-0.27932869029492136,-0.7796744594305753
1772697883519814400,2.174814453125,-0.13226853580772877,-0.2550216397732496,-0.7162222702175378
1772697883529863400,2.184863525390625,-0.20991233198046683,-0.20049013137966393,-0.6886486191153526
1772697883539911400,2.194911376953125,-0.3093202161937952,-0.1850169601768255,-0.6714835493028164
1772697883549960400,2.20496044921875,-0.4388748168677091,-0.16989041045457123,-0.5757336030751466
1772697883560009500,2.215009521484375,-0.5957353576183319,-0.12572013707756996,-0.4753805469661951
1772697883570058200,2.225058349609375,-0.7041004552692175,-0.12449760954529046,-0.3267325387656688
1772697883580106500,2.2351064453125,-0.7670324200004339,-0.13419453543424606,-0.35474282771945
1772697883590155300,2.2451552734375,-0.8011901256680488,-0.1593047190323472,-0.37487726873159405
1772697883600204500,2.25520458984375,-0.8140800023794174,-0.1496346811503172,-0.2928752773493528
1772697883610253300,2.26525341796875,-0.8737935895860195,-0.17205664857774972,-0.2956242837965488
1772697883620301600,2.275301513671875,-0.9671206925809382,-0.19187807811796664,-0.3252928613513708
1772697883630350300,2.285350341796875,-1.0560510219216346,-0.15437924532890318,-0.3175590522289276
1772697883640399400,2.2953994140625,-1.0790145488798617,-0.10629618242233992,-0.3262485546410084
1772697883650448400,2.305448486328125,-1.0068144050657748,-0.06892360636144876,-0.4080716823250055
1772697883660496400,2.315496337890625,-0.9631664019972085,-0.07322101129442453,-0.45345863801538944
1772697883670545400,2.32554541015625,-0.8168634956181049,-0.08913345069736242,-0.5273340215653181
1772697883680594400,2.335594482421875,-0.7221411388725042,-0.08555617673248052,-0.5779945337444543
1772697883690642400,2.345642333984375,-0.6734995653003454,-0.10092471851706504,-0.6485849042743445
1772697883700691500,2.35569140625,-0.616731383895874,-0.1386395321443677,-0.734392717680335
1772697883710740200,2.365740234375,-0.6413841791152953,-0.16568769806772468,-0.7389215932816267
1772697883720789500,2.37578955078125,-0.7566027959227561,-0.16357494369745254,-0.8951829990953206
1772697883730837200,2.385837158203125,-0.8391647592753172,-0.15682546943724154,-0.9891203429430723
1772697883740886500,2.395886474609375,-0.8831815956562757,-0.029184593430161474,-0.986274890384078
1772697883750935600,2.405935546875,-0.9796236158013343,0.14073065920472144,-0.7501637027859688
1772697883760984300,2.415984375,-1.1971394085228442,0.544259145142138,-0.3748983115196228
1772697883771032300,2.4260322265625,-1.2562819178432225,0.7443745979905128,0.06239829624593258
1772697883781081300,2.436081298828125,-1.1368319470763206,1.053469188734889,0.15549217500686643
1772697883791130600,2.446130615234375,-0.9517325693130493,1.3345201727777718,0.4286012601345777
1772697883801179400,2.456179443359375,-0.7912795570284128,1.4458350601449608,0.7546680284678936
1772697883811227400,2.466227294921875,-0.8814233538120985,1.8241104468822478,0.7380529937535524
1772697883821276400,2.4762763671875,-0.8508750708132982,2.098100114236772,1.0191542466789483
1772697883831325400,2.486325439453125,-0.7571580917179584,1.9599705774411558,1.2373749727994203
1772697883841373400,2.49637353515625,-0.6511620612859725,1.7284867573827505,1.2587959464907645
1772697883851422500,2.50642236328125,-0.3535480649769306,1.570681629258394,0.9955424849450588
1772697883861471500,2.516471435546875,-0.06764496472775935,1.426020937128365,0.6524561927497387
1772697883871520500,2.5265205078125,0.26767770772874355,1.2318892348647117,0.30770576673448086
1772697883881568500,2.536568603515625,0.49693128451704977,0.9709636317446827,-0.026994389909505843
1772697883891617500,2.546617431640625,0.6268272459745406,0.6543710864603519,-0.3519581654369831
1772697883901666300,2.556666259765625,0.7924146985381841,0.46165451169162985,-0.661047495484352
1772697883911715600,2.566715576171875,0.9405179323375225,0.25286913791447874,-0.8860404922187328
1772697883921763300,2.576763427734375,1.0964467451959847,0.03282499575912952,-1.0222685793071984
1772697883931812600,2.5868125,1.2089859136611223,-0.1147077446758747,-1.1218389606058596
1772697883941861400,2.596861328125,1.3727099104404448,-0.29659605143815276,-1.088589017432928
1772697883951910400,2.606910400390625,1.231398236477375,-0.39145051013082266,-0.8968547316998243
1772697883961958400,2.61695849609375,1.0410732330203056,-0.3631619887575507,-0.6558978576362132
1772697883972007400,2.62700732421875,0.8653513399332762,-0.36376667665243145,-0.4431932645887136
1772697883982056400,2.637056396484375,0.704360567510128,-0.3873761002987623,-0.28057576774656773
1772697883992105500,2.64710546875,0.6334317588061094,-0.28797639939188957,-0.03134790894389152
1772697884002153700,2.65715380859375,0.6189326933324336,-0.0934194574534893,0.25766777036786076
1772697884012202500,2.667202392578125,0.6321189226418733,0.09286123904883861,0.357433966499567
1772697884022251500,2.67725146484375,0.5673164878636598,0.18298750017583368,0.44768882244229313
1772697884032299500,2.687299560546875,0.5355459695935249,0.3207724613174796,0.45497254970967765
1772697884042348500,2.6973486328125,0.564591446813941,0.35473142954260106,0.4598164826095104
1772697884052397600,2.7073974609375,0.6604688188135623,0.36945232107341286,0.47901861120760436
1772697884062446600,2.717446533203125,0.8580652745783328,0.3213929313033819,0.5197440048277377
1772697884072494600,2.72749462890625,0.962643254905939,0.2815934203565121,0.5947118597894907
1772697884082543600,2.737543701171875,1.0150701922357082,0.22780922319889066,0.6463321569114923
1772697884092592400,2.74759228515625,1.0261457130014895,0.1556269073024392,0.6854886937797069
1772697884102641700,2.7576416015625,1.0545914707630872,0.011483517044782638,0.7671779659509659
1772697884112689400,2.767689453125,1.0849994685083626,-0.06963993793725967,0.8562742995083331
1772697884122738700,2.77773876953125,1.0549287398934364,-0.1960153240531683,0.9485317274451255
1772697884132787500,2.787787353515625,0.9223772954910993,-0.21967764693051575,0.9845581495940685
1772697884142836500,2.79783642578125,0.7618558941453695,-0.21843729148060081,1.0397329243272542
1772697884152884500,2.807884521484375,0.6021013855189085,-0.22255232558399438,1.062182656544447
1772697884162933500,2.81793359375,0.5056716403335333,-0.22078648495525122,1.0442799201071262
1772697884172982500,2.827982421875,0.4501350465506315,-0.20541648186594247,1.0821949324816464
1772697884183031600,2.838031494140625,0.409730555447936,-0.1360007080733776,1.0763444528877735
1772697884193079600,2.84807958984375,0.35541970406770707,-0.05377250671982765,1.0447978065013885
1772697884203128600,2.858128662109375,0.3649140931218862,0.01059065985828638,0.8978338058650494
1772697884213177300,2.86817724609375,0.3437292662739754,0.09221972627490758,0.7142004090011119
1772697884223225600,2.8782255859375,0.4094219278901815,0.13698475067466498,0.5153858096182347
1772697884233274400,2.8882744140625,0.49327217748761176,0.13036591705679892,0.30606384474635123
1772697884243323600,2.89832373046875,0.6060404785335064,0.10406272428184747,0.11385784984827041
1772697884253372400,2.908372314453125,0.6445020188748836,0.07306435942798853,-0.07994564337432385
1772697884263420700,2.918420654296875,0.6361749200344086,0.05756985317617654,-0.24130466458797453
1772697884273469400,2.928469482421875,0.5567559308826923,-0.025080665242671964,-0.37104806583225725
1772697884283518500,2.9385185546875,0.4548492155909538,-0.12098083359599113,-0.44116555815339087
1772697884293567500,2.9485673828125,0.3691805183947086,-0.17852204519957304,-0.4166682457566261
1772697884303615500,2.958615478515625,0.21467793894708156,-0.20589608207643031,-0.3634282384783029
1772697884313664500,2.96866455078125,0.07091127304732799,-0.2653486802592873,-0.25554127973318097
1772697884323713500,2.978713623046875,-0.039382162317633626,-0.348780412183702,-0.09330489116311073
1772697884333762300,2.98876220703125,-0.14441314710974693,-0.299885448372364,0.034517186629772184
1772697884343810600,2.998810546875,-0.22775018648803233,-0.2701563728019595,0.16012860263586043
1772697884353859300,3.008859375,-0.312504106926918,-0.2468935706362128,0.20804770715236662
1772697884363908600,3.01890869140625,-0.30523849983811374,-0.16880846043676137,0.3805138133138418
1772697884373956400,3.028956298828125,-0.21685586750805377,-0.13923077603578568,0.46536067273318765
1772697884384005600,3.039005615234375,-0.10651157873868941,-0.1483946179613471,0.46074178076088423
1772697884394054400,3.049054443359375,-0.034032033461332316,-0.06756868462115526,0.45315644019842144
1772697884404103400,3.059103515625,-0.030938743621110914,-0.07200608254671097,0.41951486735939975
1772697884414151400,3.0691513671875,0.05683540142178535,-0.12144026780128478,0.36799744608998297
1772697884424200400,3.079200439453125,0.1384802499294281,-0.10866349607557058,0.26876959461867805
1772697884434249700,3.089249755859375,0.23827917928695677,-0.16015578290373086,0.1687175672829151
1772697884444298500,3.099298583984375,0.32707682215869427,-0.23229659774601458,0.0826052179723978
1772697884454346500,3.109346435546875,0.4010392994701862,-0.28464140975028274,0.012096095985174178
1772697884464395500,3.1193955078125,0.4526707025080919,-0.2833341265439987,-0.05912555818557739
1772697884474444500,3.129444580078125,0.4807563947856426,-0.31005788281857966,-0.11436579937040806
1772697884484493600,3.13949365234375,0.4380617469191551,-0.2937143585219979,-0.1476420460283756
1772697884494541300,3.149541259765625,0.34437399391829965,-0.2756213602095842,-0.22300912944078444
1772697884504590600,3.159590576171875,0.2674129193127155,-0.2330453702867031,-0.31101182254254817
1772697884514639600,3.1696396484375,0.18157880242168903,-0.24042671270966529,-0.34949791280329223
1772697884524688400,3.1796884765625,0.12273907544016838,-0.20897125173807143,-0.4308206897497177
1772697884534736600,3.189736572265625,0.061323360490798944,-0.1976221747279167,-0.4409323339194059
1772697884544785400,3.199785400390625,-0.09983692328035831,-0.2003846251785755,-0.43612522589862346
1772697884554834700,3.209834716796875,-0.19489187298119068,-0.1913768505975604,-0.3737368665248155
1772697884564882400,3.21988232421875,-0.2670119372963905,-0.17075637963414192,-0.30904081473052497
1772697884574931700,3.229931640625,-0.4055962321221828,-0.12481266684383154,-0.23836685757040976
1772697884584980500,3.23998046875,-0.5112368732452393,-0.11274667373597622,-0.18893734849095342
1772697884595029500,3.250029541015625,-0.5862801315307616,-0.13307663732022046,-0.15111702866256235
1772697884605077500,3.260077392578125,-0.605686842790246,-0.1350353701725602,-0.14610592250227927
1772697884615126500,3.27012646484375,-0.5603250215411186,-0.1687640367731452,-0.14741408249139784
1772697884625175600,3.280175537109375,-0.5707119755208492,-0.2131342166364193,-0.14862930350005626
1772697884635224600,3.290224609375,-0.5871586679309606,-0.26717501890361306,-0.15880290699005126
1772697884645272600,3.3002724609375,-0.5994038169980048,-0.30392098749876023,-0.23417174396812915
1772697884655321600,3.310321533203125,-0.5763707319349051,-0.32418548463135954,-0.3233849819034338
1772697884665370400,3.320370361328125,-0.5594774648010731,-0.37249884916245934,-0.4253296911180019
1772697884675419600,3.330419677734375,-0.5635387228906155,-0.42722149621397254,-0.46821313955485816
1772697884685467400,3.34046728515625,-0.5190361488193274,-0.4331614076569676,-0.4813321488469839
1772697884695516700,3.3505166015625,-0.48052609316110606,-0.4229728988587856,-0.4775152209073305
1772697884705565400,3.3605654296875,-0.49200318046510216,-0.4509478242382407,-0.46824937991201876
1772697884715613700,3.37061376953125,-0.5352887799620628,-0.46469782491028305,-0.4609750049948692
1772697884725662500,3.380662353515625,-0.6179284847259521,-0.46006958058774466,-0.4570587083339691
1772697884735711500,3.39071142578125,-0.6772913587987422,-0.49812137108445165,-0.4807961422741413
1772697884745760500,3.400760498046875,-0.7045844393938779,-0.5945312425255775,-0.4751058216780424
1772697884755808500,3.41080859375,-0.7941513130724429,-0.6596382132083177,-0.44961716015636916
1772697884765857500,3.420857421875,-0.8208131100267171,-0.666361091722548,-0.5240057539254427
1772697884775906600,3.430906494140625,-0.9190683170735835,-0.7010586033552885,-0.5856096849232911
1772697884785955300,3.440955322265625,-1.0169733955085276,-0.6984221173718571,-0.6475912170618772
1772697884796003600,3.451003662109375,-1.1259966648072004,-0.6737663995429873,-0.7346539989650249
1772697884806052400,3.46105224609375,-1.2239099265486002,-0.6251841549426317,-0.8120154710650443
1772697884816101600,3.4711015625,-1.2887217136770486,-0.5801712932616472,-0.8493874626040459
1772697884826150400,3.481150390625,-1.304388653886318,-0.5454115300476551,-0.82196403362751
1772697884836198700,3.49119873046875,-1.175209316265583,-0.5773083050459623,-0.8047551246732473
1772697884846247400,3.501247314453125,-1.0422913766384123,-0.6178998431533574,-0.8705319574415683
1772697884856296400,3.51129638671875,-0.898343508952856,-0.6303907836750149,-0.8763052801460027
1772697884866344400,3.521344482421875,-0.8352244972169399,-0.6915761969998478,-0.7926584441661835
1772697884876393500,3.5313935546875,-0.7905968354612588,-0.7314511112704872,-0.7353285372257232
1772697884886442500,3.5414423828125,-0.8399404198229312,-0.7299070966988801,-0.4182938011318445
1772697884896491500,3.551491455078125,-1.0950409700512886,-0.7200242928490043,0.32410978904664517
1772697884906539500,3.56153955078125,-1.4327175121575593,-0.39041795221269127,1.1665747589111328
1772697884916588500,3.571588623046875,-1.4328659807175397,-0.05464081398695707,1.645032229104638
1772697884926637300,3.58163720703125,-1.2612474312961102,0.039787820509076116,2.0724130075335503
1772697884936686600,3.5916865234375,-1.0078811575144528,-0.010134440523386001,2.4265777431041
1772697884946734300,3.601734375,-0.9867273103266954,0.047613984090089795,2.71515035482347
1772697884956783600,3.61178369140625,-1.1033914497673512,0.2973886631205678,2.955696894520521
1772697884966832600,3.62183251953125,-1.0531868646621703,0.5438371203377843,3.0229192499220368
1772697884976881400,3.63188134765625,-0.643151188787818,0.4538844622120261,2.7408196336090564
1772697884986929400,3.641929443359375,-0.08037234435379505,0.08089286109656095,2.334336681780219
1772697884996978200,3.651978271484375,0.2593050161808729,-0.29336218408346176,1.9615093313157557
1772697885007027500,3.66202734375,0.5480407095074653,-0.5963511514291167,1.520878610691428
1772697885017076200,3.672076171875,0.7923901486188173,-0.8017056739747523,0.9374053532749413
1772697885027124500,3.68212451171875,0.8778899189889431,-0.9513976382702588,0.3782224875062704
1772697885037173200,3.69217333984375,1.078400800895691,-1.1699690775245428,0.06012216800749302
1772697885047222300,3.70222216796875,1.256570087134838,-1.3092793485373257,-0.2562117263406515
1772697885057270300,3.712270263671875,1.427915664833784,-1.3094687336295843,-0.34295068311691285
1772697885067319300,3.7223193359375,1.524373467069864,-1.2610548313334584,-0.4283721275538206
1772697885077368300,3.732368408203125,1.396415780198574,-1.1840279980152846,-0.5316822799026966
1772697885087417300,3.742417236328125,1.1776590475052595,-1.047571947389841,-0.6271341199666262
1772697885097465300,3.75246533203125,0.7461737563669681,-0.7591463429257274,-0.6254261470049619
1772697885107514400,3.762514404296875,0.2926233484148979,-0.3491574288025498,-0.3703670978307724
1772697885117563100,3.772563232421875,0.11870412083566188,-0.14758096349090336,-0.11361994943916796
1772697885127612400,3.7826123046875,0.1484323196232319,-0.09302227482944726,0.032144612279534336
1772697885137660200,3.79266015625,0.2211333986967802,-0.03645312312841415,0.07687339632213115
1772697885147709400,3.80270947265625,0.2152946095407009,0.07455605929046868,0.15175298847854138
1772697885157758200,3.81275830078125,0.2622247030198574,0.13557371483296154,0.27262276291549203
1772697885167807200,3.82280712890625,0.2777531115412712,0.15730214703828097,0.4173661648929119
1772697885177855200,3.832855224609375,0.34715456454753874,0.19965397281646727,0.46771512690484524
1772697885187904300,3.842904296875,0.30444238102436066,0.16252134299129248,0.5114695129573344
1772697885197953300,3.852953369140625,0.36682431065738197,0.13555296430587768,0.46717795128822326
1772697885208002300,3.863002197265625,0.4164221620410681,0.11699322526454925,0.4176011426925659
1772697885218050300,3.87305029296875,0.48428807604312896,0.18579028263688085,0.46118601739704607
1772697885228099300,3.883099365234375,0.6008125147521496,0.2594628370910883,0.5062549931794404
1772697885238148000,3.893148193359375,0.7210474984169006,0.39065526809990403,0.6300175664484501
1772697885248196400,3.9031962890625,0.8229471994459628,0.5126040699452161,0.6031745677083731
1772697885258245000,3.9132451171875,0.9017460108727217,0.562812162181735,0.6583773994922637
1772697885268294400,3.92329443359375,0.9782307001382112,0.6842068372756243,0.7915764941483736
1772697885278343200,3.93334326171875,0.9327145651102066,0.79419398317039,0.7265314827859402
1772697885288391400,3.943391357421875,0.8665490252852439,0.8270967203408479,0.7696551697194576
1772697885298440200,3.953440185546875,0.787940767994523,0.8668874634593725,0.6748153240740299
1772697885308489200,3.9634892578125,0.6960229472756385,0.9018594081193209,0.6346592547744512
1772697885318538500,3.97353857421875,0.5952747543692588,0.9341320306926966,0.5308499207317828
1772697885328586200,3.983586181640625,0.5117003991037606,0.9848545021921395,0.4366267456799745
1772697885338635300,3.99363525390625,0.4942237791240215,1.0144862548679112,0.40273324390649795
1772697885348684300,4.003684326171875,0.5113923560678959,1.0060960276633502,0.3778682672411203
1772697885358733300,4.0137333984375,0.4650210655152797,0.9380366369158029,0.38984453623890875
1772697885368781300,4.02378125,0.38707273343801496,0.7346522453993558,0.277796366161108
1772697885378830000,4.033830078125,0.34889994691014287,0.46880409118533134,0.14139818320274353
1772697885388879400,4.04387939453125,0.4145809180885553,0.21448212411403655,0.0011965163081884384
1772697885398928400,4.053928466796875,0.5050643220901488,0.005512625941634178,-0.10577449663579463
1772697885408976400,4.063976318359375,0.6055144088327884,-0.06971943291425704,-0.18507658140957353
1772697885419025400,4.074025390625,0.6804331639558077,-0.15204466490149496,-0.2927098576545715
1772697885429074200,4.08407421875,0.7184732640147209,-0.17873627247214316,-0.3405897992044687
1772697885439122200,4.0941220703125,0.8093886296927928,-0.14461363811790942,-0.3105903822600841
1772697885449171200,4.104171142578125,0.853342922231555,-0.07360825704634189,-0.24447335775196552
1772697885459220500,4.114220458984375,0.8347428511798382,0.02898819407522678,-0.22889058869481085
1772697885469269200,4.124269287109375,0.7766863835304975,0.14431494743227957,-0.18014438570439814
1772697885479317500,4.1343173828125,0.6704688193023205,0.25142215397655965,-0.1147644432991743
1772697885489366300,4.1443662109375,0.5186673155069351,0.3462006248235702,-0.07060498357713223
1772697885499415300,4.154415283203125,0.4399100051343441,0.3996422921538353,0.03349953401982784
1772697885509464300,4.16446435546875,0.3994529070615768,0.35031332083940503,0.05150689987540245
1772697885519512300,4.17451220703125,0.3541629820048809,0.3271972336679697,0.08695113822221756
1772697885529561300,4.184561279296875,0.3378314404070377,0.36739188141226764,0.12010638884902
1772697885539610400,4.1946103515625,0.29702772085368634,0.33773148716390133,0.24044074123501777
1772697885549659100,4.2046591796875,0.1933130793571472,0.3326175051510334,0.30856033773720265
1772697885559707400,4.214707275390625,0.08516191671788692,0.32749417078793047,0.34929859083890913
1772697885569756200,4.224756103515625,0.06209551390707493,0.3023433629184961,0.3012503069847822
1772697885579805400,4.234805419921875,0.00913198548257351,0.2428402035921812,0.26387363927066326
1772697885589853200,4.244853271484375,0.013575520887970923,0.20483868197798727,0.23388532824218272
1772697885599902500,4.25490234375,0.03525426873266697,0.18082769179344177,0.20082184755206106
1772697885609951200,4.264951171875,0.07888356710076332,0.15502981819212436,0.1654109269529581
1772697885620000300,4.275000244140625,0.11544658034443854,0.11231295849382876,0.12775368873178958
1772697885630048300,4.28504833984375,0.07174655482769011,0.03931961847543716,0.14613807120621203
1772697885640097300,4.29509716796875,0.023364508974552153,0.017432780838012696,0.16640286059975623
1772697885650146300,4.305146240234375,-0.023141806134581566,-0.037514030358195304,0.14413842182159423
1772697885660195300,4.3151953125,-0.09395020332932472,-0.09868541515767573,0.12751578832268715
1772697885670243300,4.325243408203125,-0.22307810302376746,-0.16836393153965473,0.07000234150886535
1772697885680292400,4.335292236328125,-0.36853754431605334,-0.14153963750004767,-0.05977028582990169
1772697885690341000,4.345341064453125,-0.5023638309597969,-0.17704525064527987,-0.18198095348179338
1772697885700390400,4.355390380859375,-0.5617927560061216,-0.18105214819908141,-0.2637725169837475
1772697885710438100,4.365438232421875,-0.5600608176469802,-0.16099954025149343,-0.3438479242175817
1772697885720487400,4.3754873046875,-0.5497936906546353,-0.15749182439148426,-0.347083252876997
1772697885730536200,4.3855361328125,-0.5036041864097118,-0.1497463248312473,-0.3364034534305334
1772697885740585200,4.395585205078125,-0.441639020884037,-0.07434241653978824,-0.34394320128560063
1772697885750633200,4.40563330078125,-0.3966647376477718,-0.1053928038418293,-0.36227439226806163
1772697885760682200,4.41568212890625,-0.3210872263550758,-0.13063070547282696,-0.38360944124162194
1772697885770731300,4.425731201171875,-0.27575872285366054,-0.15156652599573134,-0.44075989996194836
1772697885780780300,4.4357802734375,-0.24037644382715223,-0.179044315508008,-0.4930763626545667
1772697885790828300,4.445828369140625,-0.23153555024564265,-0.19419103123545645,-0.5000380183607339
1772697885800877300,4.455877197265625,-0.24020225630402564,-0.2360509818434715,-0.47542906228303905
1772697885810926000,4.465926025390625,-0.2634434311598539,-0.2658101602911949,-0.4383499162107706
1772697885820974300,4.475974365234375,-0.30118191792368887,-0.2687076352983713,-0.37018823413252827
1772697885831023000,4.486023193359375,-0.2443336570203304,-0.2740373058885336,-0.3095370738148689
1772697885841072400,4.496072265625,-0.220658182400465,-0.30103461840748785,-0.27625147480666634
1772697885851121400,4.506121337890625,-0.23441899672746658,-0.3606879998594522,-0.23040742299854755
1772697885861169400,4.51616943359375,-0.2880085480958223,-0.4334036919802427,-0.2123018574655056
1772697885871218200,4.52621826171875,-0.3429214570224285,-0.4933224463701248,-0.16947276956439017
1772697885881267200,4.53626708984375,-0.43375849676728245,-0.5445177960783243,-0.15270459011495113
1772697885891316500,4.54631640625,-0.49110243223309513,-0.5858844102114439,-0.17068565248548984
1772697885901364200,4.5563642578125,-0.5018038589894771,-0.6460252829194069,-0.19187223289906977
1772697885911413500,4.56641357421875,-0.4480547331452369,-0.6990811658024787,-0.20893033520579338
1772697885921462300,4.576462158203125,-0.41967619540095324,-0.7238800914943218,-0.21081308021247386
1772697885931511300,4.58651123046875,-0.3389268344283104,-0.7121382157742977,-0.28214696258604527
1772697885941559300,4.596559326171875,-0.27068039667606353,-0.7221130818217992,-0.25817688893377777
1772697885951608300,4.6066083984375,-0.17339841857552526,-0.6354004285305738,-0.35959845105707644
1772697885961657300,4.6166572265625,-0.19752046791911124,-0.5663496886581182,-0.35329672056436534
1772697885971705000,4.626705078125,-0.20918694031536578,-0.5178799645215273,-0.3754898476719856
1772697885981754400,4.63675439453125,-0.14471943657994268,-0.47261809651553627,-0.4135708642631769
1772697885991803400,4.646803466796875,-0.13110942890048027,-0.5569108291834592,-0.4164589869201183
1772697886001852200,4.65685205078125,-0.19043197096288203,-0.64139411598742,-0.39603929922580716
1772697886011900200,4.666900146484375,-0.15342179847359658,-0.6092383977919816,-0.447480148127675
1772697886021949200,4.67694921875,-0.13363222537636757,-0.5622130272448063,-0.5069184255242347
1772697886031998200,4.686998291015625,-0.07692600329220295,-0.5640127701431512,-0.5641343506962061
1772697886042047200,4.697047119140625,-0.08562310448884963,-0.574677372020483,-0.5671487300813198
1772697886052095200,4.70709521484375,-0.12575871552228926,-0.5076391410142183,-0.6119833125859498
1772697886062144300,4.717144287109375,-0.17174012997448443,-0.4175014817103743,-0.6003747078567743
1772697886072193300,4.727193359375,-0.25003099187910555,-0.34472850644439457,-0.5773246716588736
1772697886082242300,4.7372421875,-0.33162615602612494,-0.2870315197572112,-0.6145464410722256
1772697886092290000,4.7472900390625,-0.4661240583211183,-0.17029431508034468,-0.7462824774384498
1772697886102339300,4.75733935546875,-0.6604916151672602,-0.2042035989448428,-0.8702449571937322
1772697886112388400,4.767388427734375,-0.720630734309554,-0.11726941185742616,-0.9650573303103447
1772697886122437000,4.77743701171875,-0.9053034110933542,-0.08665537014603614,-0.9929378554046153
1772697886132485400,4.7874853515625,-1.032785881668329,-0.10870587391257286,-0.995998996540904
1772697886142534100,4.7975341796875,-1.289908877635002,0.021112346133589744,-1.0826064358919858
1772697886152583400,4.80758349609375,-1.5873481018990276,0.5906754438802599,-0.8727262526154518
1772697886162631200,4.817631103515625,-1.9652473488003015,1.405818983837962,0.13312602941989898
1772697886172680400,4.827680419921875,-2.0577888543754814,1.6360416979193686,1.187738542971015
1772697886182729200,4.837729248046875,-1.5618413201987742,1.7937600245431065,1.554859206226468
1772697886192778200,4.8477783203125,-1.0965998899310827,2.2009674912542105,1.730339691773057
1772697886202826200,4.857826171875,-0.9358353274792433,2.6336209493890403,1.8743004189401864
1772697886212875300,4.867875244140625,-0.7739706948310137,2.8303751091107725,1.8461796553492544
1772697886222924300,4.87792431640625,-0.3915414032846689,2.4942633321031926,1.728942684456706
1772697886232973300,4.887973388671875,-0.14846972902417183,2.1843553791493178,1.406385970070958
1772697886243021300,4.898021240234375,0.20637305193841457,2.1908649071738124,1.045233275309205
1772697886253070300,4.9080703125,0.6816226660013198,1.9148168459847568,0.3742033149927854
1772697886263119000,4.918119140625,0.8631693197190761,1.3839265932425855,-0.5221849682390689
1772697886273168400,4.92816845703125,0.9942565367877483,0.9715101597115396,-1.184366436189413
1772697886283216100,4.938216064453125,1.3175713760644197,0.593045680142939,-1.763620614606142
1772697886293265400,4.948265380859375,1.6263210988938808,0.20301585046499968,-2.139223859524727
1772697886303314200,4.958314208984375,1.92410811368227,-0.12463701801598072,-2.3730665176689625
1772697886313363200,4.96836328125,2.150928325843811,-0.34434564460664985,-2.4195383459866044
1772697886323411200,4.9784111328125,2.172565572634339,-0.46771074299067256,-2.2510481577187775
1772697886333460200,4.988460205078125,1.804296323865652,-0.3920341552376747,-1.7567770323216914
1772697886343509200,4.99850927734375,1.4461281978726386,-0.2741387204363942,-1.340142688834667
1772697886353557200,5.00855712890625,1.1666513312786817,-0.087203943939507,-0.9702794488728046
1772697886363606300,5.018606201171875,0.8727589858412742,0.2087982332587242,-0.5684253258883952
1772697886373655300,5.0286552734375,0.642056379288435,0.420978510171175,-0.2157470294833183
1772697886383704000,5.0387041015625,0.3808937525421381,0.5547349464491009,0.15889467692673206
1772697886393752300,5.04875244140625,-0.008493103057146073,0.5636486130058765,0.3953974941909313
1772697886403801000,5.058801025390625,-0.3143909435868263,0.5298571103021502,0.5314531473219395
1772697886413850400,5.068850341796875,-0.4903852238744497,0.5931441720813513,0.5937205106645822
1772697886423899100,5.078899169921875,-0.5609720872730016,0.6018544250205159,0.6799281370431184
1772697886433947400,5.088947509765625,-0.40111879444718357,0.5248272994413972,0.7251485039949417
1772697886443996200,5.09899609375,-0.188484928548336,0.4624553066805005,0.7874544457823037
1772697886454045200,5.109045166015625,0.05983049158453941,0.5304594601094722,0.8866746984690427
1772697886464094200,5.11909423828125,0.33754151754975315,0.529793981938064,0.9184200822979212
1772697886474142200,5.12914208984375,0.5647907687783241,0.4954720256194472,0.8785784857749939
1772697886484191200,5.139191162109375,0.7694909190684557,0.41847091126441954,0.8881628912001848
1772697886494240300,5.149240234375,0.9266752849459647,0.2613233702659607,0.8829875343888998
1772697886504289300,5.159289306640625,0.9343471347481012,0.1315226858764887,0.8165022610902786
1772697886514337300,5.169337158203125,0.8827584018081426,0.0767772424712777,0.7755594253271818
1772697886524386000,5.179385986328125,0.7037818908393383,-0.05574789844602346,0.802222975847125
1772697886534435300,5.189435302734375,0.5218441919773816,-0.07098170793503522,0.8750538187801837
1772697886544483000,5.199483154296875,0.3612047172099352,-0.06814560772627591,0.8933265575736761
1772697886554532400,5.209532470703125,0.3409498646885156,-0.05895867718607187,1.0328758980393409
1772697886564581000,5.2195810546875,0.2293850942134857,0.042696109171211714,1.052642674782872
1772697886574630100,5.229630126953125,0.19531798943877218,0.15105799195170402,1.0276233843386173
1772697886584678100,5.23967822265625,0.27014322105944155,0.3326870632559061,0.9632844754189253
1772697886594727200,5.24972705078125,0.4184311637759208,0.4009676955386996,0.805785052242875
1772697886604776400,5.2597763671875,0.5612210935980081,0.4530412893861532,0.617542700278759
1772697886614825200,5.2698251953125,0.7491781988799572,0.4411927384212613,0.42470016104280944
1772697886624873200,5.279873291015625,0.9154004422158002,0.49336599325090646,0.25210429102182386
1772697886634922200,5.289922119140625,0.9835971956074238,0.5294488217622041,0.08430676119327545
1772697886644971300,5.29997119140625,0.9556634790211915,0.5041612357705831,-0.05650631559789181
1772697886655020300,5.310020263671875,0.9266168327569961,0.4762503155380487,-0.16689853516221045
1772697886665068300,5.320068359375,0.8955237753570079,0.44380087509304283,-0.33732173731923104
1772697886675117300,5.330117431640625,0.8786386915296316,0.3988683851718902,-0.3980997388869524
1772697886685166300,5.340166259765625,0.8683353241801262,0.29093787954598666,-0.4154062629967928
1772697886695214300,5.35021435546875,0.8107657632648945,0.180310682182014,-0.4574380630403757
1772697886705263400,5.360263427734375,0.7470610605955124,0.08607932382375001,-0.499422516810894
1772697886715312000,5.37031201171875,0.6049883391320705,-0.02024637695401907,-0.4778156651586294
1772697886725360000,5.380360107421875,0.4923077163696289,-0.10659341180324554,-0.42240941975712776
1772697886735409200,5.3904091796875,0.2852244703352451,-0.09319003261178731,-0.3190098355591297
1772697886745458400,5.40045849609375,0.1050350764453411,-0.0512169770181179,-0.19174305356144905
1772697886755507200,5.410507080078125,-0.06523030480146408,-0.06816138981729745,-0.04768003506362438
1772697886765555500,5.420555419921875,-0.18576281010806558,-0.01919716016203165,0.043972412717342375
1772697886775604200,5.430604248046875,-0.2126104850232601,-0.030509996815025805,0.1560258434921503
1772697886785653200,5.4406533203125,-0.2810714423090219,-0.07679536264985799,0.25568273403048514
1772697886795702300,5.450702392578125,-0.26068507236242294,-0.1415554195910692,0.28393735313415525
1772697886805750300,5.460750244140625,-0.32886312105357646,-0.2068289790123701,0.2966203090965748
1772697886815799300,5.47079931640625,-0.3498451188057661,-0.2542959558472037,0.2305833640873432
1772697886825848300,5.480848388671875,-0.3844757026821375,-0.2671753111645579,0.18982991341650485
1772697886835897000,5.49089697265625,-0.41073710214197634,-0.24524288081973789,0.11227496457099914
1772697886845945300,5.5009453125,-0.39210955856144425,-0.23435206897109745,0.13106558975875376
1772697886855994000,5.510994140625,-0.3497603631317615,-0.22550474564880132,0.06188567054867744
1772697886866043400,5.52104345703125,-0.2684206350505352,-0.2233215563908219,-0.06341945598721503
1772697886876092200,5.531092041015625,-0.1414472830414772,-0.3198497935146093,-0.18669103086888789
1772697886886140400,5.541140380859375,-0.08115735725164414,-0.4215802754566073,-0.3397726376026869
1772697886896189200,5.551189208984375,-0.04974515089988708,-0.5053603824272751,-0.4786410100668668
1772697886906238200,5.56123828125,-0.07651566892564296,-0.5768558851033448,-0.627570757818222
1772697886916287200,5.571287353515625,-0.08527940561771392,-0.6368348452478647,-0.7940776633143425
1772697886926335200,5.581335205078125,-0.09982757093012333,-0.6570593026310205,-0.8536345986545085
1772697886936384300,5.59138427734375,-0.14589900175333023,-0.7388412215217948,-0.816672941482067
1772697886946433300,5.601433349609375,-0.17802257124483584,-0.7718392357602715,-0.7417290519177914
1772697886956481300,5.611481201171875,-0.1961924341857433,-0.7655529950976371,-0.6405570806413888
1772697886966530300,5.6215302734375,-0.31732524347305296,-0.7654504115059971,-0.5691559782505035
1772697886976579000,5.6315791015625,-0.4313695558041334,-0.7085182717114686,-0.5338379966318607
1772697886986628400,5.64162841796875,-0.4931003280520439,-0.6326674964353441,-0.46382571825087066
1772697886996676000,5.651676025390625,-0.4704512738704681,-0.589933101080358,-0.3207388513088226
1772697887006724600,5.661724609375,-0.45915948000550266,-0.523669361577928,-0.22170038492977617
1772697887016773400,5.6717734375,-0.4100806840598583,-0.4641363916352391,-0.15876491306722162
1772697887026822700,5.68182275390625,-0.42692309778928755,-0.4040811513841152,-0.14005436737835406
1772697887036870400,5.691870361328125,-0.48987844339609143,-0.3296963570073247,-0.13656535621881485
1772697887046919700,5.701919677734375,-0.49060032792985436,-0.3306836144790053,-0.0769014533728361
1772697887056968400,5.711968505859375,-0.5051578455924988,-0.2519303957596421,-0.07031096906661986
1772697887067017500,5.722017578125,-0.5222177014648914,-0.12921148632466792,-0.04539630804061889
1772697887077065500,5.7320654296875,-0.5147989496409893,-0.09203647866249084,-0.041648353683948515
1772697887087114500,5.742114501953125,-0.41029345002770423,-0.09668839612156152,-0.09870353533625602
1772697887097163800,5.752163818359375,-0.41211832736730575,-0.13529986632764338,-0.21432956390082836
1772697887107212500,5.762212646484375,-0.3928267669200897,-0.1697963024303317,-0.3090320469021797
1772697887117260500,5.772260498046875,-0.42647944567501544,-0.16037001017630098,-0.43150574940443037
1772697887127309600,5.7823095703125,-0.47836979191005224,-0.13656477169692516,-0.5098480492353439
1772697887137358600,5.792358642578125,-0.6043184770464897,-0.20895926903933285,-0.5959726735055446
1772697887147407600,5.80240771484375,-0.7322843472242355,-0.2621712192669511,-0.7220306642353534
1772697887157455600,5.81245556640625,-0.8414630993455648,-0.27852847982794043,-0.8078156812876462
1772697887167504600,5.822504638671875,-0.997388405072689,-0.36697657860964533,-0.8699158713698386
1772697887177553700,5.8325537109375,-1.169938682386279,-0.41019788069874047,-0.8733774100005626
1772697887187602400,5.8426025390625,-1.2728612967222928,-0.42829555518627166,-0.8162854034692049
1772697887197650700,5.852650634765625,-1.3498738092541693,-0.5015273801356553,-0.679404989951849
1772697887207699500,5.862699462890625,-1.3801871144533155,-0.5533642426177859,-0.6386667368501424
1772697887217748700,5.872748779296875,-1.3398890063345432,-0.6265045898914336,-0.5216507152318954
1772697887227797500,5.882797607421875,-1.41350661573112,-0.7129092001467943,-0.4299485830903053
1772697887237845800,5.892845703125,-1.5562421850174664,-0.7401040810644626,-0.08701660467386245
1772697887247894500,5.90289453125,-1.7727356489539146,-0.7529273222804069,0.45161096432209014
1772697887257943600,5.912943603515625,-1.7557272310078142,-0.5665311827048659,0.8670236570596694
1772697887267992600,5.92299267578125,-1.5300000747799873,-0.3778311501011252,1.2036270169764756
1772697887278040600,5.93304052734375,-1.0854174016594886,-0.3855491771325469,1.3098352288544177
1772697887288089600,5.943089599609375,-0.8243558972001075,-0.5301233600229025,1.4176818555891513
1772697887298138600,5.953138671875,-0.9062041593253612,-0.6172343649819493,1.4180828376054764
1772697887308186600,5.9631865234375,-1.0542425111949443,-0.3420832526326179,1.3985346720486878
1772697887318235600,5.973235595703125,-0.9015881899625062,-0.027233459362387656,1.4373124387323855
1772697887328284400,5.983284423828125,-0.6936801835417747,0.014933949759602546,1.4530992059290408
1772697887338333700,5.993333740234375,-0.4219534926831722,-0.019842180067300794,1.463462779033184
1772697887348381400,6.00338134765625,-0.03957154740989208,-0.04012918129265308,1.4351543839156626
1772697887358430700,6.0134306640625,0.3660042264461517,0.025290508601069447,1.2886083164304494
1772697887368479500,6.0234794921875,0.610382891651988,0.07802958061993122,1.1666279504030943
1772697887378528500,6.033528564453125,0.7662485761463642,0.011617372557520865,1.0070885458320378
1772697887388576500,6.043576416015625,0.7799819179445505,-0.13436959974020718,0.7548544909507036
1772697887398625500,6.05362548828125,0.7163771685183048,-0.3560597555369138,0.4250847764462232
1772697887408674600,6.063674560546875,0.6770739166557789,-0.5960042376875877,0.20838965245783328
1772697887418723600,6.0737236328125,0.6352180577009916,-0.7676192799776792,0.00008592471778392792
1772697887428771600,6.083771484375,0.5620213040649891,-0.8301429561689495,-0.12202245160341262
1772697887438820600,6.093820556640625,0.4599631976038217,-0.8668222892686724,-0.31746552872657774
1772697887448869400,6.103869384765625,0.47637189609110353,-0.9191293996110558,-0.41909225803315636
1772697887458918700,6.113918701171875,0.4476438142567873,-0.8417898470818996,-0.5508943453729153
1772697887468966400,6.12396630859375,0.7160533433914185,-0.800369164673984,-0.20490940912663935
1772697887479015700,6.134015625,0.5581295573234558,-0.5302811809331178,-0.20987375353574753
1772697887489064400,6.144064453125,0.4824678748786449,-0.22403613440096376,-0.1875578768312931
1772697887499113500,6.154113525390625,0.44580958456695075,0.035925299862027166,-0.01006955859363079
1772697887509161500,6.164161376953125,0.665398676431179,0.1670034568414092,0.16326806970536709
1772697887519210500,6.17421044921875,0.7282622521013021,0.30924101347774263,0.3661357438713312
1772697887529259800,6.184259765625,0.7450181565910577,0.4673734738603234,0.46684068215787405
1772697887539308500,6.19430859375,0.6235071616411209,0.6072556995421647,0.41247897737324235
1772697887549356500,6.2043564453125,0.6030313598453998,0.5957970246776938,0.367510539355874
1772697887559405600,6.214405517578125,0.5719026466101408,0.5291013234987855,0.43352059635818
1772697887569454600,6.22445458984375,0.6207073017895222,0.4076853133559227,0.39912499028146264
1772697887579503600,6.234503662109375,0.6659083795189857,0.3357765537038445,0.3346387818455696
1772697887589551400,6.24455126953125,0.7517348976254463,0.2986851326718926,0.30265549760758875
1772697887599600600,6.2546005859375,0.9040221391111611,0.33967677601277824,0.3408341293543577
1772697887609649700,6.264649658203125,0.9144640381485223,0.39759237388670443,0.39347733978331084
1772697887619697700,6.27469775390625,0.9498018935114144,0.4566004431724548,0.4785732055276632
1772697887629746700,6.28474658203125,0.9282359583914279,0.658904638236761,0.5892606086462736
1772697887639795500,6.29479541015625,0.9279986425042152,0.8211568088978528,0.6532219164252281
1772697887649844700,6.3048447265625,0.9783084415495396,0.9222396405860781,0.6481114415436983
1772697887659892500,6.314892578125,0.9557844750523566,0.9995277551889419,0.5959101296633481
1772697887669941800,6.324941650390625,0.9222212281465529,0.9896797303915024,0.5999842472344636
1772697887679990500,6.334990478515625,0.8665706525951623,0.8946677430495619,0.5098807824611663
1772697887690039600,6.34503955078125,0.8206359998941422,0.8509539812684058,0.40412732861340045
1772697887700087600,6.355087646484375,0.7016641680330038,0.7831409664973616,0.32152503325045106
1772697887710136600,6.365136474609375,0.6069453184187412,0.7108771097972989,0.3422767293781042
1772697887720185600,6.375185546875,0.499403812110424,0.6992468777582049,0.3883995981276035
1772697887730234600,6.385234619140625,0.3996411231100559,0.6781304399713873,0.4008434846371412
1772697887740282600,6.39528271484375,0.3824965115636587,0.6524710980579257,0.279536487826705
1772697887750331600,6.40533154296875,0.474683212351799,0.5515189070120453,0.12410510309636592
1772697887760380400,6.41538037109375,0.5434866994649171,0.3912742767810821,-0.06600421178340911
1772697887770429700,6.4254296875,0.5097814137399196,0.3079328534886241,-0.26735271355807777
1772697887780477400,6.4354775390625,0.4200876988112926,0.20771365289241076,-0.3454962759464979
1772697887790526700,6.445526611328125,0.3302121975749731,0.1157405948549509,-0.4113490965604782
1772697887800575500,6.455575439453125,0.2738222018331289,0.007335165193676948,-0.431515686276555
1772697887810624500,6.46562451171875,0.23792320545613765,-0.09263444455564021,-0.36847032429873944
1772697887820672500,6.475672607421875,0.20544073952436445,-0.11452128219306468,-0.2967524110436439
1772697887830721500,6.485721435546875,0.162874686473608,-0.061686933106184005,-0.22217735479176043
1772697887840770600,6.4957705078125,0.04240881666243076,0.017146365112066266,-0.139983640229702
1772697887850818600,6.505818603515625,0.030315643286705014,0.059116205835342404,-0.12419161233603954
1772697887860867600,6.51586767578125,0.03844166659712791,0.11114625280201434,-0.0673772537022829
1772697887870916600,6.52591650390625,0.06831482681334018,0.11647124721705913,0.022405893075466154
1772697887880965400,6.53596533203125,0.08242460070848465,0.19091946221888065,0.020903087297081947
1772697887891013600,6.546013671875,0.06656243018805981,0.22719430617094039,0.11994973698258399
1772697887901062400,6.5560625,0.02016834328174591,0.22624738070964812,0.23697335738539693
1772697887911111700,6.566111572265625,0.08211363506317138,0.2215127534031868,0.3315811478406191
1772697887921160400,6.576160400390625,0.16124737753272056,0.28913258368968964,0.4019640130996704
1772697887931208700,6.586208740234375,0.24861001916527747,0.3368254782348871,0.4041343428760767
1772697887941257500,6.596257568359375,0.21941841147243976,0.34262335085868834,0.40441608242690563
1772697887951306500,6.606306396484375,0.19910686032772063,0.3131593559652567,0.3220943575710058
1772697887961355500,6.61635546875,0.2068845085918903,0.34189211397469044,0.18892331996560097
1772697887971403500,6.626403564453125,0.2842477342575788,0.28553134432733057,0.029833412727713584
1772697887981452500,6.63645263671875,0.39635786365568637,0.20024843157827854,-0.06575520545840263
1772697887991501600,6.64650146484375,0.43721360565721984,0.1785334433764219,-0.1332329969257116
1772697888001551600,6.656551513671875,0.41533728941380976,0.16227087536156176,-0.154754508382082
1772697888011599600,6.666599609375,0.3710246849566698,0.10394728120863438,-0.15943477515280247
1772697888021648600,6.676648681640625,0.2884171288967132,0.021560674422979355,-0.16876374451220036
1772697888031697700,6.68669775390625,0.1677203729391098,-0.06598433803915978,-0.15513094047904014
1772697888041746700,6.69674658203125,-0.010261866295337676,-0.16407587895691395,-0.12265139715671539
1772697888051794400,6.70679443359375,-0.19718378331065176,-0.20378888066411016,-0.15337445220053195
1772697888061843700,6.71684375,-0.35552725609540936,-0.26184827092289925,-0.09443184936642646
1772697888071892700,6.726892822265625,-0.5157862071126699,-0.37343934488296504,-0.118629302033782
1772697888081941500,6.73694140625,-0.6112485685706138,-0.38387481417953967,-0.11503858406543731
1772697888091989800,6.74698974609375,-0.6735965959340333,-0.39479368307888507,-0.09176584502756595
1772697888102038500,6.75703857421875,-0.6919605201423168,-0.3796943136245012,-0.08719371480643749
1772697888112087800,6.767087890625,-0.6603747107893229,-0.29150457351803777,-0.09839023160338402
1772697888122135600,6.777135498046875,-0.5551221922010183,-0.23221651824712752,-0.09456687392294406
1772697888132184800,6.787184814453125,-0.4310860626876354,-0.14357260463237762,-0.06988134547770022
1772697888142233600,6.797233642578125,-0.33817513927817344,-0.08708265564739703,-0.025269465813040733
1772697888152282600,6.80728271484375,-0.21371990756988524,0.017506430596113204,-0.010593874728679656
1772697888162330600,6.81733056640625,-0.08256430144011974,0.05589724378883838,-0.03237316033840179
1772697888172379600,6.827379638671875,0.10738953061699867,0.06804068604707718,-0.011697452056407927
1772697888182428700,6.8374287109375,0.17041735693812368,0.1344932261198759,-0.011527940708398817
1772697888192477700,6.847477783203125,0.15850596987009047,0.16679098313450813,0.010135025045275688
1772697888202525700,6.857525634765625,0.12697861270606517,0.18340046489089726,0.02551788761615753
1772697888212574700,6.86757470703125,0.13569734121263027,0.17207535327821968,0.11544482677876948
1772697888222623500,6.87762353515625,0.22996260184049605,0.11472469581067561,0.18569091391563414
1772697888232672800,6.8876728515625,0.2290752976119518,0.041430911540985105,0.1700292344033718
1772697888242720500,6.897720458984375,0.17613690362870693,0.011241232721507548,0.151956986618042
1772697888252769800,6.907769775390625,0.05635667799413204,-0.013948445853590964,0.027211247530579564
1772697888262818600,6.917818603515625,-0.03003624182343483,-0.05249065021574497,-0.11344926904737948
1772697888272867600,6.92786767578125,-0.07009820309877396,-0.0940291137844324,-0.14297989943623543
1772697888282915600,6.93791552734375,-0.14943126753270625,-0.15286211876422165,-0.16370996825397013
1772697888292964600,6.947964599609375,-0.16957389185130595,-0.15749650056660175,-0.26182839717864986
1772697888303013600,6.958013671875,-0.20118951182067393,-0.12941402315944434,-0.3290039908289909
1772697888313062700,6.968062744140625,-0.3030418665766716,-0.10346855778098106,-0.43135728084444996
1772697888323110700,6.978110595703125,-0.23509645759761333,-0.08706395094692707,-0.5531301416009664
1772697888333159700,6.98815966796875,0.5304419244527816,-0.135308049634099,-0.4504056801855564
1772697888343208400,6.99820849609375,-0.15657997024357317,-0.162136143065989,-0.27041443921625613
1772697888353256700,7.008256591796875,-0.49837388454079623,-0.3160936558514833,-0.3272182764559984
1772697888363305500,7.018305419921875,-0.47092824373245235,-0.15403993037194014,-0.37535248502790924
1772697888373354800,7.028354736328125,-0.6390764866948128,-0.008457739482820033,-0.1158148291349411
1772697888383403500,7.038403564453125,-0.6019827275753021,-0.10531301660388707,-0.24598668492436407
1772697888393451800,7.04845166015625,-0.5792775592923164,-0.15002251142412423,-0.4536170434474945
1772697888403500500,7.05850048828125,-0.5217448232561349,-0.19463585239350795,-0.49784547675251956
1772697888413549600,7.068549560546875,-0.4260895695745945,-0.048989364096522325,-0.4270551997363567
1772697888423598600,7.0785986328125,-0.500908955976367,0.17386808191388844,-0.02230535531044006
1772697888433646600,7.088646484375,-0.5041653274238109,0.4300377226784825,0.5652841052532196
1772697888443695600,7.098695556640625,-0.3860942437946796,0.5979229307904839,0.7661416086405515
1772697888453744600,7.10874462890625,-0.20466858610808847,0.7636874934867024,0.7645271591812371
1772697888463793700,7.118793701171875,0.043184477210044855,0.9892211729690432,0.7744628622621298
