time,seconds_elapsed,z,y,x
1772697881404556800,0.059556884765625,-0.05084746703505516,0.08376041054725647,0.08603155612945557
1772697881414604500,0.0696044921875,-0.058933090418577194,0.14127349853515625,0.12215520441532135
1772697881424653600,0.079653564453125,-0.05928755924105644,0.18580901622772217,0.13691630959510803
1772697881434702600,0.08970263671875,-0.048831988126039505,0.20546554028987885,0.1446024626493454
1772697881444750600,0.09975048828125,-0.05377667769789696,0.1935763955116272,0.15144971013069153
1772697881454799600,0.109799560546875,-0.057909104973077774,0.15377971529960632,0.16048873960971832
1772697881464848600,0.1198486328125,-0.05904094874858856,0.10881862789392471,0.1677975207567215
1772697881474897700,0.129897705078125,-0.06230119243264198,0.08362165838479996,0.16948570311069489
1772697881484945400,0.1399453125,-0.06535663455724716,0.0750926211476326,0.17447327077388763
1772697881494994700,0.14999462890625,-0.06967708468437195,0.08147089183330536,0.17291371524333954
1772697881505043700,0.160043701171875,-0.06873326003551483,0.09805040061473846,0.17409802973270416
1772697881515092700,0.1700927734375,-0.06811034679412842,0.11274758726358414,0.17329029738903046
1772697881525140700,0.180140625,-0.058160774409770966,0.12435363978147507,0.17135471105575562
1772697881535189500,0.190189453125,-0.05109567567706108,0.12679949402809143,0.16711574792861938
1772697881545238800,0.20023876953125,-0.044931523501873016,0.12338904291391373,0.15565083920955658
1772697881555286500,0.21028662109375,-0.034386202692985535,0.10768864303827286,0.14339710772037506
1772697881565335800,0.220335693359375,-0.0389346145093441,0.08587149530649185,0.13889077305793762
1772697881575384600,0.230384521484375,-0.04092666134238243,0.06719634681940079,0.13815388083457947
1772697881585433600,0.24043359375,-0.036918070167303085,0.043001528829336166,0.14016935229301453
1772697881595481600,0.250481689453125,-0.02725159376859665,0.023857662454247475,0.1416945457458496
1772697881605530600,0.260530517578125,-0.019180085510015488,0.01104652602225542,0.13379454612731934
1772697881615579600,0.27057958984375,-0.00031878036679700017,0.0002620550512801856,0.1289159059524536
1772697881625628700,0.280628662109375,0.015391739085316658,-0.007749265991151333,0.11562300473451614
1772697881635676700,0.2906767578125,0.0267099067568779,-0.004750546533614397,0.10141530632972717
1772697881645725700,0.3007255859375,0.035540949553251266,0.007933557033538818,0.09560775011777878
1772697881655774700,0.310774658203125,0.036017123609781265,0.016342487186193466,0.08862867206335068
1772697881665823700,0.32082373046875,0.031504131853580475,0.01429158728569746,0.0797576829791069
1772697881675871500,0.33087158203125,0.02516048029065132,0.003825897118076682,0.06744269281625748
1772697881685920800,0.340920654296875,0.021644042804837227,-0.02171728014945984,0.053037386387586594
1772697881695969500,0.350969482421875,0.030716100707650185,-0.044319260865449905,0.03947630152106285
1772697881706017800,0.361017822265625,0.04729481041431427,-0.039023566991090775,0.02209305204451084
1772697881716066600,0.371066650390625,0.076547771692276,-0.014164821244776249,0.015036740340292454
1772697881726115600,0.381115478515625,0.10825803130865097,0.010988735593855381,0.008164186961948872
1772697881736164600,0.39116455078125,0.14621207118034363,0.02448536828160286,-0.006703709252178669
1772697881746212600,0.401212646484375,0.15201696753501892,0.05650615319609642,-0.002600310370326042
1772697881756261600,0.41126171875,0.1410151720046997,0.06105802580714226,0.008723716251552105
1772697881766310700,0.421310546875,0.12240820378065109,0.03658091276884079,0.018858909606933594
1772697881776359700,0.431359619140625,0.11375825852155685,-0.0005025385180488229,0.01876622997224331
1772697881786407700,0.44140771484375,0.10725454986095428,-0.014268950559198856,0.004540689755231142
1772697881796456400,0.45145654296875,0.11156647652387619,-0.025407355278730392,-0.00017230652156285942
1772697881806505700,0.461505615234375,0.11325012892484665,-0.02592720463871956,-0.004502606578171253
1772697881816553500,0.471553466796875,0.12192936986684799,-0.0252158734947443,0.012368252500891685
1772697881826602800,0.481602783203125,0.12708550691604614,-0.043360523879528046,0.03952157497406006
1772697881836651500,0.491651611328125,0.13090768456459045,-0.063033826649189,0.06597182899713516
1772697881846700500,0.501700439453125,0.12566284835338593,-0.05684863403439522,0.08473273366689682
1772697881856748500,0.51174853515625,0.09590549021959305,-0.04375893250107765,0.10285793989896774
1772697881866797600,0.521797607421875,0.06336911767721176,-0.028437767177820206,0.11427384614944458
1772697881876846600,0.5318466796875,0.04003556817770004,-0.031918782740831375,0.10460710525512695
1772697881886895600,0.5418955078125,0.020955348387360573,-0.029811691492795944,0.09818115830421448
1772697881896943600,0.551943603515625,0.022434469312429428,-0.02611176110804081,0.09060633182525635
1772697881906992600,0.56199267578125,0.025947177782654762,-0.006548979319632053,0.09038156270980835
1772697881917041700,0.572041748046875,0.028546156361699104,0.01992923393845558,0.09434115141630173
1772697881927090700,0.582090576171875,0.030305175110697746,0.04911188408732414,0.09866692125797272
1772697881937138400,0.592138427734375,0.028027107939124107,0.08929898589849472,0.10531523823738098
1772697881947187700,0.602187744140625,0.007242200430482626,0.11955355852842331,0.11451006680727005
1772697881957236500,0.612236572265625,-0.030462834984064102,0.1474568247795105,0.12291553616523743
1772697881967284700,0.62228466796875,-0.07417968660593033,0.17953620851039886,0.13674107193946838
1772697881977333500,0.63233349609375,-0.0830264464020729,0.1548076868057251,0.1449824869632721
1772697881987382500,0.642382568359375,-0.0843345895409584,0.13714107871055603,0.1322677582502365
1772697881997431000,0.65243115234375,-0.07425878196954727,0.13377884030342102,0.12964321672916412
1772697882007479300,0.662479248046875,-0.06710180640220642,0.14145833253860474,0.12421249598264694
1772697882017528000,0.672528076171875,-0.05748699605464935,0.16538043320178986,0.13099849224090576
1772697882027577000,0.6825771484375,-0.04701331630349159,0.18723753094673157,0.12855584919452667
1772697882037626000,0.692626220703125,-0.04267182946205139,0.19278942048549652,0.13699780404567719
1772697882047674000,0.702674072265625,-0.06374622136354446,0.1883310228586197,0.12758246064186096
1772697882057723100,0.71272314453125,-0.09230542927980423,0.19943960011005402,0.12511557340621948
1772697882067772200,0.722772216796875,-0.11476120352745056,0.20556247234344482,0.12252271920442581
1772697882077821200,0.7328212890625,-0.12873853743076324,0.19354310631752014,0.1044614240527153
1772697882087869200,0.742869140625,-0.13641217350959778,0.191706582903862,0.08768191188573837
1772697882097918000,0.75291796875,-0.1431981772184372,0.18840612471103668,0.07336050271987915
1772697882107967200,0.76296728515625,-0.14828534424304962,0.17971064150333405,0.07198364287614822
1772697882118016300,0.773016357421875,-0.15701092779636383,0.17276617884635925,0.07081025838851929
1772697882128064300,0.783064208984375,-0.16726702451705933,0.16072283685207367,0.0831923559308052
1772697882138113300,0.79311328125,-0.18336182832717896,0.16144561767578125,0.09555128961801529
1772697882148162000,0.803162109375,-0.204856738448143,0.1673828661441803,0.10200599581003189
1772697882158210000,0.8132099609375,-0.22009827196598053,0.1780078113079071,0.10082781314849854
1772697882168259000,0.823259033203125,-0.23737260699272156,0.18652033805847168,0.10257750749588013
1772697882178308400,0.833308349609375,-0.2555635869503021,0.18694858253002167,0.11321976780891418
1772697882188357000,0.843357177734375,-0.272604376077652,0.17081168293952942,0.1268993616104126
1772697882198405400,0.8534052734375,-0.28667518496513367,0.16256095468997955,0.13408003747463226
1772697882208454100,0.8634541015625,-0.29162412881851196,0.15469317138195038,0.1357186883687973
1772697882218503200,0.873503173828125,-0.3009398579597473,0.15380127727985382,0.1302967518568039
1772697882228552200,0.88355224609375,-0.3069612681865692,0.15740133821964264,0.12815797328948975
1772697882238600200,0.89360009765625,-0.3194267153739929,0.15742264688014984,0.13304033875465393
1772697882248649200,0.903649169921875,-0.31769222021102905,0.16615568101406097,0.15319222211837769
1772697882258698200,0.9136982421875,-0.31377550959587097,0.1508488953113556,0.1696406900882721
1772697882268747000,0.9237470703125,-0.31530895829200745,0.12790976464748383,0.1754208207130432
1772697882278795300,0.933795166015625,-0.31049981713294983,0.1136661097407341,0.17415928840637207
1772697882288844000,0.943843994140625,-0.31539177894592285,0.12177330255508423,0.1680888682603836
1772697882298893300,0.953893310546875,-0.3150591552257538,0.12595926225185394,0.15260498225688934
1772697882308941000,0.963941162109375,-0.31873589754104614,0.10957176983356476,0.1521698236465454
1772697882318990300,0.973990234375,-0.31603866815567017,0.09604610502719879,0.15138553082942963
1772697882329039000,0.9840390625,-0.32833126187324524,0.08194439858198166,0.15974199771881104
1772697882339088100,0.994088134765625,-0.33832478523254395,0.07411070913076401,0.17051900923252106
1772697882349136100,1.00413623046875,-0.3456535339355469,0.06552627682685852,0.18130268156528473
1772697882359185200,1.01418505859375,-0.3537870943546295,0.04692063853144646,0.19294415414333344
1772697882369234200,1.024234130859375,-0.36388182640075684,0.027298731729388237,0.20553025603294373
1772697882379283200,1.034283203125,-0.37515178322792053,0.008754076436161995,0.21382200717926025
1772697882389331200,1.044331298828125,-0.3896457552909851,0.00029587719473056495,0.21365289390087128
1772697882399380200,1.054380126953125,-0.4044579863548279,0.017732923850417137,0.20308732986450195
1772697882409429000,1.064428955078125,-0.41781240701675415,0.03620833903551102,0.19929926097393036
1772697882419478300,1.074478271484375,-0.43511924147605896,0.046664439141750336,0.18556852638721466
1772697882429526000,1.084526123046875,-0.4513533413410187,0.06379895657300949,0.17530123889446259
1772697882439575300,1.0945751953125,-0.45900991559028625,0.07688945531845093,0.16577458381652832
1772697882449624000,1.1046240234375,-0.46152234077453613,0.08770162612199783,0.15921121835708618
1772697882459673000,1.114673095703125,-0.46251651644706726,0.10605692863464355,0.1475798636674881
1772697882469721000,1.12472119140625,-0.4701366126537323,0.12532037496566772,0.14510393142700195
1772697882479770000,1.13477001953125,-0.46834057569503784,0.1496558040380478,0.14376196265220642
1772697882489819100,1.144819091796875,-0.45592331886291504,0.1713981181383133,0.13551068305969238
1772697882499867100,1.1548671875,-0.43813392519950867,0.20937825739383698,0.12618909776210785
1772697882509916200,1.164916259765625,-0.4212723970413208,0.262337863445282,0.11227088421583176
1772697882519965200,1.174965087890625,-0.4067475199699402,0.3343883752822876,0.10239321738481522
1772697882530014000,1.185013916015625,-0.3973526954650879,0.40241721272468567,0.08988488465547562
1772697882540062200,1.195062255859375,-0.39013126492500305,0.44249752163887024,0.08601398020982742
1772697882550111000,1.205111083984375,-0.39742007851600647,0.4310547113418579,0.08820176124572754
1772697882560160300,1.21516015625,-0.40983065962791443,0.3617478311061859,0.09632227569818497
1772697882570209300,1.225209228515625,-0.4474683105945587,0.2854554355144501,0.08947794884443283
1772697882580257300,1.23525732421875,-0.4811786115169525,0.15252456068992615,0.11424428224563599
1772697882590306000,1.24530615234375,-0.48995158076286316,0.050690341740846634,0.14526265859603882
1772697882600355000,1.25535498046875,-0.49017423391342163,-0.019594473764300346,0.16226613521575928
1772697882610404400,1.265404296875,-0.48670122027397156,-0.027751469984650612,0.1646113246679306
1772697882620452000,1.2754521484375,-0.4651293456554413,-0.033071666955947876,0.18010984361171722
1772697882630501000,1.285501220703125,-0.4069901406764984,-0.02442198619246483,0.2106533795595169
1772697882640550100,1.295550048828125,-0.342314213514328,-0.006307164207100868,0.2385510504245758
1772697882650598100,1.30559814453125,-0.2942851483821869,0.061460696160793304,0.2635629177093506
1772697882660647200,1.315647216796875,-0.2453027069568634,0.15293414890766144,0.27678126096725464
1772697882670696200,1.3256962890625,-0.19606271386146545,0.21934406459331512,0.25161999464035034
1772697882680745200,1.3357451171875,-0.14738279581069946,0.2700112462043762,0.20901207625865936
1772697882690793000,1.34579296875,-0.11878737062215805,0.2999177575111389,0.14958469569683075
1772697882700842200,1.35584228515625,-0.09850206971168518,0.30422380566596985,0.06895217299461365
1772697882710891300,1.365891357421875,-0.09188944101333618,0.2777232229709625,0.008288289420306683
1772697882720940000,1.37593994140625,-0.08803451806306839,0.21646440029144287,-0.038973499089479446
1772697882730988300,1.38598828125,-0.07925141602754593,0.147975355386734,-0.07203903794288635
1772697882741037000,1.396037109375,-0.06576942652463913,0.08806168287992477,-0.09677580744028091
1772697882751086300,1.40608642578125,-0.058455321937799454,0.04427319020032883,-0.12872415781021118
1772697882761135000,1.416135009765625,-0.05153163522481918,-0.003849599277600646,-0.14183570444583893
1772697882771183400,1.426183349609375,-0.04193094000220299,-0.049305498600006104,-0.15629559755325317
1772697882781232000,1.436232177734375,-0.04493604972958565,-0.09359413385391235,-0.14276807010173798
1772697882791281200,1.44628125,-0.04208194091916084,-0.121070496737957,-0.08400142937898636
1772697882801329200,1.4563291015625,-0.03845897689461708,-0.15024249255657196,0.0007560714147984982
1772697882811378200,1.466378173828125,-0.03247351944446564,-0.14656546711921692,0.06985391676425934
1772697882821427200,1.47642724609375,-0.02195616438984871,-0.12511663138866425,0.11106234043836594
1772697882831476200,1.486476318359375,-0.007495999336242676,-0.113644540309906,0.10712511837482452
1772697882841524200,1.496524169921875,0.0030085730832070112,-0.11834342032670975,0.07869427651166916
1772697882851573200,1.5065732421875,0.01678244210779667,-0.11268260329961777,0.03201039880514145
1772697882861622000,1.5166220703125,0.0322069376707077,-0.11289006471633911,-0.011174623854458332
1772697882871671300,1.52667138671875,0.05095692351460457,-0.12275787442922592,-0.05862123519182205
1772697882881719000,1.536718994140625,0.05396123602986336,-0.14230015873908997,-0.0869588702917099
1772697882891768300,1.546768310546875,0.05602119117975235,-0.1670459806919098,-0.10782419890165329
1772697882901817000,1.556817138671875,0.0482194609940052,-0.18478822708129883,-0.11106313765048981
1772697882911866000,1.5668662109375,0.05002428591251373,-0.2179751992225647,-0.09706103801727295
1772697882921914000,1.5769140625,0.0572957806289196,-0.26914411783218384,-0.09022949635982513
1772697882931963100,1.586963134765625,0.0674900934100151,-0.31270891427993774,-0.09148278087377548
1772697882942012200,1.59701220703125,0.07210588455200195,-0.35563427209854126,-0.1129545122385025
1772697882952060200,1.60706005859375,0.08279261738061905,-0.38114655017852783,-0.13909131288528442
1772697882962109200,1.617109130859375,0.08893786370754242,-0.3862963020801544,-0.1536444127559662
1772697882972158200,1.627158203125,0.088288314640522,-0.37423378229141235,-0.1561880111694336
1772697882982207000,1.63720703125,0.07657067477703094,-0.37035781145095825,-0.15234853327274323
1772697882992255200,1.647255126953125,0.06305433064699173,-0.3892015516757965,-0.1289483904838562
1772697883002304500,1.657304443359375,0.05235801264643669,-0.42855560779571533,-0.10002140700817108
1772697883012353500,1.667353515625,0.05764785036444664,-0.4810563623905182,-0.0667145848274231
1772697883022402600,1.677402587890625,0.07650276273488998,-0.507548451423645,-0.04670385643839836
1772697883032450600,1.687450439453125,0.09721816331148148,-0.5285136103630066,-0.028201544657349586
1772697883042499600,1.69749951171875,0.1212683692574501,-0.5628851652145386,0.0025153555907309055
1772697883052548400,1.70754833984375,0.13272635638713837,-0.6063775420188904,0.03274915739893913
1772697883062597600,1.71759765625,0.1319846659898758,-0.6301265358924866,0.06577634811401367
1772697883072645400,1.727645263671875,0.1257973462343216,-0.6503955721855164,0.07747801393270493
1772697883082694700,1.737694580078125,0.11823023855686188,-0.6533247828483582,0.0727682113647461
1772697883092743400,1.747743408203125,0.10014630854129791,-0.6535367965698242,0.04610038176178932
1772697883102791400,1.75779150390625,0.08908220380544662,-0.6610804796218872,0.013568805530667305
1772697883112840400,1.76784033203125,0.09043934941291809,-0.6724156737327576,-0.01942482963204384
1772697883122889500,1.777889404296875,0.10313224047422409,-0.6947569251060486,-0.05844227224588394
1772697883132938500,1.7879384765625,0.11654685437679291,-0.7036274075508118,-0.09200369566679001
1772697883142986500,1.797986572265625,0.12737660109996796,-0.7045078277587891,-0.1244114339351654
1772697883153035500,1.808035400390625,0.1329181045293808,-0.6843652725219727,-0.1529780924320221
1772697883163084500,1.81808447265625,0.13922765851020813,-0.6543977856636047,-0.17542988061904907
1772697883173133300,1.82813330078125,0.13283874094486237,-0.6191127896308899,-0.20390012860298157
1772697883183181600,1.838181640625,0.11909576505422592,-0.5779461860656738,-0.2468249648809433
1772697883193230300,1.848230224609375,0.1009170264005661,-0.5331528782844543,-0.2902581989765167
1772697883203279600,1.858279541015625,0.08227995783090591,-0.49282488226890564,-0.3322887420654297
1772697883213328400,1.868328369140625,0.07578850537538528,-0.4491748809814453,-0.37992629408836365
1772697883223376600,1.878376708984375,0.0706680417060852,-0.42426472902297974,-0.4100455641746521
1772697883233425400,1.88842529296875,0.07169070094823837,-0.4150802791118622,-0.4156419336795807
1772697883243474400,1.898474365234375,0.08249621093273163,-0.38065654039382935,-0.4198470711708069
1772697883253523500,1.9085234375,0.09972739219665527,-0.3445392847061157,-0.4194718301296234
1772697883263571500,1.918571533203125,0.11964704096317291,-0.3096159100532532,-0.41858845949172974
1772697883273620500,1.928620361328125,0.14345702528953552,-0.2775208353996277,-0.4238623380661011
1772697883283669500,1.93866943359375,0.15511715412139893,-0.26292669773101807,-0.4339732825756073
1772697883293717500,1.948717529296875,0.15283694863319397,-0.2793080806732178,-0.44225040078163147
1772697883303766500,1.9587666015625,0.16795039176940918,-0.3253413438796997,-0.4386082589626312
1772697883313815300,1.968815185546875,0.19401074945926666,-0.3393913805484772,-0.45213496685028076
1772697883323864600,1.978864501953125,0.20730765163898468,-0.36730796098709106,-0.43701276183128357
1772697883333912300,1.988912353515625,0.225984126329422,-0.37947115302085876,-0.44216597080230713
1772697883343961600,1.998961669921875,0.25015658140182495,-0.3898518979549408,-0.4368162155151367
1772697883354010400,2.00901025390625,0.2625559866428375,-0.41622012853622437,-0.43582844734191895
1772697883364059400,2.019059326171875,0.2869367003440857,-0.4008869528770447,-0.45038899779319763
1772697883374107400,2.029107421875,0.29366862773895264,-0.38493943214416504,-0.4521576166152954
1772697883384156400,2.039156494140625,0.28266364336013794,-0.3794136345386505,-0.45256534218788147
1772697883394205400,2.049205322265625,0.2925482392311096,-0.35956668853759766,-0.44508665800094604
1772697883404254500,2.05925439453125,0.28124499320983887,-0.35834935307502747,-0.4412953853607178
1772697883414302500,2.069302490234375,0.2756968140602112,-0.3262348473072052,-0.4063086211681366
1772697883424351500,2.0793515625,0.2824825644493103,-0.31430333852767944,-0.3629070818424225
1772697883434400300,2.089400146484375,0.2985800504684448,-0.3094388246536255,-0.3170351982116699
1772697883444448500,2.099448486328125,0.3208254277706146,-0.31633853912353516,-0.2883119583129883
1772697883454497300,2.109497314453125,0.33564403653144836,-0.3139198422431946,-0.27064213156700134
1772697883464546600,2.119546630859375,0.3516419231891632,-0.29018789529800415,-0.27578815817832947
1772697883474595600,2.129595703125,0.3623608946800232,-0.2568661570549011,-0.27512210607528687
1772697883484643600,2.1396435546875,0.372283011674881,-0.22154757380485535,-0.2851449251174927
1772697883494692400,2.1496923828125,0.38840392231941223,-0.1919041872024536,-0.28538087010383606
1772697883504741400,2.159741455078125,0.4056830406188965,-0.15900082886219025,-0.2920350432395935
1772697883514790700,2.169790771484375,0.41932669281959534,-0.13219185173511505,-0.3045545816421509
1772697883524838400,2.17983837890625,0.4287332594394684,-0.10871183127164841,-0.32449713349342346
1772697883534887700,2.1898876953125,0.42619553208351135,-0.0908670574426651,-0.3526936173439026
1772697883544936400,2.1999365234375,0.4247449040412903,-0.08448878675699234,-0.37758004665374756
1772697883554985500,2.2099853515625,0.42385753989219666,-0.07950281351804733,-0.39226365089416504
1772697883565033500,2.220033447265625,0.42146867513656616,-0.07657520473003387,-0.40694963932037354
1772697883575082500,2.23008251953125,0.4165562093257904,-0.07953530550003052,-0.4110890030860901
1772697883585131500,2.240131591796875,0.4128935635089874,-0.0711175873875618,-0.39144447445869446
1772697883595180500,2.2501806640625,0.42181381583213806,-0.09627354145050049,-0.37041375041007996
1772697883605228500,2.260228515625,0.426005095243454,-0.11065487563610077,-0.3457307815551758
1772697883615277600,2.270277587890625,0.43321692943573,-0.12463753670454025,-0.3108329772949219
1772697883625326300,2.280326416015625,0.4440203309059143,-0.12160526216030121,-0.2743745744228363
1772697883635374600,2.29037451171875,0.46126773953437805,-0.11132359504699707,-0.2510785758495331
1772697883645423400,2.30042333984375,0.47106313705444336,-0.10474665462970734,-0.23635926842689514
1772697883655472600,2.31047265625,0.48827221989631653,-0.10505104809999466,-0.2238762378692627
1772697883665521400,2.320521484375,0.5002766847610474,-0.1335255652666092,-0.22893491387367249
1772697883675569400,2.3305693359375,0.5101516842842102,-0.15067392587661743,-0.23497682809829712
1772697883685618400,2.340618408203125,0.5197808742523193,-0.17800168693065643,-0.2454899251461029
1772697883695667500,2.35066748046875,0.5253154635429382,-0.20400479435920715,-0.2665150463581085
1772697883705716500,2.360716552734375,0.5428392887115479,-0.22970935702323914,-0.29930999875068665
1772697883715764500,2.370764404296875,0.5630375146865845,-0.2102203518152237,-0.33422350883483887
1772697883725813500,2.3808134765625,0.5885125398635864,-0.14517104625701904,-0.35724547505378723
1772697883735862500,2.390862548828125,0.617695152759552,-0.11671676486730576,-0.40923571586608887
1772697883745911300,2.400911376953125,0.6350840330123901,-0.06549618393182755,-0.4761548340320587
1772697883755959600,2.41095947265625,0.6134615540504456,0.04185929894447327,-0.531242311000824
1772697883766008300,2.42100830078125,0.601779580116272,0.1412665843963623,-0.5717764496803284
1772697883776057600,2.4310576171875,0.5551167726516724,0.17147721350193024,-0.5929349660873413
1772697883786105300,2.441105224609375,0.4900754392147064,0.0932878702878952,-0.5931959748268127
1772697883796154600,2.451154541015625,0.4641974866390228,0.0006064017652533948,-0.5790676474571228
1772697883806203400,2.461203369140625,0.4337834119796753,-0.03255821019411087,-0.5319315195083618
1772697883816252400,2.47125244140625,0.4131081998348236,-0.06069556996226311,-0.5072131156921387
1772697883826300400,2.481300537109375,0.3772338330745697,-0.057558901607990265,-0.509200930595398
1772697883836349400,2.491349365234375,0.32177457213401794,-0.04982747882604599,-0.5079505443572998
1772697883846398500,2.5013984375,0.2731974422931671,-0.07720956951379776,-0.5049412250518799
1772697883856447500,2.511447509765625,0.2200109213590622,-0.123769611120224,-0.4751785099506378
1772697883866495500,2.52149560546875,0.18740424513816833,-0.20136001706123352,-0.44849255681037903
1772697883876544500,2.53154443359375,0.17091181874275208,-0.26863598823547363,-0.3895815908908844
1772697883886593300,2.54159326171875,0.16341182589530945,-0.32476183772087097,-0.3078971207141876
1772697883896642600,2.551642578125,0.15184438228607178,-0.3381351828575134,-0.21827082335948944
1772697883906690300,2.561690185546875,0.13213300704956055,-0.3066914975643158,-0.12637124955654144
1772697883916739600,2.571739501953125,0.11115474998950958,-0.2441713958978653,-0.04208194091916084
1772697883926788400,2.581788330078125,0.0836632028222084,-0.14689064025878906,0.01804238371551037
1772697883936836600,2.591836669921875,0.06435049325227737,-0.013492905534803867,0.021826468408107758
1772697883946885400,2.601885498046875,0.050703391432762146,0.10027973353862762,0.02634958177804947
1772697883956934400,2.611934326171875,0.01242124941200018,0.1905321329832077,0.043124035000801086
1772697883966983700,2.621983642578125,-0.0350772924721241,0.24348242580890656,0.09270303696393967
1772697883977031400,2.632031494140625,-0.09739739447832108,0.27639350295066833,0.16402089595794678
1772697883987080400,2.64208056640625,-0.1533767729997635,0.2773493230342865,0.25219282507896423
1772697883997129500,2.65212939453125,-0.1902405172586441,0.2529803216457367,0.3275490999221802
1772697884007178500,2.662178466796875,-0.21356314420700073,0.2190553843975067,0.3889853060245514
1772697884017226500,2.6722265625,-0.21219295263290405,0.1851205825805664,0.4214172661304474
1772697884027275500,2.682275634765625,-0.2227736860513687,0.16610215604305267,0.4414817988872528
1772697884037324500,2.692324462890625,-0.21701140701770782,0.13038650155067444,0.4487074911594391
1772697884047373600,2.70237353515625,-0.20037411153316498,0.09410146623849869,0.4336526393890381
1772697884057421600,2.712421630859375,-0.16839860379695892,0.061167217791080475,0.39283329248428345
1772697884067470600,2.722470703125,-0.12089153379201889,0.026192987337708473,0.3403916656970978
1772697884077519400,2.732519287109375,-0.07377728819847107,-0.0023148194886744022,0.29443082213401794
1772697884087568600,2.742568603515625,-0.03489060699939728,-0.011769574135541916,0.2509605884552002
1772697884097616400,2.752616455078125,-0.0028096348978579044,0.001273523666895926,0.2139013707637787
1772697884107665700,2.762665771484375,0.020666928961873055,0.0023334617726504803,0.17116296291351318
1772697884117714400,2.77271435546875,0.044260673224925995,0.008418784476816654,0.13836905360221863
1772697884127762400,2.782762451171875,0.05835891515016556,0.010396181605756283,0.11470208317041397
1772697884137811500,2.7928115234375,0.07392509281635284,0.009158877655863762,0.10315674543380737
1772697884147860500,2.802860595703125,0.08424883335828781,0.009837450459599495,0.10800529271364212
1772697884157909500,2.812909423828125,0.08288449794054031,0.006645651999861002,0.12725968658924103
1772697884167957500,2.82295751953125,0.07512005418539047,0.009615343064069748,0.1479732245206833
1772697884178006500,2.833006591796875,0.04288115352392197,0.009379386901855469,0.18151013553142548
1772697884188055600,2.8430556640625,0.02628593146800995,-0.019946543499827385,0.20694571733474731
1772697884198104600,2.8531044921875,0.021817414090037346,-0.050879959017038345,0.2276209145784378
1772697884208152600,2.863152587890625,0.022879216820001602,-0.10501722991466522,0.23489107191562653
1772697884218201600,2.87320166015625,0.024583905935287476,-0.14590740203857422,0.23574461042881012
1772697884228250600,2.883250732421875,0.023959660902619362,-0.17514997720718384,0.21959680318832397
1772697884238299600,2.893299560546875,0.02539270743727684,-0.1831144243478775,0.2047709822654724
1772697884248347600,2.90334765625,0.028655879199504852,-0.1918778270483017,0.19162775576114655
1772697884258396700,2.913396728515625,0.03362693637609482,-0.1657886952161789,0.1765742301940918
1772697884268445400,2.923445556640625,0.0355774350464344,-0.13597939908504486,0.1660877764225006
1772697884278493400,2.933493408203125,0.030765103176236153,-0.08580465614795685,0.14989948272705078
1772697884288542500,2.94354248046875,0.0186474546790123,-0.031018368899822235,0.12867462635040283
1772697884298591500,2.953591552734375,0.005514874123036861,0.03206179663538933,0.1006922572851181
1772697884308640500,2.963640625,-0.012518455274403095,0.09661921858787537,0.06610525399446487
1772697884318688500,2.9736884765625,-0.03498221933841705,0.13816267251968384,0.03489220514893532
1772697884328737500,2.983737548828125,-0.06480136513710022,0.14884726703166962,0.028434837237000465
1772697884338786600,2.99378662109375,-0.08093905448913574,0.15857979655265808,0.03647119179368019
1772697884348835600,3.003835693359375,-0.1025889590382576,0.16643664240837097,0.06712231040000916
1772697884358883600,3.013883544921875,-0.11641901731491089,0.17293529212474823,0.09836305677890778
1772697884368932600,3.0239326171875,-0.12360236793756485,0.17440269887447357,0.1256798952817917
1772697884378981600,3.033981689453125,-0.12599441409111023,0.15995211899280548,0.15504097938537598
1772697884389030400,3.044030517578125,-0.12301700562238693,0.1491500735282898,0.17529165744781494
1772697884399078700,3.05407861328125,-0.11125382035970688,0.12139353901147842,0.1989823430776596
1772697884409127400,3.06412744140625,-0.10436662286520004,0.09698007255792618,0.2130582183599472
1772697884419176700,3.0741767578125,-0.09157013148069382,0.07632219791412354,0.21172663569450378
1772697884429225500,3.0842255859375,-0.07666362076997757,0.06808051466941833,0.2022327333688736
1772697884439273500,3.0942734375,-0.06870449334383011,0.07210322469472885,0.17831487953662872
1772697884449322500,3.104322509765625,-0.06671005487442017,0.08713889867067337,0.1444016546010971
1772697884459371500,3.11437158203125,-0.07680769264698029,0.1073131412267685,0.10753844678401947
1772697884469419500,3.12441943359375,-0.09539949148893356,0.10945485532283783,0.07614084333181381
1772697884479468500,3.134468505859375,-0.11650051176548004,0.11318567395210266,0.05318465828895569
1772697884489517600,3.144517578125,-0.13674399256706238,0.12573662400245667,0.03160213306546211
1772697884499566600,3.154566650390625,-0.15371525287628174,0.1444977968931198,0.01690601371228695
1772697884509614600,3.164614501953125,-0.16398067772388458,0.16676367819309235,0.005361209623515606
1772697884519663600,3.17466357421875,-0.17049823701381683,0.19232097268104553,-0.0006815029191784561
1772697884529712400,3.18471240234375,-0.1736343801021576,0.21180012822151184,-0.007967911660671234
1772697884539761700,3.19476171875,-0.17975325882434845,0.23851457238197327,0.00044847631943412125
1772697884549809400,3.204809326171875,-0.1925521343946457,0.2606259882450104,0.013401825912296772
1772697884559858700,3.214858642578125,-0.21026243269443512,0.2644127309322357,0.03959907591342926
1772697884569907500,3.224907470703125,-0.23159195482730865,0.26274374127388,0.06601709872484207
1772697884579956500,3.23495654296875,-0.2529606223106384,0.2641347050666809,0.09194803237915039
1772697884590004500,3.24500439453125,-0.26662635803222656,0.26567909121513367,0.10980266332626343
1772697884600053500,3.255053466796875,-0.27981728315353394,0.25360697507858276,0.1365506500005722
1772697884610102500,3.2651025390625,-0.2928481101989746,0.22452685236930847,0.1565834879875183
1772697884620150500,3.275150634765625,-0.31042391061782837,0.19562196731567383,0.18235436081886292
1772697884630199600,3.285199462890625,-0.3321683704853058,0.17404502630233765,0.19961270689964294
1772697884640248600,3.29524853515625,-0.345273494720459,0.15463031828403473,0.21494212746620178
1772697884650297300,3.30529736328125,-0.3596559166908264,0.1500539481639862,0.22551462054252625
1772697884660345600,3.315345703125,-0.36436277627944946,0.13935096561908722,0.22844089567661285
1772697884670394400,3.325394287109375,-0.363353431224823,0.1420183926820755,0.2328108847141266
1772697884680443600,3.335443603515625,-0.365817666053772,0.15060149133205414,0.23480132222175598
1772697884690492700,3.34549267578125,-0.3716212213039398,0.14781635999679565,0.23315389454364777
1772697884700540400,3.35554052734375,-0.38020646572113037,0.15421433746814728,0.22971202433109283
1772697884710589400,3.36558935546875,-0.3897640109062195,0.15270192921161652,0.22038643062114716
1772697884720638500,3.375638427734375,-0.4009189307689667,0.15151521563529968,0.20346790552139282
1772697884730687700,3.385687744140625,-0.41528668999671936,0.15315945446491241,0.191350519657135
1772697884740735500,3.395735595703125,-0.4300645589828491,0.14758066833019257,0.17988507449626923
1772697884750784500,3.405784423828125,-0.4450719952583313,0.1492946743965149,0.1753329336643219
1772697884760833500,3.41583349609375,-0.45769912004470825,0.15006886422634125,0.17894604802131653
1772697884770882600,3.425882568359375,-0.4617500603199005,0.14896151423454285,0.19098247587680817
1772697884780930600,3.4359306640625,-0.46466460824012756,0.14544028043746948,0.2053198665380478
1772697884790979600,3.4459794921875,-0.4739891290664673,0.13987934589385986,0.22884809970855713
1772697884801028600,3.456028564453125,-0.48363935947418213,0.12728871405124664,0.25438329577445984
1772697884811076600,3.46607666015625,-0.49531733989715576,0.10994141548871994,0.2770790159702301
1772697884821125600,3.476125732421875,-0.5048453211784363,0.09374167025089264,0.2986231744289398
1772697884831174700,3.486174560546875,-0.5098124146461487,0.06761712580919266,0.29822584986686707
1772697884841223400,3.496223388671875,-0.5163224935531616,0.035530030727386475,0.2883990406990051
1772697884851271700,3.506271728515625,-0.515765368938446,0.004762264434248209,0.26965704560279846
1772697884861320400,3.516320556640625,-0.5276963114738464,-0.009554622694849968,0.2505829632282257
1772697884871369700,3.52636962890625,-0.5362112522125244,-0.009488842450082302,0.22907286882400513
1772697884881418500,3.53641845703125,-0.523913562297821,0.01745116151869297,0.20315471291542053
1772697884891466500,3.546466552734375,-0.49597352743148804,0.08989207446575165,0.17056508362293243
1772697884901515500,3.556515625,-0.4664337635040283,0.22553353011608124,0.13385766744613647
1772697884911564500,3.566564453125,-0.4482544958591461,0.3692113161087036,0.08228421956300735
1772697884921613600,3.576613525390625,-0.42973485589027405,0.42426127195358276,0.040640637278556824
1772697884931661600,3.58666162109375,-0.4198518693447113,0.3794352114200592,0.013520335778594017
1772697884941710600,3.596710693359375,-0.42802590131759644,0.32093408703804016,0.021273329854011536
1772697884951759600,3.606759521484375,-0.43062809109687805,0.2770097553730011,0.05859274044632912
1772697884961807600,3.6168076171875,-0.4342758059501648,0.2504260838031769,0.11361551284790039
1772697884971856600,3.626856689453125,-0.4508492052555084,0.17784802615642548,0.1518734246492386
1772697884981905400,3.636905517578125,-0.46673867106437683,0.07731050252914429,0.17291878163814545
1772697884991954700,3.64695458984375,-0.47195902466773987,-0.059665195643901825,0.19068339467048645
1772697885002002200,3.657002197265625,-0.45812734961509705,-0.15302497148513794,0.19323177635669708
1772697885012051500,3.667051513671875,-0.43022167682647705,-0.21392160654067993,0.17152008414268494
1772697885022100200,3.677100341796875,-0.38352662324905396,-0.2518266439437866,0.1539115309715271
1772697885032149200,3.687149169921875,-0.321729838848114,-0.2794177830219269,0.12183669209480286
1772697885042197200,3.697197265625,-0.25488555431365967,-0.3024173974990845,0.08650799095630646
1772697885052246300,3.707246337890625,-0.1896817833185196,-0.3025987446308136,0.028482507914304733
1772697885062295300,3.71729541015625,-0.11481419950723648,-0.2723473608493805,-0.04193759709596634
1772697885072344300,3.72734423828125,-0.043774910271167755,-0.20622028410434723,-0.11732396483421326
1772697885082392300,3.737392333984375,0.0022708773612976074,-0.1116466373205185,-0.18951161205768585
1772697885092441300,3.74744140625,0.022155102342367172,-0.04331711307168007,-0.20930075645446777
1772697885102490400,3.757490478515625,0.029161080718040466,-0.036922864615917206,-0.19626884162425995
1772697885112539400,3.767539306640625,0.03593669459223747,-0.0716177299618721,-0.1730615347623825
1772697885122587100,3.777587158203125,0.044443096965551376,-0.1484169065952301,-0.17838412523269653
1772697885132636400,3.787636474609375,0.04811985790729523,-0.24867825210094452,-0.20043961703777313
1772697885142685400,3.797685546875,0.03434146195650101,-0.33254092931747437,-0.23447561264038086
1772697885152733400,3.8077333984375,0.015457519330084324,-0.40826258063316345,-0.27384406328201294
1772697885162782500,3.817782470703125,0.0015078817959874868,-0.44816818833351135,-0.3280026316642761
1772697885172831200,3.827831298828125,-0.01564607210457325,-0.4586394727230072,-0.39402931928634644
1772697885182880500,3.837880615234375,-0.032399218529462814,-0.4793093502521515,-0.4420336186885834
1772697885192928300,3.84792822265625,-0.0430406779050827,-0.49455592036247253,-0.47530075907707214
1772697885202977500,3.8579775390625,-0.052563875913619995,-0.5072786808013916,-0.46961382031440735
1772697885213026300,3.8680263671875,-0.05369118973612785,-0.5088797211647034,-0.4454403221607208
1772697885223075300,3.878075439453125,-0.053942594677209854,-0.5076664090156555,-0.4078245162963867
1772697885233123300,3.888123291015625,-0.05005251616239548,-0.49836719036102295,-0.3757842779159546
1772697885243172400,3.89817236328125,-0.06897640228271484,-0.4636869728565216,-0.35155990719795227
1772697885253221400,3.908221435546875,-0.0694054365158081,-0.42635664343833923,-0.3239692747592926
1772697885263270400,3.9182705078125,-0.05876690894365311,-0.39112675189971924,-0.31293848156929016
1772697885273318400,3.928318359375,-0.06047879159450531,-0.3585379123687744,-0.2970183491706848
1772697885283367400,3.938367431640625,-0.059246812015771866,-0.342991441488266,-0.268011212348938
1772697885293416200,3.948416259765625,-0.061346981674432755,-0.3546435832977295,-0.23070670664310455
1772697885303464400,3.95846435546875,-0.037151362746953964,-0.3484099209308624,-0.18778641521930695
1772697885313513200,3.96851318359375,-0.004234692547470331,-0.3140263855457306,-0.14856790006160736
1772697885323562500,3.9785625,0.042518965899944305,-0.2644151449203491,-0.10643855482339859
1772697885333611300,3.988611328125,0.08407972007989883,-0.22324293851852417,-0.08490743488073349
1772697885343659500,3.998659423828125,0.1171327456831932,-0.2313583940267563,-0.07674138247966766
1772697885353708300,4.008708251953125,0.13775333762168884,-0.283552885055542,-0.0684104859828949
1772697885363757300,4.01875732421875,0.13608939945697784,-0.35111701488494873,-0.058636948466300964
1772697885373806300,4.028806396484375,0.1298285722732544,-0.4000648558139801,-0.06492626667022705
1772697885383854300,4.038854248046875,0.11989684402942657,-0.429514616727829,-0.09414194524288177
1772697885393903400,4.0489033203125,0.11775672435760498,-0.44622567296028137,-0.12487482279539108
1772697885403952400,4.058952392578125,0.11913624405860901,-0.4395528733730316,-0.1567656397819519
1772697885414001200,4.069001220703125,0.11731304228305817,-0.4125939607620239,-0.18396876752376556
1772697885424049400,4.07904931640625,0.12145079672336578,-0.3775305151939392,-0.20072005689144135
1772697885434098200,4.08909814453125,0.1307087391614914,-0.3346933126449585,-0.20970343053340912
1772697885444147500,4.0991474609375,0.13860128819942474,-0.29306942224502563,-0.21447794139385223
1772697885454196200,4.1091962890625,0.14711222052574158,-0.2523568868637085,-0.2204444855451584
1772697885464244500,4.119244384765625,0.15844902396202087,-0.2137940376996994,-0.2243950217962265
1772697885474293200,4.129293212890625,0.1743723303079605,-0.17140904068946838,-0.23694729804992676
1772697885484342300,4.13934228515625,0.17838731408119202,-0.13838264346122742,-0.23348306119441986
1772697885494390300,4.149390380859375,0.18156206607818604,-0.10268217325210571,-0.23667645454406738
1772697885504439300,4.159439208984375,0.1845027357339859,-0.07368593662977219,-0.23612332344055176
1772697885514488300,4.16948828125,0.1907995045185089,-0.05552903935313225,-0.2339126318693161
1772697885524537300,4.179537353515625,0.19325894117355347,-0.05174362286925316,-0.22741904854774475
1772697885534585300,4.18958544921875,0.19497162103652954,-0.06082526594400406,-0.2197589874267578
1772697885544634400,4.19963427734375,0.18794353306293488,-0.07112770527601242,-0.2101210057735443
1772697885554683100,4.20968310546875,0.18340285122394562,-0.07202998548746109,-0.20671482384204865
1772697885564732400,4.219732421875,0.18749026954174042,-0.07114554941654205,-0.20569589734077454
1772697885574780200,4.2297802734375,0.19945372641086578,-0.07301988452672958,-0.19953255355358124
1772697885584829400,4.239829345703125,0.22054702043533325,-0.07918616384267807,-0.2004028707742691
1772697885594878200,4.249878173828125,0.24149225652217865,-0.08297397941350937,-0.21000969409942627
1772697885604927200,4.25992724609375,0.2679651379585266,-0.0887778028845787,-0.21834805607795715
1772697885614975200,4.269975341796875,0.29638373851776123,-0.09584423899650574,-0.24601297080516815
1772697885625024300,4.280024169921875,0.31956788897514343,-0.10696399956941605,-0.26457253098487854
1772697885635073500,4.290073486328125,0.33306318521499634,-0.11050387471914291,-0.28109505772590637
1772697885645122300,4.300122314453125,0.3405429422855377,-0.12132349610328674,-0.2907167971134186
1772697885655170300,4.31017041015625,0.3428420424461365,-0.1467931717634201,-0.2971493899822235
1772697885665219300,4.32021923828125,0.34405937790870667,-0.18585242331027985,-0.29698801040649414
1772697885675268400,4.330268310546875,0.3523673713207245,-0.21671606600284576,-0.29740238189697266
1772697885685316400,4.34031640625,0.37164199352264404,-0.24296151101589203,-0.3013246953487396
1772697885695365400,4.350365478515625,0.39239734411239624,-0.26053252816200256,-0.3113988935947418
1772697885705414400,4.360414306640625,0.4112008512020111,-0.2775573134422302,-0.3252369463443756
1772697885715463400,4.37046337890625,0.42220184206962585,-0.31434035301208496,-0.3298117220401764
1772697885725511400,4.380511474609375,0.4270184338092804,-0.34727486968040466,-0.32672032713890076
1772697885735560400,4.390560546875,0.4210590720176697,-0.36922889947891235,-0.3173731565475464
1772697885745609200,4.400609130859375,0.4134299159049988,-0.3860446512699127,-0.30280619859695435
1772697885755658500,4.410658447265625,0.4006805717945099,-0.40650036931037903,-0.28580963611602783
1772697885765706200,4.420706298828125,0.39366739988327026,-0.4127713143825531,-0.27073055505752563
1772697885775755500,4.430755615234375,0.3961377441883087,-0.4116482734680176,-0.25732049345970154
1772697885785804300,4.44080419921875,0.399623841047287,-0.42111101746559143,-0.2561556100845337
1772697885795853300,4.450853271484375,0.41023439168930054,-0.42248812317848206,-0.2546168267726898
1772697885805901300,4.4609013671875,0.42423808574676514,-0.42250385880470276,-0.26068511605262756
1772697885815950300,4.470950439453125,0.4397028088569641,-0.40107420086860657,-0.27454233169555664
1772697885825999400,4.480999267578125,0.45437175035476685,-0.3897080719470978,-0.2878381907939911
1772697885836048400,4.49104833984375,0.47451484203338623,-0.3869653046131134,-0.30370768904685974
1772697885846096400,4.501096435546875,0.4941021203994751,-0.4114179015159607,-0.31524956226348877
1772697885856145400,4.5111455078125,0.5153818726539612,-0.4367719888687134,-0.32527288794517517
1772697885866194200,4.521194091796875,0.5306734442710876,-0.4657956659793854,-0.3315978944301605
1772697885876242400,4.531242431640625,0.5412704348564148,-0.4823780953884125,-0.33246049284935
1772697885886291200,4.541291259765625,0.5574049353599548,-0.49208372831344604,-0.33827924728393555
1772697885896340500,4.551340576171875,0.5807283520698547,-0.48666393756866455,-0.3353436291217804
1772697885906389200,4.56138916015625,0.6110439300537109,-0.4883286654949188,-0.34066304564476013
1772697885916437500,4.5714375,0.6371722221374512,-0.4816342890262604,-0.34095439314842224
1772697885926486300,4.581486328125,0.6598607301712036,-0.4570535719394684,-0.35754960775375366
1772697885936535300,4.591535400390625,0.6895198225975037,-0.43812915682792664,-0.35568833351135254
1772697885946584300,4.601584228515625,0.7087193727493286,-0.427160382270813,-0.3532555401325226
1772697885956632300,4.61163232421875,0.7228021621704102,-0.4287146031856537,-0.32832223176956177
1772697885966681300,4.621681396484375,0.736494243144989,-0.44382163882255554,-0.3003883361816406
1772697885976730400,4.63173046875,0.7511051893234253,-0.4599635899066925,-0.28090330958366394
1772697885986779100,4.641779052734375,0.7570937871932983,-0.4557510018348694,-0.2934936583042145
1772697885996827400,4.651827392578125,0.778472363948822,-0.4378678798675537,-0.30438145995140076
1772697886006876200,4.661876220703125,0.80321204662323,-0.3965103328227997,-0.31713932752609253
1772697886016925400,4.671925537109375,0.8302212953567505,-0.3565189838409424,-0.32831689715385437
1772697886026974200,4.68197412109375,0.8415988683700562,-0.3234640955924988,-0.33413296937942505
1772697886037022500,4.6920224609375,0.8572151064872742,-0.29116392135620117,-0.3427717387676239
1772697886047071200,4.7020712890625,0.8631171584129333,-0.2600555419921875,-0.3397921919822693
1772697886057120300,4.712120361328125,0.8565950989723206,-0.23748712241649628,-0.3356837332248688
1772697886067169300,4.722169189453125,0.8489086627960205,-0.23340795934200287,-0.32752326130867004
1772697886077217300,4.73221728515625,0.8501569032669067,-0.23777075111865997,-0.32399430871009827
1772697886087266300,4.742266357421875,0.8550821542739868,-0.2114483267068863,-0.330814391374588
1772697886097315300,4.7523154296875,0.869478166103363,-0.18968231976032257,-0.32802101969718933
1772697886107363300,4.76236328125,0.8799020051956177,-0.14397501945495605,-0.335635781288147
1772697886117412400,4.772412353515625,0.8860152959823608,-0.11809361726045609,-0.3116055428981781
1772697886127461000,4.782461181640625,0.8837710618972778,-0.07504015415906906,-0.2805291414260864
1772697886137510400,4.792510498046875,0.8908281922340393,0.016527578234672546,-0.2403992861509323
1772697886147558100,4.80255810546875,0.8807286620140076,0.19140751659870148,-0.25251665711402893
1772697886157607400,4.812607421875,0.8698632121086121,0.48522287607192993,-0.267342746257782
1772697886167656200,4.82265625,0.8900827765464783,0.7459202408790588,-0.25878122448921204
1772697886177705200,4.832705322265625,0.8785704374313354,0.791556715965271,-0.2652532458305359
1772697886187753200,4.842753173828125,0.8528781533241272,0.6928423643112183,-0.26553288102149963
1772697886197802200,4.85280224609375,0.8139938712120056,0.5043840408325195,-0.26176929473876953
1772697886207851300,4.862851318359375,0.7571223378181458,0.25667279958724976,-0.24631176888942719
1772697886217900300,4.872900390625,0.6604953408241272,-0.07380471378564835,-0.20667727291584015
1772697886227948300,4.8829482421875,0.5299317836761475,-0.4085904359817505,-0.13718821108341217
1772697886237997300,4.892997314453125,0.4339274764060974,-0.68111252784729,-0.12267106026411057
1772697886248046000,4.903046142578125,0.3699825704097748,-0.8776420950889587,-0.1302536129951477
1772697886258094300,4.91309423828125,0.31956762075424194,-0.9803439378738403,-0.09139782190322876
1772697886268143000,4.92314306640625,0.2879777252674103,-0.9537754654884338,-0.018505774438381195
1772697886278192400,4.9331923828125,0.27741509675979614,-0.8563721776008606,0.02672402188181877
1772697886288241400,4.943241455078125,0.28912582993507385,-0.6900172829627991,0.039153795689344406
1772697886298289400,4.953289306640625,0.289938360452652,-0.46367818117141724,-0.006952181924134493
1772697886308338200,4.963338134765625,0.2744073271751404,-0.22992295026779175,-0.10913527756929398
1772697886318387200,4.97338720703125,0.23716861009597778,0.03454652428627014,-0.21480870246887207
1772697886328436500,4.9834365234375,0.20132406055927277,0.3247474730014801,-0.29910174012184143
1772697886338484200,4.993484130859375,0.15432938933372498,0.5503931045532227,-0.36911624670028687
1772697886348533200,5.003533203125,0.09888610243797302,0.6824922561645508,-0.38797834515571594
1772697886358582300,5.013582275390625,0.0142316659912467,0.751954972743988,-0.35158997774124146
1772697886368631300,5.02363134765625,-0.07531686127185822,0.7741659879684448,-0.2437809705734253
1772697886378679300,5.03367919921875,-0.13543398678302765,0.7179794311523438,-0.08409517258405685
1772697886388728300,5.043728271484375,-0.16705529391765594,0.5574067831039429,0.12376748025417328
1772697886398777300,5.05377734375,-0.1610272377729416,0.3787230849266052,0.3167979121208191
1772697886408826400,5.063826416015625,-0.16026583313941956,0.26705166697502136,0.4623463451862335
1772697886418874400,5.073874267578125,-0.15898831188678741,0.20481252670288086,0.5578520894050598
1772697886428923400,5.08392333984375,-0.16646194458007812,0.15328222513198853,0.6131331920623779
1772697886438972200,5.09397216796875,-0.173457533121109,0.10239321738481522,0.6616463661193848
1772697886449020400,5.1040205078125,-0.177398219704628,0.050633616745471954,0.7057464718818665
1772697886459069200,5.114069091796875,-0.15903200209140778,0.012824718840420246,0.7479711771011353
1772697886469118500,5.124118408203125,-0.14532576501369476,-0.0017030915478244424,0.7823323011398315
1772697886479167200,5.134167236328125,-0.12746953964233398,-0.013013270683586597,0.7855414152145386
1772697886489215500,5.144215576171875,-0.1133265569806099,-0.02346431277692318,0.7725939154624939
1772697886499264300,5.15426416015625,-0.09271928668022156,-0.03990240767598152,0.7462598085403442
1772697886509313300,5.164313232421875,-0.081330806016922,-0.04980617016553879,0.7077563405036926
1772697886519362300,5.1743623046875,-0.08324695378541946,-0.03626959025859833,0.6817284822463989
1772697886529410300,5.184410400390625,-0.09390518814325333,-0.0007494135061278939,0.6616733074188232
1772697886539459300,5.194459228515625,-0.1323694884777069,0.04729348048567772,0.6606999039649963
1772697886549508400,5.20450830078125,-0.17779795825481415,0.09332887828350067,0.6713240742683411
1772697886559557000,5.21455712890625,-0.23222951591014862,0.13903112709522247,0.6919686198234558
1772697886569605400,5.22460546875,-0.2891292870044708,0.16447123885154724,0.7132917642593384
1772697886579654100,5.234654052734375,-0.3329313397407532,0.1611420214176178,0.7270240783691406
1772697886589703400,5.244703369140625,-0.35728728771209717,0.1484355479478836,0.7194332480430603
1772697886599752200,5.254752197265625,-0.3693018853664398,0.139645516872406,0.7154209613800049
1772697886609800400,5.264800537109375,-0.38117530941963196,0.12210913002490997,0.7039808034896851
1772697886619849200,5.27484912109375,-0.38083416223526,0.09628605842590332,0.6709091067314148
1772697886629898200,5.284898193359375,-0.37990817427635193,0.07250455766916275,0.6338115334510803
1772697886639946200,5.2949462890625,-0.3755080997943878,0.06878971308469772,0.6030957102775574
1772697886649995300,5.304995361328125,-0.3727264404296875,0.07961253821849823,0.5807598233222961
1772697886660044300,5.315044189453125,-0.3793148398399353,0.11212413758039474,0.5585055947303772
1772697886670092300,5.32509228515625,-0.38791924715042114,0.1714436560869217,0.526005744934082
1772697886680141300,5.335141357421875,-0.40029096603393555,0.22626270353794098,0.4884812533855438
1772697886690190300,5.3451904296875,-0.41272178292274475,0.27614983916282654,0.43681594729423523
1772697886700239000,5.355239013671875,-0.4116983413696289,0.3196890652179718,0.38699617981910706
1772697886710287400,5.365287353515625,-0.4053514897823334,0.35481613874435425,0.3452623188495636
1772697886720336100,5.375336181640625,-0.3998081088066101,0.3767984211444855,0.3088158965110779
1772697886730385400,5.385385498046875,-0.4029562473297119,0.4067653715610504,0.29217514395713806
1772697886740434200,5.39543408203125,-0.4102298617362976,0.4186529219150543,0.30024078488349915
1772697886750482400,5.405482421875,-0.41853708028793335,0.4328917860984802,0.3266207277774811
1772697886760531200,5.41553125,-0.4305391311645508,0.4452773332595825,0.3564625084400177
1772697886770580200,5.425580322265625,-0.4404253363609314,0.4444323182106018,0.37783437967300415
1772697886780629200,5.435629150390625,-0.4419236183166504,0.4376332759857178,0.3992352783679962
1772697886790677200,5.44567724609375,-0.4496214687824249,0.41356441378593445,0.3992227613925934
1772697886800726300,5.455726318359375,-0.44634100794792175,0.39386501908302307,0.3995119631290436
1772697886810775300,5.465775390625,-0.4431004524230957,0.3738255202770233,0.3896103501319885
1772697886820823300,5.4758232421875,-0.4313833713531494,0.35405421257019043,0.3828136920928955
1772697886830872300,5.485872314453125,-0.4209333658218384,0.3419584035873413,0.3911632299423218
1772697886840921000,5.495921142578125,-0.41449519991874695,0.3107176721096039,0.41154468059539795
1772697886850970400,5.505970458984375,-0.4166867136955261,0.26361221075057983,0.43177270889282227
1772697886861018000,5.51601806640625,-0.4210447072982788,0.20666183531284332,0.43782687187194824
1772697886871067400,5.5260673828125,-0.4195285737514496,0.15355120599269867,0.42617368698120117
1772697886881116400,5.536116455078125,-0.422639399766922,0.12642212212085724,0.38620761036872864
1772697886891165200,5.546165283203125,-0.41649869084358215,0.12032800912857056,0.32626307010650635
1772697886901213200,5.556213134765625,-0.4045637249946594,0.13701191544532776,0.2641536295413971
1772697886911262200,5.56626220703125,-0.3801228404045105,0.17607542872428894,0.20314113795757294
1772697886921311500,5.5763115234375,-0.36509275436401367,0.22285917401313782,0.14431563019752502
1772697886931360300,5.5863603515625,-0.3533969521522522,0.2658247649669647,0.0987236499786377
1772697886941408300,5.596408203125,-0.35009968280792236,0.29734674096107483,0.05173909291625023
1772697886951457300,5.606457275390625,-0.3509574830532074,0.3049018383026123,0.004160123877227306
1772697886961506300,5.61650634765625,-0.34589189291000366,0.29641008377075195,-0.035416312515735626
1772697886971555300,5.626555419921875,-0.3427421748638153,0.28240105509757996,-0.06541043519973755
1772697886981603300,5.636603271484375,-0.338093638420105,0.2709430754184723,-0.0785462036728859
1772697886991652400,5.64665234375,-0.3266018033027649,0.2586166560649872,-0.07907697558403015
1772697887001700600,5.65670068359375,-0.308392733335495,0.24528059363365173,-0.06963793188333511
1772697887011749600,5.66674951171875,-0.2950449585914612,0.2247558832168579,-0.06769169867038727
1772697887021797600,5.676797607421875,-0.2796145975589752,0.20779366791248322,-0.05390717461705208
1772697887031846400,5.686846435546875,-0.2620667815208435,0.19386827945709229,-0.04047738388180733
1772697887041895700,5.696895751953125,-0.24648408591747284,0.17268255352973938,-0.020859742537140846
1772697887051944400,5.7069443359375,-0.2475528120994568,0.15530170500278473,-0.008009723387658596
1772697887061992700,5.71699267578125,-0.2527523636817932,0.13822312653064728,-0.0009049421059899032
1772697887072041500,5.72704150390625,-0.257589727640152,0.13856613636016846,0.00002956108801299706
1772697887082090500,5.737090576171875,-0.2684261202812195,0.14495159685611725,-0.015504923649132252
1772697887092139500,5.747139404296875,-0.2805173993110657,0.1401861310005188,-0.02804468385875225
1772697887102187500,5.7571875,-0.29033276438713074,0.14945633709430695,-0.04398743063211441
1772697887112236500,5.767236572265625,-0.3021595776081085,0.1703946441411972,-0.0656178891658783
1772697887122285600,5.77728564453125,-0.31325966119766235,0.19877514243125916,-0.08678735792636871
1772697887132334600,5.78733447265625,-0.3197396397590637,0.20686982572078705,-0.11568478494882584
1772697887142382600,5.797382568359375,-0.3270502984523773,0.22019389271736145,-0.12175919115543365
1772697887152431600,5.807431640625,-0.3474072217941284,0.23044413328170776,-0.12379970401525497
1772697887162480600,5.817480712890625,-0.3599557876586914,0.22600090503692627,-0.1062563955783844
1772697887172529400,5.827529296875,-0.39611485600471497,0.26344576478004456,-0.08793651312589645
1772697887182577700,5.83757763671875,-0.4386599063873291,0.2804678678512573,-0.060866545885801315
1772697887192626400,5.84762646484375,-0.4726130962371826,0.2748962938785553,-0.034927092492580414
1772697887202675500,5.857675537109375,-0.5085122585296631,0.27510160207748413,-0.0038836877793073654
1772697887212723500,5.867723388671875,-0.5234866738319397,0.27068716287612915,0.029049761593341827
1772697887222772500,5.8777724609375,-0.5249274373054504,0.2875979542732239,0.06989333033561707
1772697887232821500,5.887821533203125,-0.5043944716453552,0.3196057081222534,0.1294836848974228
1772697887242870500,5.89787060546875,-0.46985912322998047,0.3659004867076874,0.1971849799156189
1772697887252918500,5.90791845703125,-0.4534550905227661,0.44949764013290405,0.2365424931049347
1772697887262967600,5.917967529296875,-0.44371724128723145,0.5046733021736145,0.2843044400215149
1772697887273016600,5.9280166015625,-0.45239517092704773,0.45966747403144836,0.3422335088253021
1772697887283065600,5.938065673828125,-0.4453585743904114,0.3332328200340271,0.4229797422885895
1772697887293113300,5.94811328125,-0.4110186994075775,0.21400310099124908,0.4996148645877838
1772697887303162600,5.95816259765625,-0.37147608399391174,0.16489841043949127,0.5421434044837952
1772697887313211600,5.968211669921875,-0.32458552718162537,0.1765444129705429,0.5275711417198181
1772697887323260700,5.9782607421875,-0.2853981852531433,0.19987370073795319,0.47912371158599854
1772697887333308400,5.988308349609375,-0.2575913369655609,0.20829887688159943,0.4156443476676941
1772697887343357400,5.998357421875,-0.23947863280773163,0.1877901405096054,0.3444780111312866
1772697887353406700,6.00840673828125,-0.23770363628864288,0.14298725128173828,0.258001446723938
1772697887363455500,6.01845556640625,-0.2313687801361084,0.08631757646799088,0.16195188462734222
1772697887373503500,6.02850341796875,-0.21396048367023468,0.04346145689487457,0.06655345857143402
1772697887383552500,6.038552490234375,-0.20462530851364136,0.03399898111820221,-0.01763252355158329
1772697887393601500,6.0486015625,-0.1991320103406906,0.018488995730876923,-0.07394187152385712
1772697887403650600,6.058650634765625,-0.18595175445079803,-0.019631758332252502,-0.0912012830376625
1772697887413698600,6.068698486328125,-0.17542748153209686,-0.05800524726510048,-0.07692514359951019
1772697887423747600,6.07874755859375,-0.15874624252319336,-0.07574828714132309,-0.035535089671611786
1772697887433796600,6.088796630859375,-0.15012238919734955,-0.06765041500329971,0.0190727598965168
1772697887443845600,6.098845703125,-0.13706277310848236,-0.059247877448797226,0.06532041728496552
1772697887453893600,6.1088935546875,-0.14205513894557953,-0.07340044528245926,0.11334013938903809
1772697887463942400,6.1189423828125,-0.08778791129589081,-0.070440873503685,0.11025699973106384
1772697887473991700,6.12899169921875,-0.07353733479976654,-0.02305098995566368,0.1058121845126152
1772697887484039400,6.139039306640625,-0.0775589719414711,-0.013789315707981586,0.08801481127738953
1772697887494088700,6.149088623046875,-0.07683113217353821,-0.012802613899111748,0.07422735542058945
1772697887504137500,6.159137451171875,-0.07412376254796982,-0.027057982981204987,0.03662512078881264
1772697887514186500,6.1691865234375,-0.06721711903810501,-0.07980801165103912,0.009375925175845623
1772697887524234500,6.179234375,-0.05999143049120903,-0.1296677142381668,-0.017471933737397194
1772697887534283500,6.189283447265625,-0.07012582570314407,-0.1742953658103943,-0.01678404025733471
1772697887544332500,6.19933251953125,-0.08205625414848328,-0.24867559969425201,-0.0010894992155954242
1772697887554381600,6.209381591796875,-0.10122701525688171,-0.314486026763916,0.010313889943063259
1772697887564429600,6.2194296875,-0.12274562567472458,-0.3611123859882355,-0.005453887395560741
1772697887574478600,6.229478515625,-0.13914990425109863,-0.35610857605934143,-0.03792687505483627
1772697887584527600,6.239527587890625,-0.14912769198417664,-0.29970815777778625,-0.0772673562169075
1772697887594576600,6.24957666015625,-0.14632365107536316,-0.262968510389328,-0.13534264266490936
1772697887604624400,6.259624267578125,-0.14717453718185425,-0.21734216809272766,-0.18406304717063904
1772697887614673700,6.269673583984375,-0.14897243678569794,-0.17138266563415527,-0.23948076367378235
1772697887624722400,6.279722412109375,-0.17798598110675812,-0.09614011645317078,-0.2705044746398926
1772697887634771700,6.289771728515625,-0.19259421527385712,-0.030545659363269806,-0.2802191376686096
1772697887644819500,6.2998193359375,-0.20509296655654907,0.003745469730347395,-0.2776084542274475
1772697887654868500,6.309868408203125,-0.21212850511074066,0.021514346823096275,-0.2730805277824402
1772697887664917500,6.31991748046875,-0.20571960508823395,0.041355960071086884,-0.26202017068862915
1772697887674966500,6.329966552734375,-0.20013202726840973,0.07483695447444916,-0.25576600432395935
1772697887685014500,6.3400146484375,-0.1891331672668457,0.10307817906141281,-0.2474241703748703
1772697887695063600,6.3500634765625,-0.18221721053123474,0.13353168964385986,-0.2350465953350067
1772697887705112600,6.360112548828125,-0.1748999059200287,0.16299983859062195,-0.20601415634155273
1772697887715160600,6.37016064453125,-0.17406819760799408,0.18092717230319977,-0.17846481502056122
1772697887725209600,6.380209716796875,-0.179676815867424,0.1716814786195755,-0.14251986145973206
1772697887735258600,6.390258544921875,-0.17133232951164246,0.1261315643787384,-0.11758175492286682
1772697887745307400,6.400307373046875,-0.14890559017658234,0.046901460736989975,-0.11061972379684448
1772697887755355600,6.410355712890625,-0.11759107559919357,-0.018703380599617958,-0.11999937146902084
1772697887765404400,6.420404296875,-0.08729122579097748,-0.04815740883350372,-0.1341056078672409
1772697887775453400,6.430453369140625,-0.05036943033337593,-0.0696168914437294,-0.13683348894119263
1772697887785502700,6.440502685546875,-0.02412610873579979,-0.08955571800470352,-0.13166721165180206
1772697887795550500,6.450550537109375,-0.00449861166998744,-0.10102541744709015,-0.1418095976114273
1772697887805599500,6.460599609375,-0.003968376200646162,-0.10224967449903488,-0.16351835429668427
1772697887815648500,6.4706484375,-0.0046453517861664295,-0.08627363294363022,-0.20668260753154755
1772697887825697500,6.480697509765625,-0.00812317430973053,-0.06806986778974533,-0.2520623505115509
1772697887835745500,6.49074560546875,-0.013146961107850075,-0.07059027999639511,-0.2754502296447754
1772697887845794600,6.500794677734375,-0.0219082273542881,-0.08597962558269501,-0.2798023521900177
1772697887855843600,6.510843505859375,-0.01967889629304409,-0.09063376486301422,-0.2754068076610565
1772697887865892600,6.520892578125,-0.009579656645655632,-0.09928903728723526,-0.24547554552555084
1772697887875940600,6.530940673828125,-0.012309929355978966,-0.10005256533622742,-0.19953681528568268
1772697887885989600,6.54098974609375,-0.00749173853546381,-0.09802137315273285,-0.14268870651721954
1772697887896038700,6.55103857421875,0.0004021373169962317,-0.10775335878133774,-0.08025862276554108
1772697887906087700,6.561087646484375,-0.001633316627703607,-0.10580871999263763,-0.036737773567438126
1772697887916135400,6.571135498046875,-0.0031212246976792812,-0.10739196836948395,-0.009325324557721615
1772697887926184700,6.581184814453125,-0.002947852946817875,-0.11689838767051697,-0.00013182646944187582
1772697887936233500,6.5912333984375,0.006969758775085211,-0.1432943046092987,0.00960016343742609
1772697887946281700,6.60128173828125,0.01792680285871029,-0.17269720137119293,0.007385478354990482
1772697887956330500,6.61133056640625,0.03175792843103409,-0.1920756995677948,-0.007251254748553038
1772697887966379500,6.621379638671875,0.05468348413705826,-0.20694252848625183,-0.029894249513745308
1772697887976428500,6.631428466796875,0.07139188796281815,-0.21627184748649597,-0.052915144711732864
1772697887986476500,6.6414765625,0.09092724323272705,-0.20249851047992706,-0.06604719161987305
1772697887996525600,6.651525634765625,0.10467474907636642,-0.17420534789562225,-0.08827553689479828
1772697888006575600,6.66157568359375,0.11761265248060226,-0.14438274502754211,-0.11178378760814667
1772697888016624600,6.671624755859375,0.12511983513832092,-0.11730771511793137,-0.14063142240047455
1772697888026672600,6.681672607421875,0.12830977141857147,-0.10083632916212082,-0.15957368910312653
1772697888036721700,6.6917216796875,0.13144803047180176,-0.09170888364315033,-0.16957491636276245
1772697888046770700,6.701770751953125,0.12806609272956848,-0.07707161456346512,-0.1562170386314392
1772697888056819700,6.71181982421875,0.12445937097072601,-0.0857900083065033,-0.1329370141029358
1772697888066867700,6.72186767578125,0.12269049882888794,-0.09174936264753342,-0.09865467250347137
1772697888076916700,6.731916748046875,0.11694632470607758,-0.10205792635679245,-0.041012682020664215
1772697888086965500,6.741965576171875,0.1086987853050232,-0.10743031650781631,0.017245033755898476
1772697888097014800,6.752014892578125,0.11105647683143616,-0.11285065114498138,0.0823310911655426
1772697888107062500,6.7620625,0.12515711784362793,-0.1274961680173874,0.13715119659900665
1772697888117111800,6.77211181640625,0.14495159685611725,-0.12913109362125397,0.1685919463634491
1772697888127160600,6.78216064453125,0.15732677280902863,-0.14101678133010864,0.1684713065624237
1772697888137209600,6.792209716796875,0.17932341992855072,-0.17468099296092987,0.16551919281482697
1772697888147257600,6.802257568359375,0.19675886631011963,-0.17931783199310303,0.1462235152721405
1772697888157306600,6.812306640625,0.2149176299571991,-0.18121293187141418,0.12621119618415833
1772697888167355600,6.822355712890625,0.2396773099899292,-0.18984955549240112,0.09963525086641312
1772697888177404700,6.83240478515625,0.26253148913383484,-0.19524513185024261,0.0756063461303711
1772697888187452700,6.84245263671875,0.28599873185157776,-0.18579941987991333,0.04735313355922699
1772697888197501700,6.852501708984375,0.3025343120098114,-0.16549761593341827,0.018882878124713898
1772697888207550700,6.86255078125,0.29783061146736145,-0.1359304040670395,-0.0005515406373888254
1772697888217598700,6.8725986328125,0.29805538058280945,-0.136470228433609,-0.023568708449602127
1772697888227647500,6.8826474609375,0.28703150153160095,-0.15527187287807465,-0.03431456536054611
1772697888237696800,6.89269677734375,0.2807232737541199,-0.1879805624485016,-0.04525456205010414
1772697888247745800,6.902745849609375,0.285865843296051,-0.1997661143541336,-0.052839245647192
1772697888257793800,6.912793701171875,0.29899123311042786,-0.19545072317123413,-0.06226124241948128
1772697888267842600,6.922842529296875,0.3146098554134369,-0.18773500621318817,-0.07595468312501907
1772697888277891600,6.9328916015625,0.33694979548454285,-0.16565154492855072,-0.07754538953304291
1772697888287940900,6.94294091796875,0.37037193775177,-0.13945509493350983,-0.07855712622404099
1772697888297988600,6.952988525390625,0.40703222155570984,-0.11023516207933426,-0.08384669572114944
1772697888308037600,6.96303759765625,0.45211660861968994,-0.08337131887674332,-0.08042214065790176
1772697888318086700,6.973086669921875,0.5060216188430786,-0.12659655511379242,0.10318497568368912
1772697888328135700,6.9831357421875,0.5104318261146545,-0.27713412046432495,0.1273169368505478
1772697888338183700,6.99318359375,0.5057795643806458,-0.35226669907569885,0.11766485124826431
1772697888348232700,7.003232666015625,0.5014417767524719,-0.33749040961265564,0.08721106499433517
1772697888358281700,7.01328173828125,0.45673078298568726,-0.30597829818725586,0.05922017991542816
1772697888368330800,7.023330810546875,0.41433700919151306,-0.23883122205734253,0.0376879908144474
1772697888378378800,7.033378662109375,0.4066542983055115,-0.19771520793437958,-0.011592473834753036
1772697888388427800,7.043427734375,0.41317880153656006,-0.13388696312904358,-0.07019693404436111
1772697888398476500,7.0534765625,0.4358294904232025,-0.08005648851394653,-0.12553821504116058
1772697888408525800,7.06352587890625,0.45335283875465393,-0.021211545914411545,-0.1889752447605133
1772697888418573600,7.073573486328125,0.4620126485824585,0.03298937529325485,-0.27294179797172546
1772697888428622800,7.083622802734375,0.4804435670375824,0.12298397719860077,-0.3673364520072937
1772697888438671600,7.093671630859375,0.49410292506217957,0.1912493258714676,-0.4424232244491577
1772697888448720600,7.103720703125,0.4991384446620941,0.1555163562297821,-0.4483996331691742
1772697888458768600,7.1137685546875,0.46465903520584106,0.06742484867572784,-0.3456127941608429
1772697888468817700,7.123817626953125,0.42304232716560364,-0.10777600109577179,-0.24269039928913116
