time,seconds_elapsed,z,y,x
1772697881409580800,0.064580810546875,-0.05633700639009476,0.10610020160675049,0.1051567792892456
1772697881419629600,0.074629638671875,-0.05848764628171921,0.15945151448249817,0.13382861018180847
1772697881429677800,0.084677734375,-0.05399969220161438,0.19056229293346405,0.14233794808387756
1772697881439726600,0.0947265625,-0.05184926465153694,0.19497093558311462,0.14945051074028015
1772697881449775600,0.104775634765625,-0.05402160435914993,0.16689641773700714,0.15846584737300873
1772697881459824600,0.11482470703125,-0.05936116725206375,0.12557770311832428,0.1638975739479065
1772697881469872600,0.12487255859375,-0.05906155705451965,0.08745428919792175,0.1692824810743332
1772697881479921700,0.134921630859375,-0.06132949888706207,0.06903240084648132,0.17546509206295013
1772697881489970700,0.144970703125,-0.06684570014476776,0.06870243698358536,0.1746046245098114
1772697881500018700,0.155018798828125,-0.07282424718141556,0.08270294219255447,0.175776869058609
1772697881510067700,0.165067626953125,-0.0694580078125,0.09986088424921036,0.1738780289888382
1772697881520116500,0.175116455078125,-0.062423206865787506,0.11073309183120728,0.17124639451503754
1772697881530165800,0.185165771484375,-0.05521243438124657,0.1212264746427536,0.17176730930805206
1772697881540213500,0.195213623046875,-0.049293212592601776,0.11668068170547485,0.16421078145503998
1772697881550262800,0.2052626953125,-0.03690285608172417,0.10806481540203094,0.15216876566410065
1772697881560311600,0.2153115234375,-0.03394902125000954,0.08988695591688156,0.14088408648967743
1772697881570360600,0.225360595703125,-0.035749852657318115,0.06805143505334854,0.13752929866313934
1772697881580408600,0.23540869140625,-0.043584808707237244,0.04999064281582832,0.1404956728219986
1772697881590457600,0.24545751953125,-0.03186556696891785,0.02638358250260353,0.1452222466468811
1772697881600506600,0.255506591796875,-0.01733527146279812,0.0026912610046565533,0.1382082849740982
1772697881610555600,0.2655556640625,-0.007770528085529804,-0.004143208730965853,0.1332305669784546
1772697881620603600,0.275603759765625,0.012280725874006748,-0.013450318947434425,0.12476625293493271
1772697881630652700,0.285652587890625,0.022338420152664185,-0.013692133128643036,0.10793560743331909
1772697881640701400,0.295701416015625,0.03270326182246208,-0.005651022773236036,0.0998806282877922
1772697881650749700,0.305749755859375,0.036505457013845444,0.007781162392348051,0.09043465554714203
1772697881660798500,0.315798583984375,0.035077061504125595,0.008441826328635216,0.08664221316576004
1772697881670847700,0.32584765625,0.028269222006201744,0.0067650992423295975,0.07763593643903732
1772697881680896800,0.335896728515625,0.020431984215974808,-0.017300104722380638,0.06308472156524658
1772697881690944800,0.34594482421875,0.026323962956666946,-0.043761804699897766,0.04550918936729431
1772697881700993500,0.35599365234375,0.03781791403889656,-0.05428184196352959,0.031240314245224
1772697881711042600,0.36604248046875,0.061899278312921524,-0.03804294764995575,0.019769279286265373
1772697881721091800,0.376091796875,0.09431100636720657,-0.00822937861084938,0.012052962556481361
1772697881731139600,0.3861396484375,0.12823648750782013,0.010936858132481575,-0.000012488453648984432
1772697881741188900,0.39618896484375,0.1548178344964981,0.03246686980128288,-0.004669093526899815
1772697881751237600,0.406237548828125,0.1522580087184906,0.056441180408000946,0.005174482241272926
1772697881761285600,0.41628564453125,0.1340184360742569,0.041605569422245026,0.01633642241358757
1772697881771334700,0.426334716796875,0.11990713328123093,0.012374446727335453,0.019614506512880325
1772697881781383700,0.4363837890625,0.1115192249417305,-0.016608592122793198,0.01321534626185894
1772697881791432700,0.4464326171875,0.1111714169383049,-0.025638040155172348,0.0010891745332628489
1772697881801480400,0.45648046875,0.11231578141450882,-0.03526443988084793,-0.00678841769695282
1772697881811529700,0.46652978515625,0.11742080003023148,-0.02984064631164074,0.0008497946546413004
1772697881821578800,0.476578857421875,0.12481841444969177,-0.04019135609269142,0.02383328415453434
1772697881831627500,0.48662744140625,0.13033035397529602,-0.06414622068405151,0.04926806688308716
1772697881841675800,0.49667578125,0.12715138494968414,-0.06619781255722046,0.07864585518836975
1772697881851724500,0.506724609375,0.1119290143251419,-0.058655206114053726,0.0942559689283371
1772697881861773800,0.51677392578125,0.08191433548927307,-0.038140058517456055,0.10705188661813736
1772697881871822600,0.526822509765625,0.050842974334955215,-0.03924233838915825,0.1123073622584343
1772697881881870800,0.536870849609375,0.030338900163769722,-0.03927130252122879,0.0997718870639801
1772697881891919600,0.546919677734375,0.022959014400839806,-0.032864537090063095,0.0964309498667717
1772697881901968600,0.55696875,0.027865681797266006,-0.02703903242945671,0.09195666015148163
1772697881912016600,0.5670166015625,0.027921341359615326,-0.0002737329341471195,0.09814690798521042
1772697881922065700,0.577065673828125,0.029740070924162865,0.02751299738883972,0.09644417464733124
1772697881932114700,0.58711474609375,0.030895883217453957,0.05815133452415466,0.10555990785360336
1772697881942163700,0.597163818359375,0.02077694982290268,0.09695038199424744,0.10958454757928848
1772697881952211700,0.607211669921875,-0.007338041439652443,0.12710429728031158,0.11625336855649948
1772697881962260700,0.6172607421875,-0.05423663556575775,0.16195377707481384,0.13179495930671692
1772697881972309500,0.6273095703125,-0.08466165512800217,0.16918905079364777,0.1453017145395279
1772697881982358800,0.63735888671875,-0.08849974721670151,0.1377488225698471,0.13526351749897003
1772697881992406000,0.647406005859375,-0.07523587346076965,0.13346566259860992,0.13533276319503784
1772697882002455300,0.657455322265625,-0.06859779357910156,0.12623231112957,0.12767092883586884
1772697882012504000,0.667504150390625,-0.06313671916723251,0.14369092881679535,0.12540778517723083
1772697882022553000,0.677552978515625,-0.05164148285984993,0.1698920577764511,0.13571615517139435
1772697882032601000,0.68760107421875,-0.04164291173219681,0.18025894463062286,0.13557501137256622
1772697882042650000,0.697650146484375,-0.04962623491883278,0.18581362068653107,0.12940651178359985
1772697882052699100,0.70769921875,-0.07413504272699356,0.18466952443122864,0.1289934664964676
1772697882062748200,0.717748046875,-0.10257866978645325,0.19745787978172302,0.12662427127361298
1772697882072796200,0.727796142578125,-0.12136727571487427,0.19052833318710327,0.10907217860221863
1772697882082845200,0.73784521484375,-0.136463925242424,0.18365564942359924,0.09757215529680252
1772697882092894000,0.74789404296875,-0.139529749751091,0.18139410018920898,0.08092527091503143
1772697882102942200,0.757942138671875,-0.142329603433609,0.17553436756134033,0.07300969213247299
1772697882112991000,0.767990966796875,-0.15509147942066193,0.17057237029075623,0.07139821350574493
1772697882123040300,0.778040283203125,-0.16041713953018188,0.16042618453502655,0.08023376762866974
1772697882133089000,0.788089111328125,-0.17283251881599426,0.15316534042358398,0.08959504216909409
1772697882143137300,0.79813720703125,-0.19235582649707794,0.15908873081207275,0.10291052609682083
1772697882153186000,0.80818603515625,-0.21084721386432648,0.16476604342460632,0.10069876909255981
1772697882163235000,0.818235107421875,-0.22629907727241516,0.1766694188117981,0.10366401076316833
1772697882173284000,0.8282841796875,-0.2479734718799591,0.18055470287799835,0.10701533406972885
1772697882183332000,0.83833203125,-0.26251140236854553,0.17271742224693298,0.11842340230941772
1772697882193381000,0.848381103515625,-0.27895137667655945,0.15808707475662231,0.1287652552127838
1772697882203430100,0.85843017578125,-0.28867849707603455,0.14867982268333435,0.1351173222064972
1772697882213478100,0.86847802734375,-0.29631033539772034,0.1467764675617218,0.1356523483991623
1772697882223527200,0.878527099609375,-0.3025748133659363,0.14572155475616455,0.12952932715415955
1772697882233576000,0.888575927734375,-0.309985876083374,0.15040738880634308,0.1323584020137787
1772697882243625200,0.898625244140625,-0.3187163770198822,0.15628331899642944,0.14222264289855957
1772697882253673000,0.9086728515625,-0.3169509470462799,0.1546417474746704,0.1613430678844452
1772697882263722200,0.91872216796875,-0.31425875425338745,0.13463354110717773,0.17378690838813782
1772697882273771000,0.92877099609375,-0.31149226427078247,0.1117844209074974,0.1806006133556366
1772697882283820000,0.938820068359375,-0.31353551149368286,0.10981225222349167,0.17064660787582397
1772697882293868000,0.948867919921875,-0.31203749775886536,0.11490528285503387,0.16219693422317505
1772697882303917000,0.9589169921875,-0.31915485858917236,0.11507443338632584,0.15216273069381714
1772697882313966000,0.968966064453125,-0.31617051362991333,0.09886270761489868,0.15128815174102783
1772697882324015000,0.97901513671875,-0.32209157943725586,0.08001355081796646,0.1556391417980194
1772697882334063000,0.98906298828125,-0.3330824375152588,0.06779070198535919,0.16146135330200195
1772697882344112000,0.999112060546875,-0.34377503395080566,0.06156916171312332,0.17621095478534698
1772697882354161200,1.0091611328125,-0.35046783089637756,0.05144728720188141,0.1857203096151352
1772697882364210200,1.019210205078125,-0.35803696513175964,0.028751369565725327,0.19876068830490112
1772697882374258000,1.0292578125,-0.3695865571498871,0.008224789053201675,0.21133826673030853
1772697882384307200,1.03930712890625,-0.38327470421791077,-0.003698561806231737,0.216109037399292
1772697882394356200,1.049356201171875,-0.39591673016548157,-0.001871633343398571,0.20863914489746094
1772697882404404200,1.059404296875,-0.410846471786499,0.019518908113241196,0.20013368129730225
1772697882414453000,1.069452880859375,-0.4250238239765167,0.03237345442175865,0.19218868017196655
1772697882424502000,1.079501953125,-0.442300021648407,0.04905096814036369,0.1813373565673828
1772697882434551300,1.08955126953125,-0.45475003123283386,0.06564832478761673,0.16832728683948517
1772697882444599000,1.09959912109375,-0.46067988872528076,0.07340574264526367,0.16394995152950287
1772697882454648300,1.1096484375,-0.4638192057609558,0.08722568303346634,0.15460625290870667
1772697882464697000,1.119697021484375,-0.46901950240135193,0.11043350398540497,0.14330285787582397
1772697882474746000,1.12974609375,-0.4702024757862091,0.1321883350610733,0.14250071346759796
1772697882484794000,1.139794189453125,-0.46448713541030884,0.14849130809307098,0.14290675520896912
1772697882494843100,1.149843017578125,-0.4459448754787445,0.18182796239852905,0.13154704868793488
1772697882504892200,1.15989208984375,-0.4268573224544525,0.22385524213314056,0.12311793863773346
1772697882514941200,1.169941162109375,-0.417328804731369,0.2898097634315491,0.1081555038690567
1772697882524989200,1.1799892578125,-0.4019390046596527,0.3645417094230652,0.09563618898391724
1772697882535038200,1.1900380859375,-0.39070606231689453,0.4192321002483368,0.09148991107940674
1772697882545087000,1.2000869140625,-0.39240413904190063,0.4375295042991638,0.0878932997584343
1772697882555136300,1.21013623046875,-0.40021252632141113,0.3969682455062866,0.09541486948728561
1772697882565184000,1.22018408203125,-0.42476433515548706,0.3207520544528961,0.09319804608821869
1772697882575233300,1.2302333984375,-0.47291693091392517,0.2154376357793808,0.09729798138141632
1772697882585282000,1.240281982421875,-0.48471421003341675,0.08923454582691193,0.12783649563789368
1772697882595330300,1.250330322265625,-0.4938054382801056,0.013044437393546104,0.15762154757976532
1772697882605379000,1.260379150390625,-0.4844288229942322,-0.03646526485681534,0.16336661577224731
1772697882615428000,1.270427978515625,-0.4784846305847168,-0.03677578642964363,0.17129617929458618
1772697882625477000,1.28047705078125,-0.4403643012046814,-0.03484492748975754,0.1942531019449234
1772697882635525000,1.290525146484375,-0.368401437997818,-0.02432197891175747,0.22601769864559174
1772697882645574100,1.30057421875,-0.31764477491378784,0.017578331753611565,0.25040221214294434
1772697882655623200,1.310623046875,-0.26863914728164673,0.10067268460988998,0.276431679725647
1772697882665672000,1.320671875,-0.22163867950439453,0.17609663307666779,0.2665448486804962
1772697882675720200,1.33072021484375,-0.17016269266605377,0.23780474066734314,0.23277753591537476
1772697882685769000,1.34076904296875,-0.12864866852760315,0.2820955514907837,0.18178841471672058
1772697882695818200,1.350818359375,-0.10792581737041473,0.2951647639274597,0.108064666390419
1772697882705867000,1.360866943359375,-0.09248010069131851,0.28794002532958984,0.038421157747507095
1772697882715915300,1.370915283203125,-0.08957219868898392,0.24813325703144073,-0.0183558389544487
1772697882725964000,1.380964111328125,-0.08362855017185211,0.17072021961212158,-0.05776423215866089
1772697882736013000,1.391012939453125,-0.07214431464672089,0.11489658802747726,-0.08332528173923492
1772697882746061000,1.40106103515625,-0.06080804392695427,0.05780891329050064,-0.11405695974826813
1772697882756110000,1.411110107421875,-0.054279573261737823,0.014937875792384148,-0.13781395554542542
1772697882766159000,1.4211591796875,-0.04657352715730667,-0.03302016109228134,-0.14758320152759552
1772697882776208100,1.4312080078125,-0.04054120182991028,-0.08165960013866425,-0.15480969846248627
1772697882786256100,1.441256103515625,-0.043629661202430725,-0.11530039459466934,-0.11762869358062744
1772697882796305200,1.45130517578125,-0.042595021426677704,-0.14693821966648102,-0.04292462766170502
1772697882806354000,1.46135400390625,-0.0332520566880703,-0.15767636895179749,0.041156020015478134
1772697882816403200,1.4714033203125,-0.02826821431517601,-0.14475685358047485,0.09560194611549377
1772697882826451000,1.481450927734375,-0.00972042977809906,-0.1261490434408188,0.11868104338645935
1772697882836500200,1.491500244140625,-0.0023578540422022343,-0.12629204988479614,0.0964772030711174
1772697882846549000,1.501549072265625,0.009056993760168552,-0.12130128592252731,0.05774587765336037
1772697882856598000,1.511597900390625,0.026549700647592545,-0.12038888782262802,0.012822343036532402
1772697882866646000,1.52164599609375,0.04290609434247017,-0.12319110333919525,-0.0399196594953537
1772697882876695000,1.531695068359375,0.05556463077664375,-0.13744567334651947,-0.07321929186582565
1772697882886744300,1.541744384765625,0.05574912205338478,-0.16051501035690308,-0.09731516987085342
1772697882896792000,1.5517919921875,0.055620227009058,-0.1848355233669281,-0.11194311082363129
1772697882906841000,1.561841064453125,0.047733258455991745,-0.20797505974769592,-0.10114890336990356
1772697882916890000,1.57189013671875,0.056991737335920334,-0.2528197467327118,-0.08848131448030472
1772697882926939100,1.581939208984375,0.06234177574515343,-0.30053776502609253,-0.08730704337358475
1772697882936987100,1.591987060546875,0.07116562128067017,-0.34008514881134033,-0.10127079486846924
1772697882947036000,1.602035888671875,0.07812552899122238,-0.375930517911911,-0.12450900673866272
1772697882957085200,1.612085205078125,0.08749133348464966,-0.39050599932670593,-0.1463293433189392
1772697882967134200,1.62213427734375,0.09045928716659546,-0.39011630415916443,-0.1555625945329666
1772697882977182200,1.63218212890625,0.08266927301883698,-0.3768329918384552,-0.15586140751838684
1772697882987231200,1.642231201171875,0.07027179002761841,-0.3828991651535034,-0.1452869176864624
1772697882997280300,1.6522802734375,0.05542892962694168,-0.41382965445518494,-0.11527976393699646
1772697883007329500,1.66232958984375,0.047519881278276443,-0.4628428816795349,-0.07939042896032333
1772697883017377300,1.672377197265625,0.06475213170051575,-0.5022616386413574,-0.055264055728912354
1772697883027426600,1.682426513671875,0.08772408962249756,-0.525439441204071,-0.03621887043118477
1772697883037475300,1.692475341796875,0.10942565649747849,-0.5497825741767883,-0.013336189091205597
1772697883047523600,1.702523681640625,0.13063514232635498,-0.5910051465034485,0.018696703016757965
1772697883057572400,1.712572265625,0.13513055443763733,-0.6270970702171326,0.04976434260606766
1772697883067621400,1.722621337890625,0.13144993782043457,-0.6501196622848511,0.07489220798015594
1772697883077670400,1.73267041015625,0.12244926393032074,-0.6622165441513062,0.07819212973117828
1772697883087718400,1.742718505859375,0.11042941361665726,-0.6624079942703247,0.061732809990644455
1772697883097767400,1.752767333984375,0.09444671869277954,-0.6600223183631897,0.030197519809007645
1772697883107816400,1.76281640625,0.09002438187599182,-0.6749293804168701,-0.0011904046405106783
1772697883117865200,1.772865234375,0.09754328429698944,-0.6929315328598022,-0.04014792665839195
1772697883127913500,1.78291357421875,0.1144140362739563,-0.7097400426864624,-0.07651294767856598
1772697883137962200,1.792962158203125,0.12359368801116943,-0.7103049159049988,-0.10644741356372833
1772697883148011500,1.803011474609375,0.13247516751289368,-0.7040338516235352,-0.1365938037633896
1772697883158060500,1.813060546875,0.1391972452402115,-0.6800539493560791,-0.1618509590625763
1772697883168108500,1.823108642578125,0.13824672996997833,-0.646584153175354,-0.18929241597652435
1772697883178157300,1.8331572265625,0.12737144529819489,-0.6062939763069153,-0.22265036404132843
1772697883188206300,1.843206298828125,0.11206231266260147,-0.5609748959541321,-0.2673248052597046
1772697883198254300,1.85325439453125,0.09211337566375732,-0.5221089720726013,-0.3103247582912445
1772697883208303400,1.863303466796875,0.07914325594902039,-0.4751681983470917,-0.3578623831272125
1772697883218352600,1.8733525390625,0.07147228717803955,-0.45459315180778503,-0.3915114104747772
1772697883228401400,1.8834013671875,0.07284343242645264,-0.41784119606018066,-0.4183598756790161
1772697883238449400,1.893449462890625,0.07442082464694977,-0.40908366441726685,-0.4166645109653473
1772697883248498400,1.90349853515625,0.09188614785671234,-0.36675727367401123,-0.4221903681755066
1772697883258547500,1.91354736328125,0.10969524085521698,-0.33371278643608093,-0.41550901532173157
1772697883268596500,1.923596435546875,0.1311691850423813,-0.29836946725845337,-0.4203813374042511
1772697883278644200,1.933644287109375,0.15090933442115784,-0.27325400710105896,-0.4270237982273102
1772697883288693500,1.943693603515625,0.15355412662029266,-0.2759351432323456,-0.43873101472854614
1772697883298742500,1.953742431640625,0.16034598648548126,-0.2981104850769043,-0.44044238328933716
1772697883308791300,1.963791259765625,0.18146111071109772,-0.3468817472457886,-0.44519752264022827
1772697883318839600,1.973839599609375,0.2027650624513626,-0.35456496477127075,-0.4435330629348755
1772697883328888300,1.983888427734375,0.21142826974391937,-0.3922920823097229,-0.4386095106601715
1772697883338937600,1.9939375,0.23987695574760437,-0.3890148103237152,-0.44266632199287415
1772697883348986400,2.003986328125,0.25717535614967346,-0.40575626492500305,-0.4337243139743805
1772697883359034600,2.01403466796875,0.27368801832199097,-0.4175090789794922,-0.44628432393074036
1772697883369083400,2.02408349609375,0.29138851165771484,-0.4025063216686249,-0.45203161239624023
1772697883379132400,2.03413232421875,0.28727206587791443,-0.3934718072414398,-0.45307794213294983
1772697883389180400,2.044180419921875,0.2900654971599579,-0.37738698720932007,-0.45102009177207947
1772697883399229400,2.0542294921875,0.2905999720096588,-0.366488516330719,-0.4511442184448242
1772697883409278500,2.064278564453125,0.2799523174762726,-0.3532809615135193,-0.4249483644962311
1772697883419327500,2.074327392578125,0.27866601943969727,-0.3254711925983429,-0.3844960033893585
1772697883429375500,2.08437548828125,0.2883153259754181,-0.31979694962501526,-0.33793380856513977
1772697883439424500,2.094424560546875,0.3083566725254059,-0.32219594717025757,-0.29680660367012024
1772697883449473300,2.104473388671875,0.33227890729904175,-0.3283556401729584,-0.27418646216392517
1772697883459522600,2.1145224609375,0.34868237376213074,-0.3142555356025696,-0.27016109228134155
1772697883469570300,2.1245703125,0.35787445306777954,-0.28001680970191956,-0.2730276882648468
1772697883479619600,2.13461962890625,0.36972150206565857,-0.24800826609134674,-0.28023794293403625
1772697883489668400,2.14466845703125,0.38131749629974365,-0.21338309347629547,-0.2826823890209198
1772697883499716600,2.154716552734375,0.39800673723220825,-0.18368138372898102,-0.28676289319992065
1772697883509765400,2.164765380859375,0.4120655655860901,-0.15276727080345154,-0.2997508645057678
1772697883519814400,2.174814453125,0.42581918835639954,-0.12972933053970337,-0.31304430961608887
1772697883529863400,2.184863525390625,0.4287749230861664,-0.10245250165462494,-0.3367655575275421
1772697883539911400,2.194911376953125,0.4262174665927887,-0.08950474858283997,-0.36205706000328064
1772697883549960400,2.20496044921875,0.4219203293323517,-0.09052026271820068,-0.38186293840408325
1772697883560009500,2.215009521484375,0.4218188524246216,-0.08330097794532776,-0.3990515172481537
1772697883570058200,2.225058349609375,0.42020052671432495,-0.08969804644584656,-0.4104302227497101
1772697883580106500,2.2351064453125,0.4145708680152893,-0.07936551421880722,-0.39978212118148804
1772697883590155300,2.2451552734375,0.41944119334220886,-0.08821570873260498,-0.3813897371292114
1772697883600204500,2.25520458984375,0.4253070652484894,-0.11255380511283875,-0.35719090700149536
1772697883610253300,2.26525341796875,0.43109071254730225,-0.12752386927604675,-0.3257835805416107
1772697883620301600,2.275301513671875,0.4392562210559845,-0.13344727456569672,-0.29240939021110535
1772697883630350300,2.285350341796875,0.4504726529121399,-0.1218424141407013,-0.26008662581443787
1772697883640399400,2.2953994140625,0.46446412801742554,-0.10906536132097244,-0.24183838069438934
1772697883650448400,2.305448486328125,0.4801856279373169,-0.11076834797859192,-0.23362235724925995
1772697883660496400,2.315496337890625,0.4950766861438751,-0.12590309977531433,-0.22588321566581726
1772697883670545400,2.32554541015625,0.5088392496109009,-0.15008588135242462,-0.22981171309947968
1772697883680594400,2.335594482421875,0.5162734389305115,-0.16458545625209808,-0.2380978763103485
1772697883690642400,2.345642333984375,0.5231031775474548,-0.19823677837848663,-0.2527890205383301
1772697883700691500,2.35569140625,0.5346139073371887,-0.21732579171657562,-0.28113678097724915
1772697883710740200,2.365740234375,0.5554913878440857,-0.2379993200302124,-0.3145093619823456
1772697883720789500,2.37578955078125,0.5742828845977783,-0.1902530938386917,-0.346161812543869
1772697883730837200,2.385837158203125,0.6041374802589417,-0.13676296174526215,-0.37634918093681335
1772697883740886500,2.395886474609375,0.6382943391799927,-0.11181367188692093,-0.44574210047721863
1772697883750935600,2.405935546875,0.6279956698417664,-0.021851832047104836,-0.504130482673645
1772697883760984300,2.415984375,0.6148766875267029,0.09327022731304169,-0.5535502433776855
1772697883771032300,2.4260322265625,0.5778058767318726,0.1607491821050644,-0.5868662595748901
1772697883781081300,2.436081298828125,0.5202118754386902,0.14060182869434357,-0.5900899767875671
1772697883791130600,2.446130615234375,0.48030367493629456,0.02439635805785656,-0.5967448353767395
1772697883801179400,2.456179443359375,0.44728392362594604,-0.02212986722588539,-0.5539678335189819
1772697883811227400,2.466227294921875,0.42375582456588745,-0.0557577982544899,-0.5164834856987
1772697883821276400,2.4762763671875,0.39288660883903503,-0.0650024265050888,-0.5083414316177368
1772697883831325400,2.486325439453125,0.35438597202301025,-0.06138152256608009,-0.5078092813491821
1772697883841373400,2.49637353515625,0.2947612702846527,-0.0718325674533844,-0.5080028772354126
1772697883851422500,2.50642236328125,0.24539275467395782,-0.09876810759305954,-0.48978930711746216
1772697883861471500,2.516471435546875,0.20171424746513367,-0.16582518815994263,-0.46321120858192444
1772697883871520500,2.5265205078125,0.1753612607717514,-0.24168843030929565,-0.4208325743675232
1772697883881568500,2.536568603515625,0.169078066945076,-0.3112797439098358,-0.34906917810440063
1772697883891617500,2.546617431640625,0.16021893918514252,-0.34113919734954834,-0.2643883228302002
1772697883901666300,2.556666259765625,0.14672629535198212,-0.33107268810272217,-0.1723758578300476
1772697883911715600,2.566715576171875,0.12317615747451782,-0.28452274203300476,-0.08161259442567825
1772697883921763300,2.576763427734375,0.10094542056322098,-0.2095390409231186,-0.0029830269049853086
1772697883931812600,2.5868125,0.0762639120221138,-0.09095001220703125,0.02726064808666706
1772697883941861400,2.596861328125,0.06019999086856842,0.03739065304398537,0.020434167236089706
1772697883951910400,2.606910400390625,0.035050906240940094,0.14145183563232422,0.02926357090473175
1772697883961958400,2.61695849609375,-0.007683775387704372,0.21387916803359985,0.0646657720208168
1772697883972007400,2.62700732421875,-0.06759785860776901,0.2586299479007721,0.12760944664478302
1772697883982056400,2.637056396484375,-0.12746839225292206,0.2738267481327057,0.2066536545753479
1772697883992105500,2.64710546875,-0.1760658621788025,0.258544385433197,0.28924137353897095
1772697884002153700,2.65715380859375,-0.2017539143562317,0.2292320281267166,0.3630002737045288
1772697884012202500,2.667202392578125,-0.21285665035247803,0.19094537198543549,0.4082096517086029
1772697884022251500,2.67725146484375,-0.2152351289987564,0.1670653373003006,0.43462449312210083
1772697884032299500,2.687299560546875,-0.22363531589508057,0.14329572021961212,0.44701698422431946
1772697884042348500,2.6973486328125,-0.2088869959115982,0.10512569546699524,0.44905057549476624
1772697884052397600,2.7073974609375,-0.18760886788368225,0.07380425184965134,0.410818487405777
1772697884062446600,2.717446533203125,-0.14167892932891846,0.037157025188207626,0.366025447845459
1772697884072494600,2.72749462890625,-0.09551742672920227,0.0017058919183909893,0.31766965985298157
1772697884082543600,2.737543701171875,-0.053542543202638626,-0.014910634607076645,0.2696230411529541
1772697884092592400,2.74759228515625,-0.01678592339158058,-0.01638771966099739,0.2308364063501358
1772697884102641700,2.7576416015625,0.012065698392689228,-0.004420272074639797,0.19097554683685303
1772697884112689400,2.767689453125,0.035320885479450226,-0.002658556681126356,0.15884092450141907
1772697884122738700,2.77773876953125,0.05131210386753082,0.0020344657823443413,0.1275556981563568
1772697884132787500,2.787787353515625,0.06431437283754349,0.0018426110036671162,0.10757216811180115
1772697884142836500,2.79783642578125,0.08243771642446518,0.002431169617921114,0.10621421784162521
1772697884152884500,2.807884521484375,0.08429302275180817,-0.00010541873052716255,0.11466852575540543
1772697884162933500,2.81793359375,0.08175929635763168,-0.0013848012313246727,0.1429784595966339
1772697884172982500,2.827982421875,0.059931155294179916,0.0016897148452699184,0.164519265294075
1772697884183031600,2.838031494140625,0.037050873041152954,-0.01086362823843956,0.19577252864837646
1772697884193079600,2.84807958984375,0.02005377784371376,-0.04091141000390053,0.2179880440235138
1772697884203128600,2.858128662109375,0.02143382653594017,-0.08645012974739075,0.23455317318439484
1772697884213177300,2.86817724609375,0.025327106937766075,-0.1323660910129547,0.23626430332660675
1772697884223225600,2.8782255859375,0.02438168413937092,-0.16908761858940125,0.22968070209026337
1772697884233274400,2.8882744140625,0.02540346421301365,-0.18567827343940735,0.2142874300479889
1772697884243323600,2.89832373046875,0.029274102300405502,-0.19802655279636383,0.1943507343530655
1772697884253372400,2.908372314453125,0.03481794893741608,-0.1884913444519043,0.18837642669677734
1772697884263420700,2.918420654296875,0.036311183124780655,-0.16013427078723907,0.17167547345161438
1772697884273469400,2.928469482421875,0.03407951071858406,-0.1157146468758583,0.15802708268165588
1772697884283518500,2.9385185546875,0.026451684534549713,-0.0686403438448906,0.1410643458366394
1772697884293567500,2.9485673828125,0.011851174756884575,-0.006575241219252348,0.11734839528799057
1772697884303615500,2.958615478515625,0.0010376761201769114,0.05746818706393242,0.08401760458946228
1772697884313664500,2.96866455078125,-0.018607061356306076,0.11489377170801163,0.05135010555386543
1772697884323713500,2.978713623046875,-0.04865763708949089,0.13742384314537048,0.032644595950841904
1772697884333762300,2.98876220703125,-0.06997350603342056,0.14449161291122437,0.030646460130810738
1772697884343810600,2.998810546875,-0.09495848417282104,0.15647955238819122,0.050850264728069305
1772697884353859300,3.008859375,-0.10954676568508148,0.1644803136587143,0.08420027792453766
1772697884363908600,3.01890869140625,-0.12014907598495483,0.16493944823741913,0.11599788814783096
1772697884373956400,3.028956298828125,-0.12108449637889862,0.15509890019893646,0.1430017352104187
1772697884384005600,3.039005615234375,-0.12494981288909912,0.15080109238624573,0.16577762365341187
1772697884394054400,3.049054443359375,-0.11231397837400436,0.12725795805454254,0.18778568506240845
1772697884404103400,3.059103515625,-0.10412929207086563,0.10201545059680939,0.20874689519405365
1772697884414151400,3.0691513671875,-0.0937536284327507,0.07267327606678009,0.21511177718639374
1772697884424200400,3.079200439453125,-0.08006018400192261,0.061562832444906235,0.21361641585826874
1772697884434249700,3.089249755859375,-0.07318668067455292,0.06192150339484215,0.19451263546943665
1772697884444298500,3.099298583984375,-0.06663663685321808,0.07166014611721039,0.1625613570213318
1772697884454346500,3.109346435546875,-0.06779244542121887,0.09052345901727676,0.12977735698223114
1772697884464395500,3.1193955078125,-0.08632005751132965,0.1020890325307846,0.09124860912561417
1772697884474444500,3.129444580078125,-0.10388422012329102,0.10503051429986954,0.06522071361541748
1772697884484493600,3.13949365234375,-0.12574610114097595,0.10971608012914658,0.03917872533202171
1772697884494541300,3.149541259765625,-0.1490762084722519,0.12757430970668793,0.023187201470136642
1772697884504590600,3.159590576171875,-0.16087454557418823,0.15024766325950623,0.013229907490313053
1772697884514639600,3.1696396484375,-0.1663675457239151,0.1676841825246811,0.0013369282241910696
1772697884524688400,3.1796884765625,-0.17065177857875824,0.19614991545677185,-0.0027425019070506096
1772697884534736600,3.189736572265625,-0.17387987673282623,0.21947216987609863,-0.0015133521519601345
1772697884544785400,3.199785400390625,-0.18526595830917358,0.244008406996727,0.007215424440801144
1772697884554834700,3.209834716796875,-0.20071808993816376,0.25386181473731995,0.026928981766104698
1772697884564882400,3.21988232421875,-0.224441796541214,0.2553214728832245,0.0527547188103199
1772697884574931700,3.229931640625,-0.2423725128173828,0.2579233646392822,0.0795135647058487
1772697884584980500,3.23998046875,-0.25912752747535706,0.2578109800815582,0.10306017100811005
1772697884595029500,3.250029541015625,-0.27277541160583496,0.2533256709575653,0.1237015351653099
1772697884605077500,3.260077392578125,-0.2854904234409332,0.23432855308055878,0.14653734862804413
1772697884615126500,3.27012646484375,-0.29794690012931824,0.2026647925376892,0.16820910573005676
1772697884625175600,3.280175537109375,-0.31985166668891907,0.1765969693660736,0.1911727488040924
1772697884635224600,3.290224609375,-0.3394632935523987,0.15504688024520874,0.21151196956634521
1772697884645272600,3.3002724609375,-0.35169893503189087,0.14446374773979187,0.2197675108909607
1772697884655321600,3.310321533203125,-0.3623638451099396,0.13709689676761627,0.2277720868587494
1772697884665370400,3.320370361328125,-0.3643420338630676,0.13437753915786743,0.2322925329208374
1772697884675419600,3.330419677734375,-0.36306244134902954,0.1362810730934143,0.23738788068294525
1772697884685467400,3.34046728515625,-0.3674851357936859,0.14573928713798523,0.23553991317749023
1772697884695516700,3.3505166015625,-0.37290042638778687,0.14728966355323792,0.23075497150421143
1772697884705565400,3.3605654296875,-0.3858300745487213,0.145829975605011,0.22976933419704437
1772697884715613700,3.37061376953125,-0.3947003185749054,0.1445751190185547,0.21366029977798462
1772697884725662500,3.380662353515625,-0.40781906247138977,0.14674852788448334,0.19941876828670502
1772697884735711500,3.39071142578125,-0.42213383316993713,0.14242969453334808,0.18592728674411774
1772697884745760500,3.400760498046875,-0.4393937885761261,0.1388208568096161,0.17776095867156982
1772697884755808500,3.41080859375,-0.4491991400718689,0.14105023443698883,0.17710869014263153
1772697884765857500,3.420857421875,-0.4565984606742859,0.13747547566890717,0.1859021782875061
1772697884775906600,3.430906494140625,-0.46343010663986206,0.14057718217372894,0.19464558362960815
1772697884785955300,3.440955322265625,-0.4689159691333771,0.13851536810398102,0.21817727386951447
1772697884796003600,3.451003662109375,-0.4775295555591583,0.12651923298835754,0.24050204455852509
1772697884806052400,3.46105224609375,-0.48941364884376526,0.10943584889173508,0.2644965946674347
1772697884816101600,3.4711015625,-0.4993124306201935,0.09643569588661194,0.28961771726608276
1772697884826150400,3.481150390625,-0.5097751617431641,0.07509871572256088,0.30193910002708435
1772697884836198700,3.49119873046875,-0.5141354203224182,0.04473232477903366,0.294952929019928
1772697884846247400,3.501247314453125,-0.5151125192642212,0.014690804295241833,0.2821846604347229
1772697884856296400,3.51129638671875,-0.5217487812042236,-0.0119432732462883,0.25860050320625305
1772697884866344400,3.521344482421875,-0.5334176421165466,-0.014820020645856857,0.2420867681503296
1772697884876393500,3.5313935546875,-0.5319063663482666,-0.0062181418761610985,0.2157309353351593
1772697884886442500,3.5414423828125,-0.5111648440361023,0.03651014715433121,0.1842166930437088
1772697884896491500,3.551491455078125,-0.4793321192264557,0.14367364346981049,0.15787871181964874
1772697884906539500,3.56153955078125,-0.4571429491043091,0.3010573983192444,0.10350814461708069
1772697884916588500,3.571588623046875,-0.4357503056526184,0.40245822072029114,0.06288591772317886
1772697884926637300,3.58163720703125,-0.42300039529800415,0.4002717435359955,0.027280518785119057
1772697884936686600,3.5916865234375,-0.4242074489593506,0.3464539349079132,0.010343983769416809
1772697884946734300,3.601734375,-0.42492303252220154,0.28818878531455994,0.03717879205942154
1772697884956783600,3.61178369140625,-0.4302276372909546,0.25338757038116455,0.08988068252801895
1772697884966832600,3.62183251953125,-0.43885093927383423,0.2190927416086197,0.1364540457725525
1772697884976881400,3.63188134765625,-0.45803895592689514,0.12696757912635803,0.16509361565113068
1772697884986929400,3.641929443359375,-0.46942102909088135,-0.003927587531507015,0.18097910284996033
1772697884996978200,3.651978271484375,-0.4662793278694153,-0.11756706982851028,0.19707250595092773
1772697885007027500,3.66202734375,-0.4439828097820282,-0.1899198442697525,0.18195798993110657
1772697885017076200,3.672076171875,-0.40866968035697937,-0.2397974282503128,0.16532030701637268
1772697885027124500,3.68212451171875,-0.3501847982406616,-0.2752489149570465,0.14167863130569458
1772697885037173200,3.69217333984375,-0.28918150067329407,-0.2979511022567749,0.10711123049259186
1772697885047222300,3.70222216796875,-0.21976061165332794,-0.31718283891677856,0.06259623169898987
1772697885057270300,3.712270263671875,-0.1489008218050003,-0.29934191703796387,-0.006782006472349167
1772697885067319300,3.7223193359375,-0.0759136900305748,-0.24687552452087402,-0.08281125873327255
1772697885077368300,3.732368408203125,-0.01579662226140499,-0.16907082498073578,-0.155539870262146
1772697885087417300,3.742417236328125,0.015162091702222824,-0.0762234479188919,-0.20482540130615234
1772697885097465300,3.75246533203125,0.02668045647442341,-0.042016055434942245,-0.20151080191135406
1772697885107514400,3.762514404296875,0.03468005731701851,-0.058014195412397385,-0.18305110931396484
1772697885117563100,3.772563232421875,0.04186951741576195,-0.1152801439166069,-0.167402982711792
1772697885127612400,3.7826123046875,0.04652765393257141,-0.20361347496509552,-0.18611621856689453
1772697885137660200,3.79266015625,0.04301975294947624,-0.2998157739639282,-0.21458928287029266
1772697885147709400,3.80270947265625,0.0251973457634449,-0.38122594356536865,-0.25557267665863037
1772697885157758200,3.81275830078125,0.007583266124129295,-0.4420492351055145,-0.2968190014362335
1772697885167807200,3.82280712890625,-0.007824452593922615,-0.45982372760772705,-0.3631895184516907
1772697885177855200,3.832855224609375,-0.02430369146168232,-0.4743857979774475,-0.4209055006504059
1772697885187904300,3.842904296875,-0.034734759479761124,-0.49295973777770996,-0.4610728919506073
1772697885197953300,3.852953369140625,-0.04577270895242691,-0.5097019076347351,-0.4776862561702728
1772697885208002300,3.863002197265625,-0.05537686496973038,-0.5166381001472473,-0.4612175226211548
1772697885218050300,3.87305029296875,-0.056583013385534286,-0.5177347660064697,-0.4281083047389984
1772697885228099300,3.883099365234375,-0.05142393708229065,-0.5169216990470886,-0.388127863407135
1772697885238148000,3.893148193359375,-0.05650559440255165,-0.48953717947006226,-0.35957100987434387
1772697885248196400,3.9031962890625,-0.07082781195640564,-0.45438212156295776,-0.3330533802509308
1772697885258245000,3.9132451171875,-0.059221867471933365,-0.41645482182502747,-0.3188591003417969
1772697885268294400,3.92329443359375,-0.05541354417800903,-0.3817298412322998,-0.30433499813079834
1772697885278343200,3.93334326171875,-0.05819690227508545,-0.35466623306274414,-0.28359249234199524
1772697885288391400,3.943391357421875,-0.06089628487825394,-0.3593163788318634,-0.24624963104724884
1772697885298440200,3.953440185546875,-0.0494002141058445,-0.36154890060424805,-0.20865565538406372
1772697885308489200,3.9634892578125,-0.019070249050855637,-0.34332478046417236,-0.16517242789268494
1772697885318538500,3.97353857421875,0.017552677541971207,-0.29649701714515686,-0.1268632411956787
1772697885328586200,3.983586181640625,0.06773994863033295,-0.24864615499973297,-0.08919868618249893
1772697885338635300,3.99363525390625,0.1048869863152504,-0.22610045969486237,-0.07902797311544418
1772697885348684300,4.003684326171875,0.127268984913826,-0.26251280307769775,-0.07200121879577637
1772697885358733300,4.0137333984375,0.13795724511146545,-0.3251764476299286,-0.06157515197992325
1772697885368781300,4.02378125,0.1346818208694458,-0.38435640931129456,-0.058790285140275955
1772697885378830000,4.033830078125,0.127192884683609,-0.42310091853141785,-0.07809875905513763
1772697885388879400,4.04387939453125,0.12124896794557571,-0.44893279671669006,-0.1101677417755127
1772697885398928400,4.053928466796875,0.11805512011051178,-0.44926437735557556,-0.142281174659729
1772697885408976400,4.063976318359375,0.11853155493736267,-0.438360333442688,-0.16720063984394073
1772697885419025400,4.074025390625,0.12085995823144913,-0.4024878442287445,-0.19043467938899994
1772697885429074200,4.08407421875,0.1294691562652588,-0.36637163162231445,-0.20462612807750702
1772697885439122200,4.0941220703125,0.13617759943008423,-0.3234602212905884,-0.21274015307426453
1772697885449171200,4.104171142578125,0.1424006074666977,-0.2806363105773926,-0.2122514694929123
1772697885459220500,4.114220458984375,0.15140387415885925,-0.23896394670009613,-0.22481052577495575
1772697885469269200,4.124269287109375,0.16768591105937958,-0.1990647315979004,-0.23267990350723267
1772697885479317500,4.1343173828125,0.1776222288608551,-0.16017182171344757,-0.23707669973373413
1772697885489366300,4.1443662109375,0.18160179257392883,-0.12811775505542755,-0.2337016761302948
1772697885499415300,4.154415283203125,0.18525312840938568,-0.0917399674654007,-0.23606041073799133
1772697885509464300,4.16446435546875,0.18765263259410858,-0.07275082916021347,-0.23488275706768036
1772697885519512300,4.17451220703125,0.19121608138084412,-0.05602423846721649,-0.22810569405555725
1772697885529561300,4.184561279296875,0.19719301164150238,-0.06257747858762741,-0.22356155514717102
1772697885539610400,4.1946103515625,0.190575510263443,-0.07456380873918533,-0.21806925535202026
1772697885549659100,4.2046591796875,0.18817147612571716,-0.08022462576627731,-0.20640622079372406
1772697885559707400,4.214707275390625,0.18488910794258118,-0.08012714236974716,-0.20537598431110382
1772697885569756200,4.224756103515625,0.19141492247581482,-0.07966109365224838,-0.198993980884552
1772697885579805400,4.234805419921875,0.20885999500751495,-0.08228111267089844,-0.1987394094467163
1772697885589853200,4.244853271484375,0.229349285364151,-0.09105010330677032,-0.20269180834293365
1772697885599902500,4.25490234375,0.25565239787101746,-0.08751137554645538,-0.21312378346920013
1772697885609951200,4.264951171875,0.2864619791507721,-0.09935151785612106,-0.23255686461925507
1772697885620000300,4.275000244140625,0.3095093071460724,-0.1097119003534317,-0.2538485825061798
1772697885630048300,4.28504833984375,0.3262304961681366,-0.11659271270036697,-0.2742513418197632
1772697885640097300,4.29509716796875,0.3386435806751251,-0.11785346269607544,-0.28531044721603394
1772697885650146300,4.305146240234375,0.34486445784568787,-0.14064186811447144,-0.2960062325000763
1772697885660195300,4.3151953125,0.33976665139198303,-0.17369748651981354,-0.295952171087265
1772697885670243300,4.325243408203125,0.3452490568161011,-0.21456874907016754,-0.2905944287776947
1772697885680292400,4.335292236328125,0.3614453375339508,-0.24049383401870728,-0.2927188277244568
1772697885690341000,4.345341064453125,0.37946027517318726,-0.25705787539482117,-0.3041296899318695
1772697885700390400,4.355390380859375,0.40274757146835327,-0.27612069249153137,-0.321085125207901
1772697885710438100,4.365438232421875,0.4202013909816742,-0.30274537205696106,-0.3280032277107239
1772697885720487400,4.3754873046875,0.42578235268592834,-0.3397958278656006,-0.3283761143684387
1772697885730536200,4.3855361328125,0.4282689392566681,-0.364719033241272,-0.3180971145629883
1772697885740585200,4.395585205078125,0.4186175465583801,-0.38517215847969055,-0.3096202313899994
1772697885750633200,4.40563330078125,0.40860751271247864,-0.4030153453350067,-0.29134804010391235
1772697885760682200,4.41568212890625,0.39990705251693726,-0.4176824986934662,-0.2767241299152374
1772697885770731300,4.425731201171875,0.3963210880756378,-0.41877543926239014,-0.26083728671073914
1772697885780780300,4.4357802734375,0.39928510785102844,-0.4229419231414795,-0.2544345557689667
1772697885790828300,4.445828369140625,0.4059952199459076,-0.42965975403785706,-0.2516622245311737
1772697885800877300,4.455877197265625,0.4185069501399994,-0.43052804470062256,-0.2559255361557007
1772697885810926000,4.465926025390625,0.4312962591648102,-0.4163041114807129,-0.26413047313690186
1772697885820974300,4.475974365234375,0.44618460536003113,-0.4024685323238373,-0.2796666622161865
1772697885831023000,4.486023193359375,0.46658629179000854,-0.3930598497390747,-0.29258406162261963
1772697885841072400,4.496072265625,0.48385825753211975,-0.40434345602989197,-0.3103094696998596
1772697885851121400,4.506121337890625,0.5057843327522278,-0.4323998689651489,-0.3175783157348633
1772697885861169400,4.51616943359375,0.525137722492218,-0.4618237614631653,-0.32413434982299805
1772697885871218200,4.52621826171875,0.5409517884254456,-0.4815828204154968,-0.3342849910259247
1772697885881267200,4.53626708984375,0.5501499176025391,-0.4970526099205017,-0.3370305001735687
1772697885891316500,4.54631640625,0.5714994072914124,-0.49626457691192627,-0.33778682351112366
1772697885901364200,4.5563642578125,0.5968598127365112,-0.4990355372428894,-0.3385392427444458
1772697885911413500,4.56641357421875,0.6349264979362488,-0.4897054135799408,-0.3412492573261261
1772697885921462300,4.576462158203125,0.6486290693283081,-0.4813467264175415,-0.35015442967414856
1772697885931511300,4.58651123046875,0.6752942204475403,-0.4599950909614563,-0.3583154082298279
1772697885941559300,4.596559326171875,0.7006253600120544,-0.4423280358314514,-0.35562750697135925
1772697885951608300,4.6066083984375,0.7138969302177429,-0.4246281385421753,-0.34464436769485474
1772697885961657300,4.6166572265625,0.730880856513977,-0.4479396641254425,-0.3090859353542328
1772697885971705000,4.626705078125,0.7451236844062805,-0.46282804012298584,-0.2900470197200775
1772697885981754400,4.63675439453125,0.7517986297607422,-0.46839195489883423,-0.28517135977745056
1772697885991803400,4.646803466796875,0.7638121247291565,-0.455863356590271,-0.29025986790657043
1772697886001852200,4.65685205078125,0.790414035320282,-0.42306020855903625,-0.30860206484794617
1772697886011900200,4.666900146484375,0.8166565895080566,-0.38175860047340393,-0.3223564922809601
1772697886021949200,4.67694921875,0.8393615484237671,-0.3449162542819977,-0.32999706268310547
1772697886031998200,4.686998291015625,0.8532699346542358,-0.31380733847618103,-0.33565255999565125
1772697886042047200,4.697047119140625,0.8613617420196533,-0.2829858064651489,-0.3433959484100342
1772697886052095200,4.70709521484375,0.8592045903205872,-0.25273120403289795,-0.3393807113170624
1772697886062144300,4.717144287109375,0.8528353571891785,-0.23655492067337036,-0.3350963890552521
1772697886072193300,4.727193359375,0.8509178757667542,-0.24348285794258118,-0.32276007533073425
1772697886082242300,4.7372421875,0.8513933420181274,-0.23538607358932495,-0.3271217942237854
1772697886092290000,4.7472900390625,0.863463282585144,-0.21059870719909668,-0.3282134234905243
1772697886102339300,4.75733935546875,0.8751756548881531,-0.17474524676799774,-0.3363763093948364
1772697886112388400,4.767388427734375,0.8861436247825623,-0.13379807770252228,-0.32645177841186523
1772697886122437000,4.77743701171875,0.8834555745124817,-0.10910090804100037,-0.2965119779109955
1772697886132485400,4.7874853515625,0.8875799775123596,-0.04269872233271599,-0.25841066241264343
1772697886142534100,4.7975341796875,0.8926252126693726,0.08168518543243408,-0.23715950548648834
1772697886152583400,4.80758349609375,0.8751149773597717,0.32338809967041016,-0.26380470395088196
1772697886162631200,4.817631103515625,0.8822420239448547,0.6260524988174438,-0.2616533935070038
1772697886172680400,4.827680419921875,0.8893404006958008,0.791239857673645,-0.2609228789806366
1772697886182729200,4.837729248046875,0.8673502206802368,0.7445473670959473,-0.2672536075115204
1772697886192778200,4.8477783203125,0.8398075103759766,0.6001406908035278,-0.2637976109981537
1772697886202826200,4.857826171875,0.7912609577178955,0.38381728529930115,-0.2560311555862427
1772697886212875300,4.867875244140625,0.7133437991142273,0.09549496322870255,-0.22769777476787567
1772697886222924300,4.87792431640625,0.5941194295883179,-0.2648064196109772,-0.17029660940170288
1772697886232973300,4.887973388671875,0.4765225052833557,-0.5556238889694214,-0.1211778074502945
1772697886243021300,4.898021240234375,0.3995622992515564,-0.7942469120025635,-0.13132451474666595
1772697886253070300,4.9080703125,0.33786723017692566,-0.9511576890945435,-0.11620254814624786
1772697886263119000,4.918119140625,0.30047810077667236,-0.9882745742797852,-0.05433883145451546
1772697886273168400,4.92816845703125,0.2777552008628845,-0.9215338826179504,0.009431358426809311
1772697886283216100,4.938216064453125,0.2839307188987732,-0.7876078486442566,0.039277996867895126
1772697886293265400,4.948265380859375,0.28864264488220215,-0.5899916887283325,0.020200444385409355
1772697886303314200,4.958314208984375,0.28407132625579834,-0.3522305488586426,-0.05154351890087128
1772697886313363200,4.96836328125,0.2585923373699188,-0.11274631321430206,-0.16257736086845398
1772697886323411200,4.9784111328125,0.22351203858852386,0.17405366897583008,-0.257891982793808
1772697886333460200,4.988460205078125,0.17966201901435852,0.44297751784324646,-0.335934579372406
1772697886343509200,4.99850927734375,0.13041424751281738,0.6184428334236145,-0.38649001717567444
1772697886353557200,5.00855712890625,0.05843619629740715,0.7183353900909424,-0.3773505687713623
1772697886363606300,5.018606201171875,-0.02917308174073696,0.7638027667999268,-0.3067023754119873
1772697886373655300,5.0286552734375,-0.10623297840356827,0.7516651153564453,-0.17091310024261475
1772697886383704000,5.0387041015625,-0.1556452065706253,0.643457293510437,0.018861694261431694
1772697886393752300,5.04875244140625,-0.16820387542247772,0.455774188041687,0.2246050089597702
1772697886403801000,5.058801025390625,-0.15554732084274292,0.30423322319984436,0.39511746168136597
1772697886413850400,5.068850341796875,-0.15968002378940582,0.22666652500629425,0.5139825940132141
1772697886423899100,5.078899169921875,-0.16435140371322632,0.168269082903862,0.5893725156784058
1772697886433947400,5.088947509765625,-0.17095737159252167,0.12022698670625687,0.6386415362358093
1772697886443996200,5.09899609375,-0.17877395451068878,0.07066845893859863,0.686448335647583
1772697886454045200,5.109045166015625,-0.1663372665643692,0.02262449823319912,0.7279289364814758
1772697886464094200,5.11909423828125,-0.15025396645069122,-0.00761420140042901,0.7711449265480042
1772697886474142200,5.12914208984375,-0.13673922419548035,-0.01421670988202095,0.7862913608551025
1772697886484191200,5.139191162109375,-0.11950938403606415,-0.015244295820593834,0.7827756404876709
1772697886494240300,5.149240234375,-0.10032370686531067,-0.040529146790504456,0.7627164125442505
1772697886504289300,5.159289306640625,-0.08737527579069138,-0.05178879201412201,0.7253627181053162
1772697886514337300,5.169337158203125,-0.0798872709274292,-0.05515076592564583,0.6944026350975037
1772697886524386000,5.179385986328125,-0.08759531378746033,-0.02937876060605049,0.6674789786338806
1772697886534435300,5.189435302734375,-0.11282530426979065,0.019863886758685112,0.6632051467895508
1772697886544483000,5.199483154296875,-0.1528935581445694,0.06249987706542015,0.666735827922821
1772697886554532400,5.209532470703125,-0.20134498178958893,0.10673737525939941,0.6820425987243652
1772697886564581000,5.2195810546875,-0.2601917088031769,0.14971765875816345,0.7068701982498169
1772697886574630100,5.229630126953125,-0.3091145157814026,0.16054926812648773,0.7250880599021912
1772697886584678100,5.23967822265625,-0.3448934257030487,0.1446290910243988,0.724941611289978
1772697886594727200,5.24972705078125,-0.36660563945770264,0.13477405905723572,0.7201886177062988
1772697886604776400,5.2597763671875,-0.3757242262363434,0.1263793706893921,0.7105626463890076
1772697886614825200,5.2698251953125,-0.38254591822624207,0.10149586200714111,0.6890467405319214
1772697886624873200,5.279873291015625,-0.38084810972213745,0.0815223902463913,0.6534579396247864
1772697886634922200,5.289922119140625,-0.37715989351272583,0.05848737433552742,0.616791844367981
1772697886644971300,5.29997119140625,-0.3748030662536621,0.0643446072936058,0.5925825834274292
1772697886655020300,5.310020263671875,-0.37450453639030457,0.08794181793928146,0.5696346759796143
1772697886665068300,5.320068359375,-0.38192373514175415,0.1320224106311798,0.5486336350440979
1772697886675117300,5.330117431640625,-0.3930176794528961,0.19096189737319946,0.5085277557373047
1772697886685166300,5.340166259765625,-0.41066092252731323,0.24694210290908813,0.46717214584350586
1772697886695214300,5.35021435546875,-0.409335732460022,0.29043498635292053,0.41080260276794434
1772697886705263400,5.360263427734375,-0.4072324335575104,0.33180099725723267,0.3648955821990967
1772697886715312000,5.37031201171875,-0.3988959491252899,0.3610382378101349,0.3271191716194153
1772697886725360000,5.380360107421875,-0.39599376916885376,0.3872603476047516,0.3016062080860138
1772697886735409200,5.3904091796875,-0.40580883622169495,0.4036795198917389,0.294536828994751
1772697886745458400,5.40045849609375,-0.41471797227859497,0.41713955998420715,0.31304439902305603
1772697886755507200,5.410507080078125,-0.4249298572540283,0.43284448981285095,0.33777397871017456
1772697886765555500,5.420555419921875,-0.4347458779811859,0.44101324677467346,0.36859238147735596
1772697886775604200,5.430604248046875,-0.4393925666809082,0.4362541735172272,0.39017197489738464
1772697886785653200,5.4406533203125,-0.44364824891090393,0.41867274045944214,0.4005221128463745
1772697886795702300,5.450702392578125,-0.44988033175468445,0.39499059319496155,0.39910903573036194
1772697886805750300,5.460750244140625,-0.4430764615535736,0.3769322633743286,0.3946225941181183
1772697886815799300,5.47079931640625,-0.43509814143180847,0.35462215542793274,0.38512149453163147
1772697886825848300,5.480848388671875,-0.4236900806427002,0.341962993144989,0.390392929315567
1772697886835897000,5.49089697265625,-0.41368940472602844,0.3212486803531647,0.4004535377025604
1772697886845945300,5.5009453125,-0.41236546635627747,0.28488677740097046,0.42200368642807007
1772697886855994000,5.510994140625,-0.41941165924072266,0.2290796935558319,0.43840742111206055
1772697886866043400,5.52104345703125,-0.4229753017425537,0.17283256351947784,0.4328068792819977
1772697886876092200,5.531092041015625,-0.42435401678085327,0.13001452386379242,0.41007307171821594
1772697886886140400,5.541140380859375,-0.4183523952960968,0.11133142560720444,0.35880717635154724
1772697886896189200,5.551189208984375,-0.40642011165618896,0.11749691516160965,0.2974601984024048
1772697886906238200,5.56123828125,-0.39262452721595764,0.14565019309520721,0.23392461240291595
1772697886916287200,5.571287353515625,-0.37234508991241455,0.19181156158447266,0.1745305210351944
1772697886926335200,5.581335205078125,-0.3581257462501526,0.2410018891096115,0.12289433181285858
1772697886936384300,5.59138427734375,-0.3509780764579773,0.27719053626060486,0.07481575012207031
1772697886946433300,5.601433349609375,-0.34982314705848694,0.2959943413734436,0.031235845759510994
1772697886956481300,5.611481201171875,-0.3471197485923767,0.29340308904647827,-0.01747896336019039
1772697886966530300,5.6215302734375,-0.34105581045150757,0.283020943403244,-0.05639093741774559
1772697886976579000,5.6315791015625,-0.340273916721344,0.2690204381942749,-0.07285060733556747
1772697886986628400,5.64162841796875,-0.33214813470840454,0.2598382830619812,-0.08092813938856125
1772697886996676000,5.651676025390625,-0.3179481625556946,0.24522152543067932,-0.07359591871500015
1772697887006724600,5.661724609375,-0.2989514470100403,0.22962424159049988,-0.06499698758125305
1772697887016773400,5.6717734375,-0.2880721688270569,0.20680759847164154,-0.05963071808218956
1772697887026822700,5.68182275390625,-0.26858967542648315,0.1919604241847992,-0.04707110673189163
1772697887036870400,5.691870361328125,-0.2522919178009033,0.1762762814760208,-0.029337115585803986
1772697887046919700,5.701919677734375,-0.2482357919216156,0.157417431473732,-0.01370167639106512
1772697887056968400,5.711968505859375,-0.24884511530399323,0.13574010133743286,-0.0010782926110550761
1772697887067017500,5.722017578125,-0.25309306383132935,0.12488661706447601,0.004339147824794054
1772697887077065500,5.7320654296875,-0.2585160732269287,0.13545003533363342,-0.00881553627550602
1772697887087114500,5.742114501953125,-0.2721216082572937,0.13451899588108063,-0.022691670805215836
1772697887097163800,5.752163818359375,-0.28533169627189636,0.13727004826068878,-0.0356636606156826
1772697887107212500,5.762212646484375,-0.2971797585487366,0.1499682366847992,-0.05471597611904144
1772697887117260500,5.772260498046875,-0.3028096854686737,0.179478719830513,-0.07899121940135956
1772697887127309600,5.7823095703125,-0.31764155626296997,0.2032179832458496,-0.10153019428253174
1772697887137358600,5.792358642578125,-0.32259079813957214,0.20114603638648987,-0.12089136987924576
1772697887147407600,5.80240771484375,-0.33562371134757996,0.22357289493083954,-0.1222134605050087
1772697887157455600,5.81245556640625,-0.3523811101913452,0.2149447798728943,-0.11007850617170334
1772697887167504600,5.822504638671875,-0.3758547306060791,0.23425041139125824,-0.09875193983316422
1772697887177553700,5.8325537109375,-0.41656941175460815,0.27098262310028076,-0.07196799665689468
1772697887187602400,5.8426025390625,-0.45357608795166016,0.2664048373699188,-0.04421453922986984
1772697887197650700,5.852650634765625,-0.4924555718898773,0.27411550283432007,-0.018816504627466202
1772697887207699500,5.862699462890625,-0.5179344415664673,0.2612360119819641,0.014632103964686394
1772697887217748700,5.872748779296875,-0.5225757956504822,0.2723270356655121,0.0507136769592762
1772697887227797500,5.882797607421875,-0.5202061533927917,0.2945125102996826,0.09659814089536667
1772697887237845800,5.892845703125,-0.48309823870658875,0.330765038728714,0.16631436347961426
1772697887247894500,5.90289453125,-0.4613227844238281,0.39746996760368347,0.22113320231437683
1772697887257943600,5.912943603515625,-0.44880086183547974,0.4829491674900055,0.25994130969047546
1772697887267992600,5.92299267578125,-0.4498405456542969,0.4882257282733917,0.30982357263565063
1772697887278040600,5.93304052734375,-0.45218732953071594,0.3949778079986572,0.383807510137558
1772697887288089600,5.943089599609375,-0.4280308783054352,0.26324746012687683,0.4645186960697174
1772697887298138600,5.953138671875,-0.3932262659072876,0.17336444556713104,0.5291988849639893
1772697887308186600,5.9631865234375,-0.347295343875885,0.15623514354228973,0.5400750637054443
1772697887318235600,5.973235595703125,-0.29991957545280457,0.18129442632198334,0.505203902721405
1772697887328284400,5.983284423828125,-0.2701331079006195,0.19756324589252472,0.44600406289100647
1772697887338333700,5.993333740234375,-0.2426769882440567,0.1915234625339508,0.3808719217777252
1772697887348381400,6.00338134765625,-0.23584257066249847,0.16116853058338165,0.30456405878067017
1772697887358430700,6.0134306640625,-0.2350122034549713,0.10670369118452072,0.21431273221969604
1772697887368479500,6.0234794921875,-0.2204924374818802,0.056272510439157486,0.11484327167272568
1772697887378528500,6.033528564453125,-0.20456619560718536,0.02885446511209011,0.018257610499858856
1772697887388576500,6.043576416015625,-0.20131203532218933,0.02469203621149063,-0.050398338586091995
1772697887398625500,6.05362548828125,-0.19152411818504333,-0.002842916641384363,-0.08139673620462418
1772697887408674600,6.063674560546875,-0.1805514246225357,-0.04563882201910019,-0.08619356155395508
1772697887418723600,6.0737236328125,-0.1634424775838852,-0.078575998544693,-0.058244213461875916
1772697887428771600,6.083771484375,-0.1522548645734787,-0.08331583440303802,-0.008105365559458733
1772697887438820600,6.093820556640625,-0.14424113929271698,-0.06994729489088058,0.04616319760680199
1772697887448869400,6.103869384765625,-0.14309459924697876,-0.07533533126115799,0.09287504106760025
1772697887458918700,6.113918701171875,-0.10784206539392471,-0.08314025402069092,0.11154539883136749
1772697887468966400,6.12396630859375,-0.07362157106399536,-0.053336240351200104,0.10885263979434967
1772697887479015700,6.134015625,-0.07439602166414261,-0.023685405030846596,0.09585561603307724
1772697887489064400,6.144064453125,-0.07486274093389511,-0.01936209946870804,0.08138343691825867
1772697887499113500,6.154113525390625,-0.07818823307752609,-0.02383328042924404,0.054061271250247955
1772697887509161500,6.164161376953125,-0.068594790995121,-0.060159169137477875,0.024058997631072998
1772697887519210500,6.17421044921875,-0.06183675304055214,-0.11878466606140137,-0.004857606254518032
1772697887529259800,6.184259765625,-0.06329889595508575,-0.15192122757434845,-0.018580283969640732
1772697887539308500,6.19430859375,-0.07249798625707626,-0.21721234917640686,-0.013653435744345188
1772697887549356500,6.2043564453125,-0.09091795235872269,-0.29164406657218933,0.007523346226662397
1772697887559405600,6.214405517578125,-0.11091083288192749,-0.35218358039855957,0.009409929625689983
1772697887569454600,6.22445458984375,-0.12871232628822327,-0.37624701857566833,-0.02340889908373356
1772697887579503600,6.234503662109375,-0.1448819637298584,-0.34580737352371216,-0.05525577440857887
1772697887589551400,6.24455126953125,-0.14759379625320435,-0.28570541739463806,-0.10305531322956085
1772697887599600600,6.2546005859375,-0.1439702957868576,-0.25617894530296326,-0.1589673012495041
1772697887609649700,6.264649658203125,-0.1436035931110382,-0.20058749616146088,-0.20865243673324585
1772697887619697700,6.27469775390625,-0.15864646434783936,-0.14047010242938995,-0.2581067979335785
1772697887629746700,6.28474658203125,-0.1834057867527008,-0.06788992136716843,-0.27684274315834045
1772697887639795500,6.29479541015625,-0.19572876393795013,-0.017082132399082184,-0.27934396266937256
1772697887649844700,6.3048447265625,-0.21032197773456573,0.006636701058596373,-0.2713886797428131
1772697887659892500,6.314892578125,-0.21023622155189514,0.02722959592938423,-0.26464158296585083
1772697887669941800,6.324941650390625,-0.19997872412204742,0.049019284546375275,-0.25497862696647644
1772697887679990500,6.334990478515625,-0.1931125521659851,0.08117828518152237,-0.2512674927711487
1772697887690039600,6.34503955078125,-0.186859592795372,0.11085101962089539,-0.24328109622001648
1772697887700087600,6.355087646484375,-0.17621466517448425,0.13921688497066498,-0.22239764034748077
1772697887710136600,6.365136474609375,-0.17635440826416016,0.16611814498901367,-0.19000786542892456
1772697887720185600,6.375185546875,-0.17858374118804932,0.17130012810230255,-0.16014103591442108
1772697887730234600,6.385234619140625,-0.17495118081569672,0.14836229383945465,-0.13074809312820435
1772697887740282600,6.39528271484375,-0.16097038984298706,0.08040986955165863,-0.11162127554416656
1772697887750331600,6.40533154296875,-0.1327069252729416,0.004428080283105373,-0.11534257233142853
1772697887760380400,6.41538037109375,-0.10308139771223068,-0.04353438690304756,-0.12661521136760712
1772697887770429700,6.4254296875,-0.06596458703279495,-0.06677448004484177,-0.13560529053211212
1772697887780477400,6.4354775390625,-0.03435632213950157,-0.08942413330078125,-0.13230377435684204
1772697887790526700,6.445526611328125,-0.011587767861783504,-0.10461408644914627,-0.13226951658725739
1772697887800575500,6.455575439453125,-0.0020398031920194626,-0.10805648565292358,-0.15116119384765625
1772697887810624500,6.46562451171875,-0.00275904918089509,-0.10133691877126694,-0.18355900049209595
1772697887820672500,6.475672607421875,-0.007529302965849638,-0.08490468561649323,-0.2279062271118164
1772697887830721500,6.485721435546875,-0.009274809621274471,-0.07864280790090561,-0.26433616876602173
1772697887840770600,6.4957705078125,-0.019838768988847733,-0.0806172713637352,-0.28160277009010315
1772697887850818600,6.505818603515625,-0.021665895357728004,-0.09527026861906052,-0.28095170855522156
1772697887860867600,6.51586767578125,-0.011705140583217144,-0.10315189510583878,-0.2623841464519501
1772697887870916600,6.52591650390625,-0.010912317782640457,-0.10733892023563385,-0.2250165194272995
1772697887880965400,6.53596533203125,-0.010712181217968464,-0.10765575617551804,-0.1727045625448227
1772697887891013600,6.546013671875,-0.0016449160175397992,-0.10706347227096558,-0.11061374843120575
1772697887901062400,6.5560625,0.0017428912688046694,-0.11312562227249146,-0.05465620756149292
1772697887911111700,6.566111572265625,0.0006031234515830874,-0.11120673269033432,-0.02010348252952099
1772697887921160400,6.576160400390625,0.001601276220753789,-0.11793307960033417,-0.0020017107017338276
1772697887931208700,6.586208740234375,0.004104109015315771,-0.13594111800193787,0.005663047078996897
1772697887941257500,6.596257568359375,0.014566337689757347,-0.164955735206604,0.006243349518626928
1772697887951306500,6.606306396484375,0.025007333606481552,-0.19061116874217987,0.0017066411674022675
1772697887961355500,6.61635546875,0.04168032109737396,-0.21191592514514923,-0.018047356978058815
1772697887971403500,6.626403564453125,0.06542512774467468,-0.2194625735282898,-0.04219447076320648
1772697887981452500,6.63645263671875,0.08509629964828491,-0.21992038190364838,-0.057679951190948486
1772697887991501600,6.64650146484375,0.09893447905778885,-0.19675426185131073,-0.07647021114826202
1772697888001551600,6.656551513671875,0.1106361374258995,-0.1639435887336731,-0.09787483513355255
1772697888011599600,6.666599609375,0.12202543020248413,-0.13544721901416779,-0.12527751922607422
1772697888021648600,6.676648681640625,0.12982076406478882,-0.11851563304662704,-0.14873464405536652
1772697888031697700,6.68669775390625,0.13312701880931854,-0.10929108411073685,-0.16728666424751282
1772697888041746700,6.69674658203125,0.1341182440519333,-0.08663664013147354,-0.16343653202056885
1772697888051794400,6.70679443359375,0.13005924224853516,-0.0880839079618454,-0.14453783631324768
1772697888061843700,6.71684375,0.1261657029390335,-0.09814346581697464,-0.11369417607784271
1772697888071892700,6.726892822265625,0.11831182986497879,-0.10639411956071854,-0.0688561275601387
1772697888081941500,6.73694140625,0.11339696496725082,-0.11274495720863342,-0.009908927604556084
1772697888091989800,6.74698974609375,0.107662133872509,-0.1167086660861969,0.05356338247656822
1772697888102038500,6.75703857421875,0.11780797690153122,-0.12759965658187866,0.11343017965555191
1772697888112087800,6.767087890625,0.13594304025173187,-0.13794097304344177,0.1573406457901001
1772697888122135600,6.777135498046875,0.1527601033449173,-0.13737984001636505,0.17179201543331146
1772697888132184800,6.787184814453125,0.16816988587379456,-0.16124227643013,0.17175620794296265
1772697888142233600,6.797233642578125,0.19301317632198334,-0.1837846040725708,0.15589602291584015
1772697888152282600,6.80728271484375,0.20526152849197388,-0.18529018759727478,0.1358582228422165
1772697888162330600,6.81733056640625,0.23051494359970093,-0.18951448798179626,0.11239206045866013
1772697888172379600,6.827379638671875,0.25557151436805725,-0.20079442858695984,0.09078113734722137
1772697888182428700,6.8374287109375,0.27681446075439453,-0.19763538241386414,0.06401050835847855
1772697888192477700,6.847477783203125,0.29686394333839417,-0.18430139124393463,0.03370721638202667
1772697888202525700,6.857525634765625,0.30357325077056885,-0.15611663460731506,0.00924209039658308
1772697888212574700,6.86757470703125,0.2970179319381714,-0.138285830616951,-0.01205868273973465
1772697888222623500,6.87762353515625,0.29409244656562805,-0.1488220989704132,-0.028171073645353317
1772697888232672800,6.8876728515625,0.2823135554790497,-0.18172147870063782,-0.038426727056503296
1772697888242720500,6.897720458984375,0.2807404100894928,-0.20104990899562836,-0.04822636395692825
1772697888252769800,6.907769775390625,0.29103800654411316,-0.20795130729675293,-0.055712852627038956
1772697888262818600,6.917818603515625,0.3100287616252899,-0.19731464982032776,-0.06364428251981735
1772697888272867600,6.92786767578125,0.3317301869392395,-0.1856728345155716,-0.07584606111049652
1772697888282915600,6.93791552734375,0.3516053557395935,-0.15906067192554474,-0.07967249304056168
1772697888292964600,6.947964599609375,0.39140087366104126,-0.12914523482322693,-0.08605580776929855
1772697888303013600,6.958013671875,0.4291136562824249,-0.10649824142456055,-0.08181818574666977
1772697888313062700,6.968062744140625,0.47831061482429504,-0.09110310673713684,-0.03655938431620598
1772697888323110700,6.978110595703125,0.5087940096855164,-0.20713171362876892,0.15515412390232086
1772697888333159700,6.98815966796875,0.5094061493873596,-0.3415616452693939,0.11709556728601456
1772697888343208400,6.99820849609375,0.5081518292427063,-0.3536367118358612,0.10716703534126282
1772697888353256700,7.008256591796875,0.48571228981018066,-0.33622655272483826,0.07051421701908112
1772697888363305500,7.018305419921875,0.43220487236976624,-0.2760593593120575,0.05177142098546028
1772697888373354800,7.028354736328125,0.40945833921432495,-0.22826626896858215,0.01834549382328987
1772697888383403500,7.038403564453125,0.4095273017883301,-0.1729167252779007,-0.03875986859202385
1772697888393451800,7.04845166015625,0.424787700176239,-0.11452459543943405,-0.09892092645168304
1772697888403500500,7.05850048828125,0.449932724237442,-0.05793215334415436,-0.15017586946487427
1772697888413549600,7.068549560546875,0.46085140109062195,-0.0062377192080020905,-0.2302883118391037
1772697888423598600,7.0785986328125,0.4726044833660126,0.06050962209701538,-0.32058942317962646
1772697888433646600,7.088646484375,0.4872983992099762,0.1625758558511734,-0.40935254096984863
1772697888443695600,7.098695556640625,0.5013852119445801,0.18016736209392548,-0.46059441566467285
1772697888453744600,7.10874462890625,0.48590192198753357,0.11133072525262833,-0.40654340386390686
1772697888463793700,7.118793701171875,0.4481161832809448,-0.01664455235004425,-0.2806778848171234
