time,seconds_elapsed,z,y,x
1772701726951423500,0.058423583984375,-0.5165252685546875,0.2730255126953125,0.7866058349609375
1772701726961471500,0.068471435546875,-0.532623291015625,0.2749481201171875,0.779998779296875
1772701726971519500,0.07851953125,-0.5375213623046875,0.2713165283203125,0.7842864990234375
1772701726981568300,0.088568359375,-0.5376739501953125,0.27020263671875,0.798583984375
1772701726991616500,0.098616455078125,-0.534820556640625,0.2693023681640625,0.80322265625
1772701727001664500,0.10866455078125,-0.529083251953125,0.2614593505859375,0.8007659912109375
1772701727011713500,0.118713623046875,-0.5286407470703125,0.2593841552734375,0.79931640625
1772701727021761500,0.128761474609375,-0.5308685302734375,0.267547607421875,0.7928466796875
1772701727031809500,0.1388095703125,-0.5400238037109375,0.2737274169921875,0.79180908203125
1772701727041857500,0.148857421875,-0.5405120849609375,0.2746124267578125,0.79730224609375
1772701727051906300,0.15890625,-0.5374298095703125,0.278900146484375,0.791748046875
1772701727061954600,0.16895458984375,-0.540313720703125,0.2668304443359375,0.7796630859375
1772701727072002300,0.179002197265625,-0.5561065673828125,0.256805419921875,0.7738037109375
1772701727082051600,0.189051513671875,-0.5678863525390625,0.2610931396484375,0.781158447265625
1772701727092099300,0.199099365234375,-0.55950927734375,0.258453369140625,0.7897491455078125
1772701727102147300,0.209147216796875,-0.5409393310546875,0.2589569091796875,0.794921875
1772701727112195600,0.219195556640625,-0.523345947265625,0.26763916015625,0.793792724609375
1772701727122244400,0.229244384765625,-0.512237548828125,0.271087646484375,0.7729949951171875
1772701727132292600,0.239292724609375,-0.5055389404296875,0.2826080322265625,0.74163818359375
1772701727142340400,0.24934033203125,-0.5040435791015625,0.2770843505859375,0.74383544921875
1772701727152388400,0.259388427734375,-0.5308990478515625,0.257537841796875,0.7899627685546875
1772701727162437400,0.269437255859375,-0.577972412109375,0.245758056640625,0.844268798828125
1772701727172485400,0.2794853515625,-0.6140594482421875,0.268218994140625,0.8751220703125
1772701727182533400,0.289533447265625,-0.61956787109375,0.2956695556640625,0.873291015625
1772701727192582400,0.29958251953125,-0.5973663330078125,0.3062286376953125,0.83953857421875
1772701727202631200,0.309631103515625,-0.5539093017578125,0.29901123046875,0.79705810546875
1772701727212679200,0.31967919921875,-0.5141754150390625,0.2868804931640625,0.7706146240234375
1772701727222728200,0.329728271484375,-0.486175537109375,0.2745208740234375,0.7605438232421875
1772701727232776200,0.339776123046875,-0.4641876220703125,0.289947509765625,0.75909423828125
1772701727242824200,0.34982421875,-0.4668426513671875,0.296173095703125,0.7972259521484375
1772701727252872200,0.3598720703125,-0.5121002197265625,0.2777099609375,0.8470306396484375
1772701727262921200,0.369921142578125,-0.605682373046875,0.323822021484375,0.780059814453125
1772701727272969200,0.37996923828125,-0.6367034912109375,0.31341552734375,0.759918212890625
1772701727283017200,0.390017333984375,-0.6222381591796875,0.307861328125,0.750244140625
1772701727293065000,0.40006494140625,-0.5910491943359375,0.318206787109375,0.7444000244140625
1772701727303114200,0.4101142578125,-0.554534912109375,0.31793212890625,0.745849609375
1772701727313162000,0.420161865234375,-0.522369384765625,0.293975830078125,0.7611236572265625
1772701727323210200,0.430210205078125,-0.4949951171875,0.2915191650390625,0.7745208740234375
1772701727333259000,0.440259033203125,-0.502899169921875,0.2962646484375,0.795654296875
1772701727343307300,0.450307373046875,-0.510009765625,0.312591552734375,0.780303955078125
1772701727353355300,0.460355224609375,-0.52630615234375,0.31402587890625,0.7788543701171875
1772701727363403000,0.470403076171875,-0.5357818603515625,0.3040618896484375,0.76361083984375
1772701727373452300,0.480452392578125,-0.5348358154296875,0.300079345703125,0.758209228515625
1772701727383500000,0.4905,-0.53021240234375,0.2969818115234375,0.7612457275390625
1772701727393548300,0.50054833984375,-0.5130767822265625,0.2984161376953125,0.7672882080078125
1772701727403597000,0.51059716796875,-0.4833984375,0.310638427734375,0.75762939453125
1772701727413645300,0.520645263671875,-0.452056884765625,0.3124237060546875,0.7630157470703125
1772701727423693000,0.530693115234375,-0.43292236328125,0.2906951904296875,0.7564544677734375
1772701727433742000,0.5407421875,-0.42559814453125,0.27093505859375,0.744293212890625
1772701727443790000,0.5507900390625,-0.4038848876953125,0.250946044921875,0.7429656982421875
1772701727453838000,0.560838134765625,-0.3769989013671875,0.226409912109375,0.726165771484375
1772701727463886300,0.57088623046875,-0.3451385498046875,0.2509765625,0.694915771484375
1772701727473935000,0.58093505859375,-0.3260345458984375,0.2486114501953125,0.6768341064453125
1772701727483983000,0.590983154296875,-0.306732177734375,0.2318267822265625,0.6562652587890625
1772701727494031000,0.601031005859375,-0.2879180908203125,0.2440643310546875,0.5958099365234375
1772701727504080100,0.611080078125,-0.2608642578125,0.2419281005859375,0.5462493896484375
1772701727514128100,0.621128173828125,-0.252777099609375,0.22869873046875,0.5171966552734375
1772701727524176100,0.631176025390625,-0.258209228515625,0.2102813720703125,0.4897918701171875
1772701727534224400,0.641224365234375,-0.2777862548828125,0.190032958984375,0.4514923095703125
1772701727544273200,0.651273193359375,-0.31011962890625,0.1827850341796875,0.4311676025390625
1772701727554321200,0.661321044921875,-0.3161773681640625,0.2059326171875,0.416351318359375
1772701727564369200,0.671369140625,-0.3280792236328125,0.2174835205078125,0.4595184326171875
1772701727574418200,0.681418212890625,-0.35137939453125,0.2667694091796875,0.5477294921875
1772701727584466200,0.691466064453125,-0.37457275390625,0.35003662109375,0.631622314453125
1772701727594514200,0.70151416015625,-0.3970184326171875,0.3982696533203125,0.7457427978515625
1772701727604562000,0.71156201171875,-0.485748291015625,0.37310791015625,0.814971923828125
1772701727614611200,0.721611083984375,-0.636627197265625,0.3588409423828125,0.85894775390625
1772701727624659000,0.731658935546875,-0.8327178955078125,0.364288330078125,0.93292236328125
1772701727634707200,0.741707275390625,-1.0152587890625,0.427947998046875,1.0519256591796875
1772701727644756000,0.751755859375,-1.1649017333984375,0.6139984130859375,1.1508941650390625
1772701727654804200,0.76180419921875,-1.3080596923828125,0.871368408203125,1.23553466796875
1772701727664852200,0.771852294921875,-1.459259033203125,1.0499267578125,1.3668975830078125
1772701727674900000,0.78189990234375,-1.6769256591796875,1.154144287109375,1.46258544921875
1772701727684949200,0.79194921875,-2.0384674072265625,1.185455322265625,1.43060302734375
1772701727694997000,0.8019970703125,-2.5802459716796875,1.2474212646484375,1.3626708984375
1772701727705045200,0.812045166015625,-2.76763916015625,1.2259368896484375,1.304412841796875
1772701727715094000,0.822093994140625,-2.377593994140625,1.057891845703125,1.2186431884765625
1772701727725142300,0.832142333984375,-1.9442291259765625,1.0610504150390625,1.2479400634765625
1772701727735190300,0.842190185546875,-1.5544586181640625,1.1729278564453125,1.438812255859375
1772701727745238000,0.852238037109375,-1.18609619140625,1.2288665771484375,1.7007904052734375
1772701727755287300,0.862287353515625,-0.849853515625,1.2095794677734375,1.772705078125
1772701727765335000,0.8723349609375,-0.48565673828125,1.0590057373046875,1.5359039306640625
1772701727775383300,0.88238330078125,-0.2186431884765625,0.756561279296875,1.1800689697265625
1772701727785432000,0.89243212890625,-0.1066741943359375,0.5032196044921875,0.7875823974609375
1772701727795480300,0.902480224609375,-0.0927734375,0.3013458251953125,0.4253387451171875
1772701727805528000,0.912528076171875,-0.0434722900390625,0.180755615234375,0.147918701171875
1772701727815577300,0.922577392578125,0.06439208984375,0.110137939453125,0.0208587646484375
1772701727825625000,0.932625,0.178009033203125,0.074981689453125,-0.001617431640625
1772701727835673000,0.942673095703125,0.204803466796875,0.0438995361328125,-0.0039520263671875
1772701727845721300,0.952721435546875,0.2510223388671875,0.00738525390625,-0.0494384765625
1772701727855770000,0.96277001953125,0.3185882568359375,0.02703857421875,-0.145233154296875
1772701727865818400,0.972818359375,0.3410186767578125,0.06787109375,-0.2347564697265625
1772701727875866000,0.9828662109375,0.33685302734375,0.064178466796875,-0.352203369140625
1772701727885914000,0.9929140625,0.3002777099609375,0.021026611328125,-0.4430999755859375
1772701727895963100,1.002963134765625,0.27099609375,0.0131072998046875,-0.481292724609375
1772701727906011100,1.01301123046875,0.2451324462890625,0.02056884765625,-0.4422454833984375
1772701727916059100,1.02305908203125,0.214813232421875,0.0049896240234375,-0.3219757080078125
1772701727926108200,1.033108154296875,0.190765380859375,-0.003021240234375,-0.1927032470703125
1772701727936156200,1.04315625,0.17694091796875,0.009765625,-0.099029541015625
1772701727946204200,1.0532041015625,0.1589508056640625,0.0146026611328125,-0.0292510986328125
1772701727956253000,1.0632529296875,0.0963134765625,0.0106658935546875,0.0226287841796875
1772701727966301200,1.07330126953125,0.01922607421875,0.0142669677734375,0.061737060546875
1772701727976349200,1.08334912109375,-0.0602264404296875,0.0259857177734375,0.09619140625
1772701727986397200,1.093397216796875,-0.1167755126953125,0.02508544921875,0.13995361328125
1772701727996446200,1.1034462890625,-0.1316375732421875,0.0016021728515625,0.1980133056640625
1772701728006494000,1.113493896484375,-0.1175384521484375,-0.0015869140625,0.2549591064453125
1772701728016542200,1.123542236328125,-0.1158599853515625,0.0565948486328125,0.308319091796875
1772701728026591000,1.133591064453125,-0.1366119384765625,0.1115570068359375,0.3708953857421875
1772701728036639200,1.14363916015625,-0.1747894287109375,0.1381988525390625,0.44219970703125
1772701728046687200,1.153687255859375,-0.2344207763671875,0.173004150390625,0.5123748779296875
1772701728056735200,1.1637353515625,-0.285003662109375,0.23077392578125,0.57916259765625
1772701728066784300,1.1737841796875,-0.3546600341796875,0.2719268798828125,0.6587982177734375
1772701728076832000,1.18383203125,-0.4546051025390625,0.3176116943359375,0.7249908447265625
1772701728086880300,1.19388037109375,-0.4873046875,0.33355712890625,0.8200225830078125
1772701728096929000,1.203928955078125,-0.467132568359375,0.2575531005859375,1.01019287109375
1772701728106977300,1.213977294921875,-0.675445556640625,0.383056640625,1.3734588623046875
1772701728117025000,1.22402490234375,-1.1652984619140625,0.80096435546875,2.195404052734375
1772701728127073000,1.234072998046875,-1.57611083984375,1.4427490234375,3.4306793212890625
1772701728137122000,1.2441220703125,-1.61309814453125,2.23541259765625,3.8597412109375
1772701728147170000,1.254170166015625,-1.6043853759765625,2.7237091064453125,3.3651885986328125
1772701728157218300,1.26421826171875,-1.88104248046875,2.2805633544921875,3.0635223388671875
1772701728167267000,1.27426708984375,-1.9613800048828125,1.51275634765625,2.2038116455078125
1772701728177315300,1.2843154296875,-1.6947174072265625,0.9514923095703125,1.3033447265625
1772701728187363000,1.294363037109375,-1.52398681640625,0.674957275390625,0.7520599365234375
1772701728197412600,1.30441259765625,-1.3536529541015625,0.5228729248046875,0.492218017578125
1772701728207460400,1.31446044921875,-1.1401519775390625,0.3159942626953125,0.4289093017578125
1772701728217508600,1.324508544921875,-0.9046783447265625,0.129364013671875,0.39703369140625
1772701728227556400,1.334556396484375,-0.6854400634765625,0.0668487548828125,0.3565826416015625
1772701728237605400,1.34460546875,-0.551605224609375,0.0847320556640625,0.3422393798828125
1772701728247653400,1.3546533203125,-0.4834136962890625,0.1409912109375,0.423919677734375
1772701728257701400,1.364701416015625,-0.413604736328125,0.1901702880859375,0.53253173828125
1772701728267750400,1.37475048828125,-0.3109588623046875,0.255462646484375,0.609283447265625
1772701728277798400,1.38479833984375,-0.181854248046875,0.307037353515625,0.6290740966796875
1772701728287846700,1.3948466796875,-0.0737152099609375,0.325042724609375,0.5861053466796875
1772701728297894400,1.404894287109375,-0.0126495361328125,0.3157501220703125,0.510833740234375
1772701728307943400,1.414943359375,-0.021148681640625,0.2565155029296875,0.43896484375
1772701728317991400,1.424991455078125,-0.0598297119140625,0.187164306640625,0.340545654296875
1772701728328039400,1.435039306640625,-0.10693359375,0.1593017578125,0.259033203125
1772701728338088400,1.44508837890625,-0.1860198974609375,0.1622314453125,0.2623291015625
1772701728348136400,1.455136474609375,-0.198822021484375,0.141021728515625,0.2352447509765625
1772701728358184400,1.465184326171875,-0.206817626953125,0.10809326171875,0.2157745361328125
1772701728368232400,1.475232421875,-0.236175537109375,0.093963623046875,0.2615814208984375
1772701728378281500,1.485281494140625,-0.262054443359375,0.0843505859375,0.3321533203125
1772701728388329500,1.49532958984375,-0.259552001953125,0.0674285888671875,0.3908538818359375
1772701728398377500,1.50537744140625,-0.2242584228515625,0.069915771484375,0.4299468994140625
1772701728408426500,1.515426513671875,-0.185699462890625,0.087646484375,0.444915771484375
1772701728418474500,1.525474609375,-0.158477783203125,0.0949554443359375,0.4613037109375
1772701728428522200,1.535522216796875,-0.1440887451171875,0.108489990234375,0.4553985595703125
1772701728438570500,1.545570556640625,-0.1306610107421875,0.11590576171875,0.4622344970703125
1772701728448619300,1.555619384765625,-0.1337738037109375,0.109771728515625,0.484832763671875
1772701728458667500,1.56566748046875,-0.15509033203125,0.1046600341796875,0.517120361328125
1772701728468715500,1.575715576171875,-0.2095794677734375,0.1314697265625,0.5719451904296875
1772701728478764500,1.5857646484375,-0.3041534423828125,0.1712493896484375,0.60662841796875
1772701728488812500,1.5958125,-0.3768768310546875,0.2182464599609375,0.647491455078125
1772701728498860300,1.6058603515625,-0.376953125,0.26806640625,0.714599609375
1772701728508908500,1.615908447265625,-0.373931884765625,0.3380279541015625,0.768402099609375
1772701728518957300,1.625957275390625,-0.4102783203125,0.44091796875,0.8653106689453125
1772701728529005600,1.636005615234375,-0.5395965576171875,0.579559326171875,1.0214996337890625
1772701728539053600,1.646053466796875,-0.7465057373046875,0.7094573974609375,1.1656646728515625
1772701728549102600,1.6561025390625,-0.9291534423828125,0.8532257080078125,1.251708984375
1772701728559150300,1.666150390625,-1.0935821533203125,1.0286407470703125,1.29205322265625
1772701728569198300,1.6761982421875,-1.25616455078125,1.1918182373046875,1.342315673828125
1772701728579246600,1.68624658203125,-1.4670257568359375,1.3425750732421875,1.439239501953125
1772701728589295400,1.69629541015625,-1.7192230224609375,1.4973602294921875,1.5734710693359375
1772701728599343600,1.706343505859375,-1.9436492919921875,1.6728363037109375,1.7081146240234375
1772701728609391400,1.716391357421875,-2.1121826171875,1.804229736328125,1.7838287353515625
1772701728619440600,1.726440673828125,-2.1663818359375,1.89141845703125,1.842742919921875
1772701728629488400,1.73648828125,-2.165771484375,1.8868560791015625,1.85504150390625
1772701728639536400,1.746536376953125,-2.1497802734375,1.77880859375,1.8750457763671875
1772701728649585400,1.75658544921875,-2.065704345703125,1.584991455078125,1.844268798828125
1772701728659633400,1.76663330078125,-1.7737579345703125,1.2800140380859375,1.6005706787109375
1772701728669681700,1.776681640625,-1.327423095703125,0.92596435546875,1.2792816162109375
1772701728679729400,1.7867294921875,-0.9515533447265625,0.670257568359375,1.0614471435546875
1772701728689778700,1.79677880859375,-0.6029205322265625,0.5347900390625,0.9457550048828125
1772701728699826400,1.806826416015625,-0.35687255859375,0.4493865966796875,0.8568572998046875
1772701728709874400,1.81687451171875,-0.1881866455078125,0.36834716796875,0.7531890869140625
1772701728719923500,1.82692333984375,-0.0556640625,0.2463226318359375,0.646453857421875
1772701728729971500,1.836971435546875,0.052764892578125,0.1206207275390625,0.495697021484375
1772701728740019500,1.84701953125,0.1443634033203125,0.0467376708984375,0.2990875244140625
1772701728750067500,1.8570673828125,0.2397003173828125,0.047119140625,0.14385986328125
1772701728760116200,1.8671162109375,0.307647705078125,0.0377044677734375,0.02557373046875
1772701728770164500,1.87716455078125,0.38885498046875,0.0266265869140625,-0.0861053466796875
1772701728780212500,1.88721240234375,0.5184478759765625,0.041595458984375,-0.153533935546875
1772701728790261500,1.897261474609375,0.632415771484375,0.0514373779296875,-0.209930419921875
1772701728800309500,1.9073095703125,0.68450927734375,0.0321502685546875,-0.2699432373046875
1772701728810357200,1.917357177734375,0.772186279296875,0.0019378662109375,-0.36724853515625
1772701728820405500,1.927405517578125,0.836395263671875,-0.00994873046875,-0.48614501953125
1772701728830454300,1.937454345703125,0.8306732177734375,-0.015533447265625,-0.5269927978515625
1772701728840502500,1.94750244140625,0.7126922607421875,-0.027801513671875,-0.52288818359375
1772701728850550500,1.957550537109375,0.565582275390625,-0.055145263671875,-0.5489044189453125
1772701728860599600,1.967599609375,0.40423583984375,-0.0561981201171875,-0.6100921630859375
1772701728870647600,1.9776474609375,0.216522216796875,-0.004058837890625,-0.6377105712890625
1772701728880695300,1.9876953125,0.0249176025390625,0.016754150390625,-0.539337158203125
1772701728890743600,1.99774365234375,-0.1333160400390625,-0.0541534423828125,-0.355712890625
1772701728900792300,2.007792236328125,-0.1985321044921875,-0.08099365234375,-0.184356689453125
1772701728910840600,2.017840576171875,-0.2152099609375,-0.024688720703125,-0.04595947265625
1772701728920888300,2.027888427734375,-0.2071685791015625,-0.0240478515625,0.0611572265625
1772701728930937600,2.0379375,-0.1790313720703125,-0.0866241455078125,0.1558837890625
1772701728940985300,2.0479853515625,-0.14471435546875,-0.1670684814453125,0.230743408203125
1772701728951033300,2.058033447265625,-0.1342315673828125,-0.14923095703125,0.2627716064453125
1772701728961081600,2.06808154296875,-0.1789093017578125,-0.042266845703125,0.3060760498046875
1772701728971130400,2.07813037109375,-0.237030029296875,0.0823974609375,0.3842010498046875
1772701728981178600,2.0881787109375,-0.2936248779296875,0.1751708984375,0.5002288818359375
1772701728991226400,2.098226318359375,-0.367279052734375,0.2221527099609375,0.65716552734375
1772701729001275600,2.108275634765625,-0.468536376953125,0.241241455078125,0.824920654296875
1772701729011323400,2.118323486328125,-0.6277923583984375,0.2102203369140625,0.9572296142578125
1772701729021371400,2.128371337890625,-0.74603271484375,0.0713043212890625,1.0259552001953125
1772701729031420400,2.13842041015625,-0.780609130859375,0.01861572265625,1.0188446044921875
1772701729041468400,2.148468505859375,-0.8519287109375,0.2461700439453125,1.040924072265625
1772701729051516400,2.158516357421875,-1.0490875244140625,0.7575531005859375,1.279327392578125
1772701729061564400,2.168564453125,-1.2749786376953125,1.3795623779296875,1.788818359375
1772701729071613400,2.178613525390625,-1.3604736328125,1.96148681640625,2.27587890625
1772701729081661400,2.188661376953125,-1.4705657958984375,2.3098297119140625,2.6123199462890625
1772701729091709400,2.19870947265625,-1.6769561767578125,2.4990386962890625,2.45135498046875
1772701729101758500,2.208758544921875,-1.746124267578125,2.2886505126953125,1.7971038818359375
1772701729111806500,2.218806396484375,-1.9044952392578125,1.81103515625,1.7209625244140625
1772701729121854500,2.2288544921875,-1.9820098876953125,1.5212554931640625,1.570404052734375
1772701729131902500,2.23890234375,-1.8594512939453125,1.3985748291015625,1.0201873779296875
1772701729141951500,2.248951416015625,-1.454925537109375,1.141632080078125,0.6612396240234375
1772701729151999500,2.25899951171875,-1.155181884765625,0.8184661865234375,0.46270751953125
1772701729162047500,2.269047607421875,-1.00823974609375,0.5990142822265625,0.38568115234375
1772701729172096500,2.279096435546875,-0.8831787109375,0.449981689453125,0.2305145263671875
1772701729182144500,2.28914453125,-0.802734375,0.359344482421875,0.0829315185546875
1772701729192192500,2.299192626953125,-0.695068359375,0.343597412109375,0.0271759033203125
1772701729202240000,2.309239990234375,-0.4478302001953125,0.32916259765625,0.07977294921875
1772701729212288800,2.319288818359375,-0.22930908203125,0.319976806640625,0.1195831298828125
1772701729222337000,2.3293369140625,-0.1616058349609375,0.3062286376953125,0.08563232421875
1772701729232385000,2.339385009765625,-0.198150634765625,0.290313720703125,0.0957794189453125
1772701729242434000,2.34943408203125,-0.245361328125,0.2976531982421875,0.1621551513671875
1772701729252482000,2.35948193359375,-0.2566375732421875,0.3176116943359375,0.214630126953125
1772701729262529800,2.36952978515625,-0.2852783203125,0.306793212890625,0.32489013671875
1772701729272578000,2.379578125,-0.3097381591796875,0.3095550537109375,0.4161376953125
1772701729282626800,2.389626708984375,-0.3031005859375,0.358184814453125,0.462921142578125
1772701729292675000,2.399675048828125,-0.312042236328125,0.393890380859375,0.4868621826171875
1772701729302722800,2.409722900390625,-0.3627166748046875,0.4007415771484375,0.5147857666015625
1772701729312772000,2.419772216796875,-0.4580230712890625,0.39752197265625,0.5671844482421875
1772701729322819800,2.42981982421875,-0.5259246826171875,0.4166259765625,0.5499267578125
1772701729332867800,2.439867919921875,-0.5183563232421875,0.389404296875,0.555084228515625
1772701729342916900,2.449916748046875,-0.5606689453125,0.39605712890625,0.6060333251953125
1772701729352964900,2.45996484375,-0.6245269775390625,0.38385009765625,0.654815673828125
1772701729363013000,2.47001318359375,-0.673675537109375,0.37591552734375,0.714111328125
1772701729373060900,2.480060791015625,-0.6881256103515625,0.3640594482421875,0.7608489990234375
1772701729383110100,2.490110107421875,-0.63232421875,0.3400421142578125,0.7530364990234375
1772701729393158000,2.500157958984375,-0.5238037109375,0.29315185546875,0.704345703125
1772701729403206000,2.510205810546875,-0.442596435546875,0.221099853515625,0.7067718505859375
1772701729413255000,2.5202548828125,-0.3940277099609375,0.145904541015625,0.6676177978515625
1772701729423303000,2.530302978515625,-0.3625946044921875,0.1169586181640625,0.572998046875
1772701729433351000,2.540350830078125,-0.3447723388671875,0.1350250244140625,0.4428863525390625
1772701729443399000,2.55039892578125,-0.30364990234375,0.1268768310546875,0.389862060546875
1772701729453448000,2.560447998046875,-0.2739410400390625,0.1373291015625,0.464447021484375
1772701729463496000,2.570495849609375,-0.254608154296875,0.202484130859375,0.520904541015625
1772701729473544000,2.5805439453125,-0.2962493896484375,0.2752227783203125,0.6044464111328125
1772701729483593000,2.590593017578125,-0.4306640625,0.3549041748046875,0.648223876953125
1772701729493641000,2.600640869140625,-0.5865478515625,0.368988037109375,0.6526947021484375
1772701729503689000,2.61068896484375,-0.708221435546875,0.3605194091796875,0.60235595703125
1772701729513737000,2.620737060546875,-0.8050384521484375,0.381378173828125,0.556884765625
1772701729523786000,2.630785888671875,-0.8337554931640625,0.4541015625,0.5444183349609375
1772701729533834000,2.640833984375,-0.7996673583984375,0.5222625732421875,0.582794189453125
1772701729543882000,2.650882080078125,-0.7811737060546875,0.630950927734375,0.6734466552734375
1772701729553931000,2.660930908203125,-0.77703857421875,0.8032989501953125,0.7664794921875
1772701729563979000,2.67097900390625,-0.828826904296875,0.9804229736328125,0.8483734130859375
1772701729574027000,2.681027099609375,-0.941314697265625,1.1035919189453125,0.954620361328125
1772701729584075000,2.691074951171875,-1.03759765625,1.13104248046875,1.03802490234375
1772701729594123800,2.701123779296875,-1.11724853515625,1.1956634521484375,1.06768798828125
1772701729604172000,2.711172119140625,-1.1870269775390625,1.3405609130859375,1.168914794921875
1772701729614219800,2.7212197265625,-1.52685546875,1.5211334228515625,1.5506591796875
1772701729624269000,2.73126904296875,-2.3291473388671875,1.8487701416015625,2.1871490478515625
1772701729634316800,2.74131689453125,-3.031951904296875,2.3582305908203125,2.5358123779296875
1772701729644364800,2.75136474609375,-3.315582275390625,2.320526123046875,2.5154876708984375
1772701729654413000,2.7614130859375,-3.0908203125,1.8676910400390625,2.141448974609375
1772701729664461800,2.7714619140625,-2.538421630859375,1.365234375,1.5057220458984375
1772701729674510000,2.781510009765625,-2.0487213134765625,0.976226806640625,0.968994140625
1772701729684557800,2.791557861328125,-1.5697021484375,0.6297149658203125,0.63934326171875
1772701729694607000,2.801607177734375,-1.1320037841796875,0.1943511962890625,0.5718841552734375
1772701729704654800,2.81165478515625,-0.73162841796875,0.021148681640625,0.4185791015625
1772701729714702800,2.821702880859375,-0.2990875244140625,0.0864105224609375,0.260284423828125
1772701729724752000,2.831751953125,0.10906982421875,0.144561767578125,0.1907806396484375
1772701729734800000,2.8417998046875,0.478607177734375,0.1602325439453125,0.1769866943359375
1772701729744848100,2.85184814453125,0.7723846435546875,0.122406005859375,0.1365814208984375
1772701729754896000,2.861895751953125,0.9346771240234375,0.052459716796875,0.0521392822265625
1772701729764945200,2.871945068359375,0.9585113525390625,0.009033203125,-0.0644989013671875
1772701729774993000,2.881992919921875,0.9232940673828125,-0.09466552734375,-0.219512939453125
1772701729785041000,2.892041015625,0.8489532470703125,-0.129730224609375,-0.3007965087890625
1772701729795090000,2.90208984375,0.776092529296875,-0.121002197265625,-0.364288330078125
1772701729805138000,2.912137939453125,0.72772216796875,-0.102020263671875,-0.4099578857421875
1772701729815186000,2.92218603515625,0.7109832763671875,-0.052337646484375,-0.47320556640625
1772701729825234000,2.93223388671875,0.6651458740234375,0.00732421875,-0.56304931640625
1772701729835283000,2.942282958984375,0.54998779296875,0.0649261474609375,-0.5702972412109375
1772701729845331000,2.9523310546875,0.4453582763671875,0.020751953125,-0.4679412841796875
1772701729855379000,2.96237890625,0.3372344970703125,-0.06439208984375,-0.317352294921875
1772701729865428000,2.972427978515625,0.2253265380859375,-0.0428466796875,-0.243011474609375
1772701729875476000,2.98247607421875,0.1168212890625,0.002105712890625,-0.214111328125
1772701729885524000,2.99252392578125,0.0354766845703125,0.0013580322265625,-0.1777191162109375
1772701729895572000,3.002572021484375,-0.0322113037109375,-0.0226898193359375,-0.12860107421875
1772701729905621000,3.01262109375,-0.123321533203125,0.0025482177734375,-0.0904693603515625
1772701729915669000,3.0226689453125,-0.2424468994140625,0.0809326171875,-0.05609130859375
1772701729925717000,3.032717041015625,-0.3673248291015625,0.1754913330078125,-0.041748046875
1772701729935766000,3.04276611328125,-0.4708404541015625,0.29046630859375,-0.00689697265625
1772701729945814000,3.05281396484375,-0.6217041015625,0.377716064453125,-0.010955810546875
1772701729955862000,3.062862060546875,-0.7134857177734375,0.2801666259765625,-0.159454345703125
1772701729965910000,3.072909912109375,-0.6007080078125,0.1775665283203125,-0.2022552490234375
1772701729975959000,3.082958984375,-0.439300537109375,0.2176971435546875,-0.11322021484375
1772701729986007000,3.093007080078125,-0.3111114501953125,0.254058837890625,0.05596923828125
1772701729996054800,3.1030546875,-0.19482421875,0.243560791015625,0.2185516357421875
1772701730006104000,3.11310400390625,-0.139068603515625,0.233795166015625,0.29156494140625
1772701730016151800,3.12315185546875,-0.0894317626953125,0.3123626708984375,0.3372802734375
1772701730026200000,3.133199951171875,-0.073883056640625,0.4769744873046875,0.46209716796875
1772701730036248800,3.143248779296875,-0.0516204833984375,0.7081146240234375,0.622894287109375
1772701730046296800,3.153296875,-0.0390472412109375,0.990753173828125,0.7145233154296875
1772701730056345000,3.163344970703125,-0.3114776611328125,1.387054443359375,0.979736328125
1772701730066392800,3.173392822265625,-1.169036865234375,2.108062744140625,1.369384765625
1772701730076442000,3.183442138671875,-3.5869293212890625,3.006988525390625,1.8450164794921875
1772701730086489900,3.19348974609375,-4.33514404296875,3.7621612548828125,2.0738372802734375
1772701730096538000,3.2035380859375,-4.461090087890625,4.288604736328125,1.8990020751953125
1772701730106587000,3.2135869140625,-3.9901123046875,3.7881927490234375,0.826629638671875
1772701730116635000,3.223634765625,-2.74755859375,2.32257080078125,0.3739471435546875
1772701730126683000,3.233682861328125,-1.52813720703125,1.79962158203125,-0.23773193359375
1772701730136731000,3.24373095703125,-1.22540283203125,0.9878997802734375,-0.976898193359375
1772701730146780000,3.25377978515625,-0.883697509765625,0.3900604248046875,-0.992462158203125
1772701730156828000,3.263827880859375,-0.5003509521484375,-0.015289306640625,-0.8154754638671875
1772701730166876000,3.2738759765625,-0.41241455078125,-0.158447265625,-0.543060302734375
1772701730176925000,3.283925048828125,-0.3994903564453125,-0.0468902587890625,-0.171661376953125
1772701730186973000,3.293972900390625,-0.265472412109375,0.0400238037109375,-0.1361541748046875
1772701730197021000,3.30402099609375,-0.1402740478515625,0.0731964111328125,-0.146270751953125
1772701730207069000,3.31406884765625,-0.085479736328125,0.0961761474609375,-0.1015167236328125
1772701730217118000,3.324117919921875,-0.0381011962890625,0.09637451171875,-0.077911376953125
1772701730227166000,3.334166015625,-0.0188751220703125,0.0989990234375,-0.0381927490234375
1772701730237214000,3.3442138671875,-0.0601959228515625,0.1153106689453125,0.117584228515625
1772701730247263000,3.354262939453125,-0.171478271484375,0.133819580078125,0.3154754638671875
1772701730257311000,3.36431103515625,-0.1942138671875,0.1542205810546875,0.3758392333984375
1772701730267359000,3.37435888671875,-0.1798095703125,0.175628662109375,0.298004150390625
1772701730277408000,3.384407958984375,-0.2137908935546875,0.19952392578125,0.2258758544921875
1772701730287456000,3.3944560546875,-0.2609405517578125,0.2494354248046875,0.1885528564453125
1772701730297504000,3.40450390625,-0.336883544921875,0.3103790283203125,0.1912078857421875
1772701730307551700,3.4145517578125,-0.4227294921875,0.3614501953125,0.206817626953125
1772701730317601000,3.42460107421875,-0.53369140625,0.432830810546875,0.196746826171875
1772701730327648800,3.434648681640625,-0.6324310302734375,0.5195159912109375,0.18798828125
1772701730337697000,3.444697021484375,-0.656524658203125,0.5901641845703125,0.2152557373046875
1772701730347745800,3.454745849609375,-0.6640167236328125,0.62811279296875,0.2987213134765625
1772701730357794000,3.4647939453125,-0.696746826171875,0.6664886474609375,0.4342041015625
1772701730367842000,3.474842041015625,-0.7429656982421875,0.701904296875,0.506927490234375
1772701730377889800,3.484889892578125,-0.83642578125,0.67791748046875,0.5122528076171875
1772701730387939000,3.49493896484375,-0.9129791259765625,0.6184539794921875,0.533538818359375
1772701730397986800,3.50498681640625,-0.880401611328125,0.44915771484375,0.493133544921875
1772701730408035000,3.51503515625,-0.907684326171875,0.2314605712890625,0.4864501953125
1772701730418083800,3.525083740234375,-1.115081787109375,0.090545654296875,0.5320281982421875
1772701730428132000,3.535132080078125,-1.2943115234375,0.0838470458984375,0.5869293212890625
1772701730438180000,3.54518017578125,-1.0330047607421875,0.0974578857421875,0.443603515625
1772701730448227800,3.555227783203125,-0.7435150146484375,0.1180877685546875,0.3025360107421875
1772701730458276900,3.56527685546875,-0.5714263916015625,0.170684814453125,0.239288330078125
1772701730468324900,3.575324951171875,-0.5138092041015625,0.2777252197265625,0.237091064453125
1772701730478373000,3.585373046875,-0.566253662109375,0.4549102783203125,0.298431396484375
1772701730488422000,3.595421875,-0.7325439453125,0.597198486328125,0.3604583740234375
1772701730498470100,3.60547021484375,-0.8745574951171875,0.5975189208984375,0.2667999267578125
1772701730508518000,3.615517822265625,-0.9362030029296875,0.5103759765625,0.1043701171875
1772701730518567000,3.62556689453125,-1.1485595703125,0.4903564453125,0.0770416259765625
1772701730528615000,3.635614990234375,-1.472503662109375,0.5434722900390625,0.118804931640625
1772701730538663000,3.645662841796875,-1.7056121826171875,0.5746002197265625,0.1852264404296875
1772701730548711200,3.655711181640625,-1.780181884765625,0.5928955078125,0.2002410888671875
1772701730558760000,3.665760009765625,-1.9490814208984375,0.633544921875,0.13018798828125
1772701730568808000,3.675807861328125,-2.0484771728515625,0.7139739990234375,0.0204620361328125
1772701730578856000,3.68585595703125,-1.9800872802734375,0.8433990478515625,0.047515869140625
1772701730588905000,3.695905029296875,-1.9633026123046875,0.9336090087890625,0.279205322265625
1772701730598953000,3.705952880859375,-2.0333709716796875,0.9923095703125,0.474090576171875
1772701730609001000,3.7160009765625,-2.1026611328125,0.991851806640625,0.5849456787109375
1772701730619049000,3.726049072265625,-2.1527099609375,0.9357452392578125,0.5904541015625
1772701730629098000,3.736097900390625,-2.2498931884765625,0.87908935546875,0.571624755859375
1772701730639145700,3.746145751953125,-2.4194183349609375,0.82305908203125,0.43341064453125
1772701730649194000,3.756194091796875,-2.5351715087890625,0.814666748046875,0.387237548828125
1772701730659242800,3.76624267578125,-2.3491363525390625,0.878326416015625,0.660888671875
1772701730669291000,3.776291015625,-2.1183013916015625,0.9615631103515625,0.8963165283203125
1772701730679339000,3.786339111328125,-1.8553619384765625,0.96319580078125,0.9140167236328125
1772701730689388000,3.796387939453125,-1.4724884033203125,0.78143310546875,0.8526763916015625
1772701730699436000,3.80643603515625,-1.03521728515625,0.541900634765625,0.7420806884765625
1772701730709483800,3.81648388671875,-0.7520599365234375,0.35687255859375,0.56329345703125
1772701730719532000,3.826531982421875,-0.5457000732421875,0.218475341796875,0.4286346435546875
1772701730729580800,3.836580810546875,-0.346343994140625,0.097076416015625,0.3804779052734375
1772701730739629000,3.846629150390625,-0.2045440673828125,-0.0317230224609375,0.3160400390625
1772701730749677000,3.856677001953125,-0.104461669921875,-0.1345977783203125,0.2764129638671875
1772701730759726000,3.86672607421875,-0.00775146484375,-0.20501708984375,0.2518157958984375
1772701730769774000,3.876774169921875,0.1036529541015625,-0.210540771484375,0.2063140869140625
1772701730779821800,3.88682177734375,0.17022705078125,-0.2253875732421875,0.1658172607421875
1772701730789870000,3.8968701171875,0.191864013671875,-0.245941162109375,0.12054443359375
1772701730799918800,3.9069189453125,0.1819915771484375,-0.252838134765625,0.0733642578125
1772701730809967000,3.916967041015625,0.1668701171875,-0.2915496826171875,0.0079193115234375
1772701730820014800,3.927014892578125,0.2242584228515625,-0.3718719482421875,-0.0858612060546875
1772701730830064000,3.937064208984375,0.315093994140625,-0.41741943359375,-0.1629791259765625
1772701730840111900,3.94711181640625,0.472686767578125,-0.39007568359375,-0.23736572265625
1772701730850159900,3.957159912109375,0.6652374267578125,-0.30596923828125,-0.2904815673828125
1772701730860208000,3.9672080078125,0.8183746337890625,-0.2032470703125,-0.320770263671875
1772701730870257000,3.9772568359375,0.7733154296875,-0.079315185546875,-0.3123779296875
1772701730880305200,3.98730517578125,0.4825439453125,0.0176849365234375,-0.299713134765625
1772701730890353000,3.997352783203125,0.2456512451171875,0.074432373046875,-0.206329345703125
1772701730900402000,4.00740185546875,0.1800689697265625,0.08990478515625,-0.0602264404296875
1772701730910450000,4.017449951171875,0.1400146484375,0.06817626953125,0.018035888671875
1772701730920498000,4.027497802734375,0.0985107421875,0.091705322265625,0.0312042236328125
1772701730930546000,4.0375458984375,0.0528106689453125,0.1250152587890625,0.02862548828125
1772701730940595000,4.047594970703125,0.018157958984375,0.12469482421875,0.0511932373046875
1772701730950643000,4.057642822265625,0.0052337646484375,0.113922119140625,0.0862579345703125
1772701730960691000,4.06769091796875,-0.0194244384765625,0.107208251953125,0.101104736328125
1772701730970740000,4.077739990234375,-0.071136474609375,0.1119384765625,0.1173858642578125
1772701730980788000,4.0877880859375,-0.1788787841796875,0.115509033203125,0.157806396484375
1772701730990836000,4.0978359375,-0.315582275390625,0.1545562744140625,0.259307861328125
1772701731000884000,4.107884033203125,-0.5695648193359375,0.2699432373046875,0.5071868896484375
1772701731010933000,4.11793310546875,-1.0101776123046875,0.43939208984375,0.8165283203125
1772701731020980700,4.127980712890625,-1.31158447265625,0.5714263916015625,1.0248870849609375
1772701731031029000,4.138029052734375,-1.5249786376953125,0.495330810546875,0.842041015625
1772701731041077800,4.148077880859375,-1.907562255859375,0.2735137939453125,0.497314453125
1772701731051126000,4.1581259765625,-2.4306640625,0.33203125,0.302734375
1772701731061174000,4.168174072265625,-3.07879638671875,0.6075286865234375,-0.0990447998046875
1772701731071223000,4.17822314453125,-3.6071624755859375,0.7409515380859375,-0.2484130859375
1772701731081271000,4.18827099609375,-3.4618072509765625,0.7797088623046875,0.2721405029296875
1772701731091318800,4.19831884765625,-3.2438812255859375,0.6785888671875,1.2001800537109375
1772701731101367000,4.208366943359375,-2.938751220703125,0.70965576171875,2.057464599609375
1772701731111415800,4.218415771484375,-2.6062164306640625,0.73992919921875,1.835296630859375
1772701731121464000,4.228464111328125,-2.1882781982421875,0.7066497802734375,1.2261962890625
1772701731131511800,4.23851171875,-1.6655120849609375,0.610504150390625,0.3275146484375
1772701731141561000,4.24856103515625,-1.2662506103515625,0.4716949462890625,-0.41778564453125
1772701731151608800,4.25860888671875,-1.026123046875,0.263580322265625,-0.3792266845703125
1772701731161656800,4.26865673828125,-0.7843017578125,0.1573638916015625,-0.2523193359375
1772701731171705000,4.278705078125,-0.5759429931640625,0.0916595458984375,-0.0262603759765625
1772701731181753900,4.28875390625,-0.49481201171875,0.006256103515625,0.1462860107421875
1772701731191802000,4.298802001953125,-0.43035888671875,0.0056610107421875,0.267242431640625
1772701731201849900,4.308849853515625,-0.3564300537109375,0.023956298828125,0.3666534423828125
1772701731211899000,4.31889892578125,-0.3249053955078125,0.03814697265625,0.3828887939453125
1772701731221946600,4.328946533203125,-0.2288970947265625,0.030548095703125,0.375274658203125
1772701731231995000,4.338994873046875,-0.1364593505859375,0.0222015380859375,0.3181304931640625
1772701731242043600,4.349043701171875,-0.0787506103515625,0.0134429931640625,0.2381439208984375
1772701731252092000,4.359091796875,-0.0689239501953125,0.01666259765625,0.205078125
1772701731262140000,4.369139892578125,-0.11602783203125,0.0641937255859375,0.210296630859375
1772701731272187600,4.379187744140625,-0.19189453125,0.09564208984375,0.2061614990234375
1772701731282237000,4.38923681640625,-0.2342681884765625,0.1063995361328125,0.23016357421875
1772701731292284700,4.39928466796875,-0.3204193115234375,0.108734130859375,0.2913665771484375
1772701731302333000,4.4093330078125,-0.4690093994140625,0.091461181640625,0.3115081787109375
1772701731312381700,4.419381591796875,-0.61480712890625,0.1026611328125,0.295074462890625
1772701731322430000,4.429429931640625,-0.750457763671875,0.138519287109375,0.3116912841796875
1772701731332477700,4.439477783203125,-0.8957061767578125,0.162445068359375,0.4388885498046875
1772701731342525700,4.449525634765625,-0.9913330078125,0.20538330078125,0.5596160888671875
1772701731352574700,4.45957470703125,-1.0352783203125,0.27978515625,0.5643463134765625
1772701731362622700,4.469622802734375,-1.086334228515625,0.3318634033203125,0.579437255859375
1772701731372671000,4.4796708984375,-1.1202392578125,0.33819580078125,0.6468658447265625
1772701731382719700,4.4897197265625,-1.0691070556640625,0.295684814453125,0.799224853515625
1772701731392768000,4.49976806640625,-0.9439544677734375,0.2305450439453125,0.9047088623046875
1772701731402815700,4.509815673828125,-0.799041748046875,0.1895599365234375,0.8470458984375
1772701731412863700,4.51986376953125,-0.7005462646484375,0.1160430908203125,0.744537353515625
1772701731422912800,4.529912841796875,-0.646270751953125,0.0142822265625,0.726715087890625
1772701731432960800,4.539960693359375,-0.631622314453125,-0.00830078125,0.687286376953125
1772701731443009000,4.550009033203125,-0.5275421142578125,0.0904388427734375,0.616485595703125
1772701731453057800,4.560057861328125,-0.46026611328125,0.1301727294921875,0.4698028564453125
1772701731463105800,4.570105712890625,-0.4730987548828125,0.082916259765625,0.3069305419921875
1772701731473153800,4.58015380859375,-0.5096435546875,0.07763671875,0.2263336181640625
1772701731483201800,4.590201904296875,-0.54718017578125,0.095550537109375,0.146331787109375
1772701731493250800,4.600250732421875,-0.607391357421875,0.1105499267578125,0.05389404296875
1772701731503298800,4.610298828125,-0.6468658447265625,0.147918701171875,0.0282745361328125
1772701731513346800,4.620346923828125,-0.667816162109375,0.195526123046875,0.0196380615234375
1772701731523395800,4.630395751953125,-0.7382354736328125,0.2615814208984375,0.03375244140625
1772701731533443800,4.64044384765625,-0.87176513671875,0.3345794677734375,0.140350341796875
1772701731543491800,4.650491943359375,-1.06494140625,0.365753173828125,0.2534027099609375
1772701731553540600,4.66054052734375,-1.2611541748046875,0.2969207763671875,0.37060546875
1772701731563588900,4.6705888671875,-1.413238525390625,0.2196807861328125,0.5565643310546875
1772701731573636900,4.680636962890625,-1.4890289306640625,0.360076904296875,0.78955078125
1772701731583684900,4.690684814453125,-1.58026123046875,0.5471038818359375,1.0070648193359375
1772701731593734000,4.70073388671875,-1.687896728515625,0.529571533203125,1.1791839599609375
1772701731603782000,4.710781982421875,-1.8605804443359375,0.4278411865234375,1.2919921875
1772701731613830000,4.720829833984375,-2.0774078369140625,0.39276123046875,1.2674713134765625
1772701731623878700,4.730878662109375,-2.3305206298828125,0.553253173828125,1.105377197265625
1772701731633927000,4.740927001953125,-2.528839111328125,0.6738739013671875,1.040863037109375
1772701731643974700,4.750974609375,-2.5830078125,0.6492156982421875,1.1156005859375
1772701731654023000,4.76102294921875,-2.63677978515625,0.623687744140625,1.1938629150390625
1772701731664071700,4.77107177734375,-2.6762237548828125,0.5980987548828125,1.216064453125
1772701731674119700,4.78111962890625,-2.6694183349609375,0.514617919921875,1.26287841796875
1772701731684168000,4.79116796875,-2.62298583984375,0.393310546875,1.3292236328125
1772701731694216700,4.801216796875,-2.443603515625,0.289642333984375,1.3584747314453125
1772701731704265000,4.811264892578125,-2.1822967529296875,0.2098388671875,1.3490447998046875
1772701731714312700,4.821312744140625,-1.9011993408203125,0.1492156982421875,1.286895751953125
1772701731724361000,4.83136083984375,-1.576629638671875,0.142181396484375,1.195831298828125
1772701731734409700,4.84140966796875,-1.2234649658203125,0.1299591064453125,1.0698394775390625
1772701731744457700,4.851457763671875,-0.9027862548828125,0.1050262451171875,0.9593505859375
1772701731754506000,4.861506103515625,-0.5850982666015625,0.0811004638671875,0.867706298828125
1772701731764554800,4.8715546875,-0.350982666015625,-0.0143280029296875,0.87841796875
1772701731774603000,4.88160302734375,-0.19140625,-0.07843017578125,0.88409423828125
1772701731784650800,4.891650634765625,-0.0150146484375,-0.0836334228515625,0.749359130859375
1772701731794700000,4.901699951171875,0.1222991943359375,-0.1216583251953125,0.595733642578125
1772701731804747800,4.911747802734375,0.2750396728515625,-0.150604248046875,0.4332427978515625
1772701731814795800,4.921795654296875,0.582733154296875,-0.1055755615234375,0.190948486328125
1772701731824843800,4.93184375,1.0885162353515625,-0.024932861328125,-0.1576385498046875
1772701731834892800,4.941892822265625,1.549224853515625,-0.07537841796875,-0.36602783203125
1772701731844940800,4.95194091796875,1.744293212890625,-0.1733245849609375,-0.385894775390625
1772701731854988800,4.96198876953125,1.1319427490234375,-0.0953826904296875,-0.3604888916015625
1772701731865037800,4.972037841796875,0.574615478515625,0.0417327880859375,-0.4308319091796875
1772701731875085800,4.9820859375,0.364410400390625,0.1214141845703125,-0.442657470703125
1772701731885133800,4.9921337890625,0.3638916015625,0.0803070068359375,-0.403564453125
1772701731895181800,5.002181884765625,0.3507843017578125,0.08978271484375,-0.3802032470703125
1772701731905230800,5.01223095703125,0.2433929443359375,0.07861328125,-0.35687255859375
1772701731915278800,5.02227880859375,0.1333160400390625,0.08026123046875,-0.30029296875
1772701731925326800,5.032326904296875,0.0514678955078125,0.07568359375,-0.222137451171875
1772701731935376000,5.0423759765625,0.0194549560546875,0.0676422119140625,-0.1595611572265625
1772701731945424000,5.052423828125,0.029022216796875,0.0481109619140625,-0.1171875
1772701731955472000,5.062471923828125,0.031036376953125,0.047393798828125,-0.1141510009765625
1772701731965520000,5.072519775390625,0.0279083251953125,0.0943145751953125,-0.070556640625
1772701731975569000,5.08256884765625,-0.0088958740234375,0.1471710205078125,0.031951904296875
1772701731985617000,5.092616943359375,-0.0777587890625,0.1917572021484375,0.0992889404296875
1772701731995665000,5.102664794921875,-0.1575469970703125,0.2033843994140625,0.156341552734375
1772701732005714000,5.1127138671875,-0.2418060302734375,0.2299957275390625,0.2180938720703125
1772701732015762000,5.122761962890625,-0.33453369140625,0.3133087158203125,0.3277130126953125
1772701732025809700,5.1328095703125,-0.412109375,0.397247314453125,0.4974212646484375
1772701732035859000,5.14285888671875,-0.4586029052734375,0.414154052734375,0.6234130859375
1772701732045906700,5.15290673828125,-0.5164337158203125,0.373748779296875,0.6959686279296875
1772701732055955000,5.162954833984375,-0.5968780517578125,0.3489227294921875,0.77593994140625
1772701732066003000,5.1730029296875,-0.6714324951171875,0.3551483154296875,0.8463897705078125
1772701732076051700,5.1830517578125,-0.9246978759765625,0.3637237548828125,0.9961395263671875
1772701732086100000,5.193099853515625,-1.2635955810546875,0.363800048828125,1.135650634765625
1772701732096147700,5.203147705078125,-1.664581298828125,0.3694305419921875,1.1056365966796875
1772701732106197000,5.213197021484375,-2.3779144287109375,0.4436187744140625,0.9952850341796875
1772701732116244700,5.22324462890625,-3.281982421875,0.480865478515625,0.8950042724609375
1772701732126293000,5.23329296875,-3.8661651611328125,0.4634246826171875,0.9790191650390625
1772701732136340700,5.2433408203125,-3.7732086181640625,0.4759063720703125,1.5198516845703125
1772701732146389800,5.2533896484375,-3.4468231201171875,0.44818115234375,2.2387542724609375
1772701732156437800,5.263437744140625,-2.9202117919921875,0.360443115234375,2.114654541015625
1772701732166485800,5.27348583984375,-2.2848663330078125,0.3245697021484375,1.642608642578125
1772701732176534800,5.28353466796875,-1.76837158203125,0.176727294921875,1.0451202392578125
1772701732186582800,5.293582763671875,-1.3741455078125,0.07080078125,0.5431976318359375
1772701732196630800,5.303630859375,-0.99444580078125,0.082672119140625,0.224884033203125
1772701732206680300,5.313680419921875,-0.73565673828125,0.1142120361328125,-0.0288848876953125
1772701732216728600,5.323728515625,-0.549774169921875,0.137725830078125,-0.2358551025390625
1772701732226776300,5.3337763671875,-0.3967132568359375,0.16729736328125,-0.3330230712890625
1772701732236824600,5.343824462890625,-0.2724456787109375,0.1813812255859375,-0.30535888671875
1772701732246873300,5.353873291015625,-0.17364501953125,0.1954498291015625,-0.2415618896484375
1772701732256921300,5.36392138671875,-0.09600830078125,0.2141876220703125,-0.1934967041015625
1772701732266969300,5.37396923828125,-0.0911407470703125,0.22100830078125,-0.1274261474609375
1772701732277017300,5.384017333984375,-0.21270751953125,0.161041259765625,0.0025634765625
1772701732287066400,5.39406640625,-0.3436126708984375,0.10150146484375,0.139862060546875
1772701732297114400,5.4041142578125,-0.391510009765625,0.1212005615234375,0.1897735595703125
1772701732307162600,5.41416259765625,-0.4209136962890625,0.1249237060546875,0.2879791259765625
1772701732317211400,5.42421142578125,-0.46917724609375,0.110748291015625,0.4072418212890625
1772701732327259400,5.43425927734375,-0.507354736328125,0.0942840576171875,0.5262603759765625
1772701732337307400,5.444307373046875,-0.5736846923828125,0.088592529296875,0.6015167236328125
1772701732347355400,5.45435546875,-0.660858154296875,0.1240234375,0.618133544921875
1772701732357404400,5.464404296875,-0.71533203125,0.1533660888671875,0.5905914306640625
1772701732367452400,5.474452392578125,-0.7455902099609375,0.1316375732421875,0.5352935791015625
1772701732377500400,5.48450048828125,-0.774688720703125,0.1032562255859375,0.4635772705078125
1772701732387549400,5.494549560546875,-0.8100738525390625,0.080780029296875,0.403594970703125
1772701732397597400,5.504597412109375,-0.8491363525390625,0.0609283447265625,0.4101104736328125
1772701732407645400,5.5146455078125,-0.89202880859375,0.0434112548828125,0.4881591796875
1772701732417694200,5.524694091796875,-0.94122314453125,0.044097900390625,0.6104583740234375
1772701732427742500,5.534742431640625,-1.0030517578125,0.0570220947265625,0.739898681640625
1772701732437790500,5.54479052734375,-1.0788421630859375,0.067657470703125,0.793365478515625
1772701732447838200,5.554838134765625,-1.0814971923828125,0.1013336181640625,0.7580718994140625
1772701732457887500,5.564887451171875,-0.9719085693359375,0.153961181640625,0.6796417236328125
1772701732467935200,5.574935302734375,-0.816741943359375,0.171234130859375,0.6120452880859375
1772701732477983500,5.5849833984375,-0.6640472412109375,0.1640167236328125,0.578521728515625
1772701732488032300,5.5950322265625,-0.6024932861328125,0.139251708984375,0.53424072265625
1772701732498080500,5.60508056640625,-0.6122283935546875,0.094146728515625,0.471710205078125
1772701732508128500,5.61512841796875,-0.6491546630859375,0.05975341796875,0.4647979736328125
1772701732518176300,5.62517626953125,-0.6545867919921875,0.07745361328125,0.4659423828125
1772701732528225500,5.6352255859375,-0.6321563720703125,0.13970947265625,0.3998260498046875
1772701732538273300,5.645273193359375,-0.6401214599609375,0.202667236328125,0.3231964111328125
1772701732548321500,5.655321533203125,-0.640716552734375,0.3092041015625,0.32244873046875
1772701732558370300,5.665370361328125,-0.6005096435546875,0.4439544677734375,0.374847412109375
1772701732568418600,5.67541845703125,-0.5983428955078125,0.5057373046875,0.3951263427734375
1772701732578466300,5.68546630859375,-0.6544952392578125,0.4033355712890625,0.339874267578125
1772701732588515600,5.695515625,-0.8045196533203125,0.235626220703125,0.349212646484375
1772701732598563300,5.705563232421875,-1.02850341796875,0.149810791015625,0.4837799072265625
1772701732608611300,5.715611328125,-1.19757080078125,0.1356658935546875,0.5780181884765625
1772701732618660400,5.725660400390625,-1.360504150390625,0.1671905517578125,0.486114501953125
1772701732628708400,5.735708251953125,-1.5870208740234375,0.284271240234375,0.3898162841796875
1772701732638756600,5.745756591796875,-1.709808349609375,0.5653839111328125,0.4783172607421875
1772701732648804400,5.755804443359375,-1.79058837890625,0.6967620849609375,0.6505126953125
1772701732658853400,5.765853271484375,-2.015777587890625,0.568939208984375,0.7543182373046875
1772701732668901400,5.7759013671875,-2.2711334228515625,0.610687255859375,0.885162353515625
1772701732678949400,5.785949462890625,-2.4389495849609375,0.6763153076171875,1.0866241455078125
1772701732688998400,5.795998291015625,-2.593597412109375,0.5444183349609375,1.44476318359375
1772701732699046400,5.80604638671875,-2.5621795654296875,0.423614501953125,1.7229766845703125
1772701732709094400,5.816094482421875,-2.42523193359375,0.3770904541015625,1.8897552490234375
1772701732719142400,5.826142333984375,-2.263824462890625,0.3361968994140625,2.0526885986328125
1772701732729191400,5.83619140625,-2.0870361328125,0.2786407470703125,2.1148834228515625
1772701732739239400,5.846239501953125,-1.8935089111328125,0.1957244873046875,2.0344696044921875
1772701732749287400,5.856287353515625,-1.7167816162109375,0.0956268310546875,1.8662109375
1772701732759336400,5.86633642578125,-1.5585174560546875,-0.007598876953125,1.720001220703125
1772701732769384400,5.876384521484375,-1.3445281982421875,-0.093109130859375,1.5860748291015625
1772701732779432200,5.88643212890625,-1.0439605712890625,-0.1353607177734375,1.4180450439453125
1772701732789481500,5.8964814453125,-0.7454071044921875,-0.2065582275390625,1.1899871826171875
1772701732799529200,5.906529296875,-0.5184478759765625,-0.2498779296875,1.0006866455078125
1772701732809577500,5.916577392578125,-0.2348175048828125,-0.2386627197265625,0.8549041748046875
1772701732819625500,5.92662548828125,0.083984375,-0.1719512939453125,0.6733856201171875
1772701732829674500,5.936674560546875,0.3993072509765625,-0.0762481689453125,0.516143798828125
1772701732839722500,5.946722412109375,0.6510162353515625,-0.0716094970703125,0.461090087890625
1772701732849770200,5.956770263671875,0.853240966796875,-0.1178131103515625,0.2823028564453125
1772701732859819500,5.966819580078125,0.9083709716796875,-0.114288330078125,0.024017333984375
1772701732869867300,5.9768671875,0.9314727783203125,-0.0847930908203125,-0.196990966796875
1772701732879915500,5.98691552734375,0.8322601318359375,-0.0750579833984375,-0.2005157470703125
1772701732889963300,5.99696337890625,0.7155303955078125,-0.1465911865234375,-0.1246185302734375
1772701732900012500,6.007012451171875,0.5836181640625,-0.151641845703125,-0.13629150390625
1772701732910060300,6.017060302734375,0.4502105712890625,-0.1324920654296875,-0.1459808349609375
1772701732920108300,6.0271083984375,0.38616943359375,-0.119598388671875,-0.1410064697265625
1772701732930157300,6.0371572265625,0.3555145263671875,-0.1187896728515625,-0.1513671875
1772701732940205300,6.047205322265625,0.32025146484375,-0.0828704833984375,-0.1809844970703125
1772701732950253600,6.057253662109375,0.285125732421875,-0.054840087890625,-0.175537109375
1772701732960302300,6.06730224609375,0.1965484619140625,-0.030517578125,-0.1451416015625
1772701732970350600,6.0773505859375,0.0943756103515625,0.0055694580078125,-0.10137939453125
1772701732980398300,6.0873984375,0.0049591064453125,0.0509490966796875,-0.05029296875
1772701732990446300,6.0974462890625,-0.0495452880859375,0.0803680419921875,-0.0068359375
1772701733000495400,6.107495361328125,-0.0735015869140625,0.0908660888671875,0.0153045654296875
1772701733010543400,6.11754345703125,-0.08404541015625,0.0965728759765625,0.015716552734375
1772701733020591600,6.127591552734375,-0.107696533203125,0.1092529296875,0.02294921875
1772701733030640400,6.137640380859375,-0.14569091796875,0.14691162109375,0.04730224609375
1772701733040688600,6.147688720703125,-0.161895751953125,0.1854400634765625,0.0787353515625
1772701733050736400,6.157736328125,-0.19390869140625,0.191070556640625,0.0922393798828125
1772701733060785400,6.167785400390625,-0.237060546875,0.1871185302734375,0.1003265380859375
1772701733070833400,6.17783349609375,-0.28924560546875,0.1610260009765625,0.1304473876953125
1772701733080881400,6.18788134765625,-0.303985595703125,0.1286163330078125,0.1959991455078125
1772701733090929400,6.197929443359375,-0.357574462890625,0.1114654541015625,0.271026611328125
1772701733100978400,6.207978515625,-0.462310791015625,0.08624267578125,0.362640380859375
1772701733111026400,6.2180263671875,-0.5836029052734375,0.073455810546875,0.4877166748046875
1772701733121074400,6.228074462890625,-0.760223388671875,0.0731353759765625,0.612701416015625
1772701733131123200,6.238123291015625,-0.9996795654296875,0.0420684814453125,0.693634033203125
1772701733141171500,6.24817138671875,-1.344818115234375,-0.004791259765625,0.76043701171875
1772701733151219500,6.258219482421875,-1.790679931640625,0.0153350830078125,0.977386474609375
1772701733161268500,6.2682685546875,-2.118194580078125,0.22808837890625,1.2651214599609375
1772701733171316500,6.27831640625,-2.6963958740234375,0.607086181640625,1.2471923828125
1772701733181364200,6.2883642578125,-3.5450592041015625,0.7771453857421875,1.4559326171875
1772701733191412500,6.29841259765625,-3.68487548828125,0.4047698974609375,1.923065185546875
1772701733201460500,6.30846044921875,-3.7354583740234375,-0.0892791748046875,2.2352142333984375
1772701733211508500,6.318508544921875,-3.412353515625,-0.3188323974609375,1.9186553955078125
1772701733221556700,6.328556640625,-2.555389404296875,-0.3529815673828125,1.3305816650390625
1772701733231605500,6.33860546875,-1.8792266845703125,-0.25604248046875,0.7978057861328125
1772701733241653800,6.34865380859375,-1.4438018798828125,-0.116363525390625,0.43212890625
1772701733251701500,6.358701416015625,-1.16546630859375,-0.036834716796875,0.2868499755859375
1772701733261750500,6.36875048828125,-0.97357177734375,0.01959228515625,0.3209991455078125
1772701733271798500,6.378798583984375,-0.83355712890625,0.0916900634765625,0.35504150390625
1772701733281846500,6.388846435546875,-0.7186737060546875,0.1267852783203125,0.2868499755859375
1772701733291894800,6.398894775390625,-0.5765838623046875,0.12640380859375,0.2129974365234375
1772701733301943600,6.408943603515625,-0.394073486328125,0.1010284423828125,0.2090911865234375
1772701733311991800,6.41899169921875,-0.2328643798828125,0.0915985107421875,0.181610107421875
1772701733322039600,6.42903955078125,-0.1331787109375,0.098419189453125,0.132537841796875
1772701733332088600,6.439088623046875,-0.1240234375,0.0913848876953125,0.0731353759765625
1772701733342136600,6.449136474609375,-0.1453857421875,0.1176910400390625,-0.0039520263671875
1772701733352184600,6.4591845703125,-0.1731414794921875,0.1646881103515625,-0.0662384033203125
1772701733362232600,6.469232666015625,-0.200897216796875,0.1685028076171875,-0.14666748046875
1772701733372281600,6.479281494140625,-0.2924041748046875,0.1418609619140625,-0.2105255126953125
1772701733382329300,6.489329345703125,-0.4451141357421875,0.093505859375,-0.0390625
1772701733392377600,6.499377685546875,-0.51470947265625,0.0399017333984375,0.36346435546875
1772701733402426400,6.50942626953125,-0.46636962890625,0.0403289794921875,0.53936767578125
1772701733412474600,6.519474609375,-0.412841796875,0.107940673828125,0.555389404296875
1772701733422522600,6.529522705078125,-0.393402099609375,0.14337158203125,0.6062774658203125
1772701733432571600,6.539571533203125,-0.3355865478515625,0.0928192138671875,0.6303253173828125
1772701733442619600,6.54961962890625,-0.2836761474609375,0.0801239013671875,0.5196075439453125
1772701733452667400,6.55966748046875,-0.2867279052734375,0.1013031005859375,0.4304962158203125
1772701733462715600,6.569715576171875,-0.343505859375,0.17193603515625,0.441986083984375
1772701733472764400,6.579764404296875,-0.4395751953125,0.1809234619140625,0.548370361328125
1772701733482812700,6.589812744140625,-0.554412841796875,0.1362152099609375,0.6785888671875
1772701733492860700,6.599860595703125,-0.6871795654296875,0.1332244873046875,0.7660064697265625
1772701733502909700,6.60990966796875,-0.92559814453125,0.1689910888671875,0.8769989013671875
1772701733512957700,6.619957763671875,-1.0739593505859375,0.220458984375,0.9423675537109375
1772701733523005400,6.63000537109375,-1.0572357177734375,0.225433349609375,0.877716064453125
1772701733533054500,6.640054443359375,-0.9605865478515625,0.1517333984375,0.7723846435546875
1772701733543102500,6.6501025390625,-0.9407501220703125,0.0129241943359375,0.7208709716796875
1772701733553150700,6.660150634765625,-0.96881103515625,-0.1134185791015625,0.676605224609375
1772701733563198500,6.670198486328125,-0.908172607421875,-0.1677093505859375,0.6938934326171875
1772701733573247700,6.680247802734375,-0.8820037841796875,-0.1791229248046875,0.716583251953125
1772701733583295500,6.69029541015625,-0.788055419921875,-0.1340179443359375,0.7034759521484375
1772701733593343500,6.700343505859375,-0.6998138427734375,-0.077545166015625,0.6882781982421875
1772701733603392500,6.710392578125,-0.6995086669921875,-0.0649261474609375,0.6693878173828125
1772701733613440500,6.7204404296875,-0.7214813232421875,-0.0590972900390625,0.669677734375
1772701733623488800,6.73048876953125,-0.7268524169921875,-0.002349853515625,0.668121337890625
1772701733633537500,6.74053759765625,-0.7174224853515625,0.0660247802734375,0.669921875
1772701733643585800,6.750585693359375,-0.727630615234375,0.1342620849609375,0.6598358154296875
1772701733653633500,6.760633544921875,-0.785858154296875,0.194976806640625,0.676849365234375
1772701733663681500,6.770681640625,-0.913055419921875,0.20751953125,0.6791229248046875
1772701733673730600,6.78073046875,-1.0386810302734375,0.1866607666015625,0.7081756591796875
1772701733683778600,6.790778564453125,-1.1290130615234375,0.1533660888671875,0.7908935546875
1772701733693826600,6.80082666015625,-1.19903564453125,0.12945556640625,0.8055877685546875
1772701733703875600,6.81087548828125,-1.2917327880859375,0.1386260986328125,0.801605224609375
1772701733713923600,6.820923583984375,-1.3689117431640625,0.178497314453125,0.823028564453125
1772701733723971600,6.8309716796875,-1.4211273193359375,0.2444915771484375,0.9090118408203125
1772701733734020400,6.841020263671875,-1.504730224609375,0.2660980224609375,1.0457611083984375
1772701733744068600,6.851068603515625,-1.6336822509765625,0.2747955322265625,1.15802001953125
1772701733754116600,6.86111669921875,-1.7132415771484375,0.2987823486328125,1.2493743896484375
1772701733764164600,6.87116455078125,-1.7956695556640625,0.286834716796875,1.3082122802734375
1772701733774213600,6.881213623046875,-1.9113311767578125,0.2118988037109375,1.3620147705078125
1772701733784261400,6.891261474609375,-1.984954833984375,0.1026763916015625,1.4527740478515625
1772701733794309600,6.9013095703125,-2.0405731201171875,-0.0496826171875,1.54595947265625
1772701733804358400,6.9113583984375,-2.1538238525390625,-0.0870819091796875,1.6804351806640625
1772701733814406700,6.92140673828125,-2.2508697509765625,0.04541015625,1.9203948974609375
1772701733824454700,6.93145458984375,-2.140411376953125,0.088623046875,2.0292816162109375
1772701733834503700,6.941503662109375,-2.00054931640625,0.06036376953125,1.9991912841796875
1772701733844551700,6.9515517578125,-1.8686065673828125,0.04364013671875,1.8223724365234375
1772701733854599400,6.961599365234375,-1.6238250732421875,0.0483245849609375,1.5262908935546875
1772701733864647700,6.971647705078125,-1.2035064697265625,0.046417236328125,1.2590179443359375
1772701733874696400,6.981696533203125,-0.67510986328125,0.0566558837890625,1.0940704345703125
1772701733884744700,6.99174462890625,-0.2330780029296875,0.015899658203125,0.9169769287109375
1772701733894792400,7.00179248046875,0.0758819580078125,-0.0387115478515625,0.681427001953125
1772701733904841700,7.011841796875,0.3307952880859375,-0.083648681640625,0.47705078125
1772701733914889500,7.021889404296875,0.48260498046875,-0.0919342041015625,0.2948455810546875
1772701733924937500,7.0319375,0.5816192626953125,-0.06011962890625,0.1952056884765625
1772701733934986500,7.041986572265625,0.6648101806640625,-0.021820068359375,0.1232757568359375
1772701733945034500,7.052034423828125,0.7154693603515625,-0.0149078369140625,0.040557861328125
1772701733955082800,7.062082763671875,0.7412872314453125,-0.018310546875,-0.0220947265625
1772701733965130500,7.072130615234375,0.7557220458984375,-0.0379638671875,-0.0401763916015625
1772701733975179800,7.0821796875,0.7501220703125,-0.074615478515625,-0.060272216796875
1772701733985227500,7.0922275390625,0.7253265380859375,-0.08544921875,-0.060516357421875
1772701733995275500,7.102275634765625,0.66058349609375,-0.0463714599609375,-0.077606201171875
1772701734005324500,7.112324462890625,0.5831146240234375,-0.00201416015625,-0.1244964599609375
1772701734015372500,7.12237255859375,0.469390869140625,0.0345916748046875,-0.1494293212890625
1772701734025420500,7.132420654296875,0.3487701416015625,0.045135498046875,-0.1132659912109375
1772701734035469600,7.142469482421875,0.2689971923828125,0.035888671875,-0.06475830078125
1772701734045517600,7.152517578125,0.180450439453125,0.048309326171875,-0.02789306640625
1772701734055565600,7.162565673828125,0.1045684814453125,0.0694580078125,0.00579833984375
1772701734065613600,7.172613525390625,0.02886962890625,0.079345703125,0.040771484375
1772701734075662600,7.18266259765625,-0.0193939208984375,0.08477783203125,0.060150146484375
1772701734085710600,7.192710693359375,-0.0741424560546875,0.08868408203125,0.0774688720703125
1772701734095758600,7.202758544921875,-0.1150665283203125,0.0818939208984375,0.0840301513671875
1772701734105807600,7.2128076171875,-0.155120849609375,0.07220458984375,0.0890960693359375
1772701734115855600,7.222855712890625,-0.1949615478515625,0.0798492431640625,0.0930023193359375
1772701734125903600,7.232903564453125,-0.2378692626953125,0.0994873046875,0.096160888671875
1772701734135952400,7.242952392578125,-0.265289306640625,0.1070098876953125,0.1000213623046875
1772701734146000600,7.253000732421875,-0.328826904296875,0.1128387451171875,0.123809814453125
1772701734156048600,7.263048583984375,-0.389892578125,0.104461669921875,0.1608123779296875
1772701734166096600,7.2730966796875,-0.4525146484375,0.0881500244140625,0.2121429443359375
1772701734176145700,7.283145751953125,-0.473968505859375,0.0775146484375,0.2719879150390625
1772701734186193400,7.293193359375,-0.473846435546875,0.0830078125,0.3323822021484375
1772701734196241700,7.30324169921875,-0.5019378662109375,0.1002655029296875,0.4054718017578125
1772701734206291000,7.313291015625,-0.63519287109375,0.1334075927734375,0.5125274658203125
1772701734216339000,7.3233388671875,-0.7882080078125,0.17791748046875,0.659637451171875
1772701734226387000,7.333386962890625,-1.0376739501953125,0.2405548095703125,0.8848876953125
1772701734236436000,7.34343603515625,-1.5214691162109375,0.368377685546875,1.2201385498046875
1772701734246484000,7.35348388671875,-2.2121734619140625,0.54022216796875,1.469268798828125
1772701734256532000,7.363531982421875,-2.65155029296875,0.6366119384765625,1.699371337890625
1772701734266580000,7.373580078125,-2.900909423828125,0.5642547607421875,2.0706329345703125
1772701734276629000,7.38362890625,-3.0363311767578125,0.3826904296875,2.538818359375
1772701734286677000,7.393677001953125,-2.679595947265625,0.2891693115234375,2.3674468994140625
1772701734296725000,7.40372509765625,-2.1903228759765625,0.243438720703125,1.8614349365234375
1772701734306774000,7.41377392578125,-2.0180816650390625,0.2554779052734375,1.581298828125
1772701734316822000,7.423822021484375,-1.892913818359375,0.3070526123046875,1.349334716796875
1772701734326870000,7.4338701171875,-1.77728271484375,0.3017730712890625,1.1121063232421875
1772701734336918800,7.443918701171875,-1.6543426513671875,0.2233428955078125,0.933319091796875
1772701734346967000,7.453967041015625,-1.46063232421875,0.1626129150390625,0.7501068115234375
1772701734357014800,7.464014892578125,-1.2608489990234375,0.12652587890625,0.6036376953125
1772701734367064000,7.47406396484375,-1.025238037109375,0.099853515625,0.5172271728515625
1772701734377111800,7.48411181640625,-0.7999420166015625,0.081573486328125,0.4443206787109375
1772701734387160000,7.49416015625,-0.6271209716796875,0.0713043212890625,0.37255859375
1772701734397208000,7.5042080078125,-0.45806884765625,0.0460052490234375,0.318878173828125
1772701734407256800,7.5142568359375,-0.29583740234375,0.018951416015625,0.2609100341796875
1772701734417305000,7.52430517578125,-0.168212890625,0.0053863525390625,0.223846435546875
1772701734427352800,7.534352783203125,-0.0825653076171875,0.0253448486328125,0.2156219482421875
1772701734437402000,7.544402099609375,-0.073883056640625,0.078582763671875,0.2740631103515625
1772701734447449900,7.554449951171875,-0.1369781494140625,0.1109161376953125,0.3369140625
1772701734457497900,7.564497802734375,-0.1948089599609375,0.1114349365234375,0.350860595703125
1772701734467547000,7.574546875,-0.23223876953125,0.123809814453125,0.369873046875
1772701734477595000,7.584594970703125,-0.26220703125,0.12518310546875,0.37493896484375
1772701734487643000,7.594642822265625,-0.31182861328125,0.111663818359375,0.39788818359375
1772701734497691000,7.60469091796875,-0.3507080078125,0.0950164794921875,0.46368408203125
1772701734507740000,7.614739990234375,-0.4027862548828125,0.102264404296875,0.519378662109375
1772701734517788000,7.624787841796875,-0.47406005859375,0.1579742431640625,0.5573883056640625
1772701734527836000,7.6348359375,-0.5562744140625,0.197998046875,0.6316986083984375
1772701734537885000,7.644885009765625,-0.604736328125,0.21826171875,0.690673828125
1772701734547933000,7.654932861328125,-0.6165924072265625,0.254608154296875,0.7429351806640625
1772701734557981000,7.66498095703125,-0.6922760009765625,0.320220947265625,0.7891082763671875
1772701734568030000,7.675030029296875,-0.760223388671875,0.363800048828125,0.814605712890625
1772701734578078000,7.685077880859375,-0.8207244873046875,0.3540802001953125,0.819732666015625
1772701734588126000,7.6951259765625,-0.8854217529296875,0.3229827880859375,0.812164306640625
1772701734598175000,7.705175048828125,-0.948577880859375,0.308197021484375,0.7896270751953125
1772701734608223000,7.715222900390625,-0.9932861328125,0.3177947998046875,0.7686614990234375
1772701734618271000,7.72527099609375,-0.9793243408203125,0.350006103515625,0.738037109375
1772701734628319000,7.735319091796875,-0.9150238037109375,0.3714447021484375,0.6763458251953125
1772701734638368000,7.745367919921875,-0.851226806640625,0.3574066162109375,0.6282806396484375
1772701734648416000,7.755416015625,-0.8108367919921875,0.316986083984375,0.5935516357421875
1772701734658464000,7.765464111328125,-0.7728118896484375,0.2717132568359375,0.5854339599609375
1772701734668513000,7.775512939453125,-0.736419677734375,0.2374725341796875,0.595611572265625
1772701734678561000,7.78556103515625,-0.73162841796875,0.2131500244140625,0.59893798828125
1772701734688608800,7.79560888671875,-0.7566070556640625,0.189361572265625,0.5880889892578125
1772701734698658000,7.805657958984375,-0.756683349609375,0.1976318359375,0.5474700927734375
1772701734708705800,7.815705810546875,-0.74627685546875,0.2291412353515625,0.5084686279296875
1772701734718754000,7.825754150390625,-0.700408935546875,0.25225830078125,0.4740753173828125
1772701734728802800,7.835802734375,-0.6257781982421875,0.2804107666015625,0.4615478515625
1772701734738850800,7.845850830078125,-0.5672149658203125,0.3172760009765625,0.476531982421875
1772701734748899000,7.855899169921875,-0.541778564453125,0.3299407958984375,0.51995849609375
1772701734758946800,7.86594677734375,-0.5548553466796875,0.330841064453125,0.5825958251953125
1772701734768996000,7.87599609375,-0.5910186767578125,0.345184326171875,0.649658203125
1772701734779043800,7.8860439453125,-0.6602325439453125,0.3418121337890625,0.6909027099609375
1772701734789092000,7.896092041015625,-0.6845703125,0.3245697021484375,0.7312774658203125
1772701734799140900,7.906140869140625,-0.683990478515625,0.283660888671875,0.7378387451171875
1772701734809188900,7.91618896484375,-0.73486328125,0.2497406005859375,0.6961822509765625
1772701734819237000,7.926237060546875,-0.7731781005859375,0.1780242919921875,0.684295654296875
1772701734829286000,7.936285888671875,-0.8348236083984375,0.0979766845703125,0.6767730712890625
1772701734839334000,7.946333984375,-0.893463134765625,0.1729278564453125,0.613800048828125
1772701734849382000,7.9563818359375,-0.845672607421875,0.28179931640625,0.580108642578125
1772701734859431000,7.966430908203125,-0.7560882568359375,0.271240234375,0.671844482421875
1772701734869479000,7.97647900390625,-0.6953125,0.2494964599609375,0.7582550048828125
1772701734879527000,7.98652685546875,-0.69427490234375,0.2344818115234375,0.8080902099609375
1772701734889575000,7.996574951171875,-0.744140625,0.2484588623046875,0.79412841796875
1772701734899624000,8.0066240234375,-0.78131103515625,0.249359130859375,0.757568359375
1772701734909672000,8.016671875,-0.790130615234375,0.2293548583984375,0.74017333984375
1772701734919720000,8.026719970703125,-0.804168701171875,0.2134857177734375,0.7269744873046875
1772701734929769000,8.03676904296875,-0.7911834716796875,0.21710205078125,0.70135498046875
1772701734939817000,8.04681689453125,-0.760040283203125,0.2180023193359375,0.6681976318359375
1772701734949865000,8.056864990234375,-0.7542266845703125,0.203826904296875,0.636138916015625
1772701734959914000,8.0669140625,-0.7374420166015625,0.1686859130859375,0.60406494140625
1772701734969962000,8.0769619140625,-0.686920166015625,0.1162109375,0.59906005859375
1772701734980010000,8.087010009765624,-0.6542205810546875,0.1273651123046875,0.606414794921875
1772701734990059000,8.09705908203125,-0.6968841552734375,0.2344970703125,0.5766754150390625
1772701735000107000,8.10710693359375,-0.749237060546875,0.2863616943359375,0.589385986328125
1772701735010155000,8.117155029296875,-0.739959716796875,0.2822418212890625,0.63421630859375
1772701735020202800,8.12720263671875,-0.731414794921875,0.2990264892578125,0.6428985595703125
1772701735030252000,8.137251953125,-0.7046966552734375,0.2880401611328125,0.656768798828125
1772701735040299800,8.1472998046875,-0.6730499267578125,0.24774169921875,0.6744384765625
1772701735050348000,8.15734814453125,-0.6725616455078125,0.2296295166015625,0.6581573486328125
1772701735060396800,8.167396728515625,-0.684478759765625,0.23431396484375,0.6327362060546875
1772701735070445000,8.177445068359376,-0.7066802978515625,0.2392425537109375,0.6248779296875
1772701735080493000,8.1874931640625,-0.7205657958984375,0.2368011474609375,0.6383819580078125
1772701735090541800,8.197541748046875,-0.7043914794921875,0.23236083984375,0.6625213623046875
1772701735100590000,8.207590087890624,-0.6881561279296875,0.2289886474609375,0.681182861328125
1772701735110637800,8.217637939453125,-0.68670654296875,0.22784423828125,0.6822967529296875
1772701735120687000,8.22768701171875,-0.68212890625,0.215484619140625,0.685943603515625
1772701735130734800,8.23773486328125,-0.660797119140625,0.202972412109375,0.680084228515625
1772701735140782800,8.247782958984375,-0.6544647216796875,0.2084503173828125,0.6682891845703125
1772701735150831000,8.2578310546875,-0.6793212890625,0.21575927734375,0.667205810546875
1772701735160879900,8.2678798828125,-0.690460205078125,0.217376708984375,0.6717376708984375
1772701735170928000,8.27792822265625,-0.6911163330078125,0.2251434326171875,0.68170166015625
1772701735180975900,8.287975830078125,-0.705535888671875,0.23223876953125,0.6836090087890625
1772701735191025000,8.29802490234375,-0.713409423828125,0.2308349609375,0.678192138671875
1772701735201073000,8.308072998046875,-0.710693359375,0.23919677734375,0.679901123046875
1772701735211121200,8.31812109375,-0.695953369140625,0.2484588623046875,0.678436279296875
1772701735221170200,8.328170166015624,-0.65924072265625,0.251739501953125,0.6770782470703125
1772701735231218200,8.33821826171875,-0.625213623046875,0.2529754638671875,0.6778411865234375
1772701735241266200,8.34826611328125,-0.622344970703125,0.2633819580078125,0.6800994873046875
1772701735251315200,8.358315185546875,-0.6262054443359375,0.2701873779296875,0.6776275634765625
1772701735261363200,8.36836328125,-0.62884521484375,0.275360107421875,0.6902618408203125
1772701735271411200,8.3784111328125,-0.6352691650390625,0.2704315185546875,0.7047882080078125
1772701735281460200,8.388460205078125,-0.6492767333984375,0.2704315185546875,0.71649169921875
1772701735291508200,8.39850830078125,-0.6698760986328125,0.2731475830078125,0.7164154052734375
1772701735301556200,8.40855615234375,-0.67913818359375,0.2757720947265625,0.714508056640625
1772701735311604200,8.418604248046876,-0.6793365478515625,0.283782958984375,0.714569091796875
1772701735321653200,8.4286533203125,-0.6833343505859375,0.2949676513671875,0.722503662109375
1772701735331701200,8.438701171875,-0.689117431640625,0.310211181640625,0.718231201171875
1772701735341749200,8.448749267578124,-0.697967529296875,0.3152313232421875,0.7165374755859375
1772701735351798300,8.45879833984375,-0.70697021484375,0.311126708984375,0.7143707275390625
1772701735361846300,8.46884619140625,-0.721038818359375,0.3065948486328125,0.7151031494140625
1772701735371894000,8.47889404296875,-0.728515625,0.29937744140625,0.7122344970703125
1772701735381943300,8.488943359375,-0.7140960693359375,0.2784271240234375,0.70794677734375
1772701735391991000,8.498990966796875,-0.6978759765625,0.2566375732421875,0.7018585205078125
1772701735402039300,8.509039306640625,-0.6924285888671875,0.2547760009765625,0.689422607421875
1772701735412088000,8.519088134765624,-0.6830596923828125,0.2537841796875,0.6806640625
1772701735422136300,8.52913623046875,-0.6636505126953125,0.2557373046875,0.680572509765625
1772701735432184300,8.539184326171876,-0.650848388671875,0.2628631591796875,0.682891845703125
1772701735442232000,8.549232177734375,-0.6425323486328125,0.2700653076171875,0.685211181640625
1772701735452281300,8.55928125,-0.6384429931640625,0.2718658447265625,0.687347412109375
1772701735462329000,8.5693291015625,-0.635772705078125,0.2747344970703125,0.6923828125
1772701735472377300,8.57937744140625,-0.6342926025390625,0.278472900390625,0.700469970703125
1772701735482426000,8.589426025390624,-0.628631591796875,0.2746734619140625,0.704803466796875
1772701735492474400,8.599474365234375,-0.6287384033203125,0.2687530517578125,0.709014892578125
1772701735502522000,8.609522216796876,-0.634307861328125,0.2637481689453125,0.70806884765625
1772701735512571100,8.619571044921875,-0.6434783935546875,0.2645263671875,0.7061004638671875
1772701735522619100,8.629619140625,-0.65203857421875,0.269012451171875,0.707000732421875
1772701735532667100,8.639667236328124,-0.6678619384765625,0.269927978515625,0.7132720947265625
1772701735542716200,8.649716064453125,-0.6741943359375,0.273956298828125,0.7224273681640625
1772701735552764200,8.65976416015625,-0.6708831787109375,0.282135009765625,0.733551025390625
1772701735562812200,8.669812255859375,-0.658233642578125,0.283111572265625,0.739776611328125
1772701735572861200,8.679861083984376,-0.6580810546875,0.283843994140625,0.7384033203125
1772701735582909200,8.6899091796875,-0.6756134033203125,0.2884063720703125,0.730224609375
1772701735592957200,8.699957275390625,-0.627532958984375,0.2676544189453125,0.70703125
1772701735603005200,8.710005126953124,-0.5716400146484375,0.275543212890625,0.6952667236328125
1772701735613054200,8.72005419921875,-0.707061767578125,0.27197265625,0.6988677978515625
1772701735623102200,8.730102294921876,-0.725372314453125,0.2501983642578125,0.699951171875
1772701735633150200,8.740150146484375,-0.7205047607421875,0.2401580810546875,0.7019500732421875
1772701735643199200,8.75019921875,-0.71435546875,0.2382354736328125,0.7037353515625
1772701735653247200,8.760247314453125,-0.733795166015625,0.2349700927734375,0.6929779052734375
1772701735663295200,8.770295166015625,-0.7318267822265625,0.2354888916015625,0.690887451171875
1772701735673344300,8.78034423828125,-0.70281982421875,0.239990234375,0.6960601806640625
1772701735683392300,8.790392333984375,-0.6542816162109375,0.243408203125,0.7063140869140625
