time,seconds_elapsed,z,y,x
1772701726969007600,0.076007568359375,0.00566635519862175,-0.09205196849256754,-0.1167863045156002
1772701726979056400,0.086056396484375,0.010098200166225433,-0.09932020592987537,0.022822072660923003
1772701726989104400,0.0961044921875,0.02761807476580143,-0.09781798467338085,0.07555062328577042
1772701726999152400,0.10615234375,0.08881167139708995,-0.17511574388742446,0.07074234622120856
1772701727009200400,0.116200439453125,0.1038064114332199,-0.21357933005541563,0.04690378999412059
1772701727019249400,0.12624951171875,0.08534604111313819,-0.13883359341174364,-0.008225976553559302
1772701727029297400,0.13629736328125,-0.006979775884747505,-0.07467471723407507,-0.037034137886762616
1772701727039345400,0.146345458984375,-0.03263210353553295,-0.07588292398005723,0.02888414917886257
1772701727049394400,0.15639453125,0.007974047619104386,-0.03401654363125563,-0.01778407849371433
1772701727059442400,0.1664423828125,-0.02030512140393257,-0.1339046125769615,-0.12438976525664329
1772701727069490400,0.176490478515625,-0.16005787548720835,-0.25526567766219377,-0.19658289480805397
1772701727079538400,0.186538330078125,-0.28538813646435734,-0.2296583581969142,-0.12980243795514107
1772701727089587500,0.19658740234375,-0.23889994153380392,-0.24879677390903232,-0.03691255733370781
1772701727099635500,0.206635498046875,-0.06111760878562927,-0.2718278131455183,0.006029927814006805
1772701727109683500,0.216683349609375,0.11109306131005287,-0.19769553222507238,0.01750526155233383
1772701727119732500,0.226732421875,0.2218827557593584,-0.16960808638185262,-0.1649544153571129
1772701727129780500,0.236780517578125,0.2751385451287031,-0.07424509364515543,-0.4801560908049345
1772701727139828500,0.246828369140625,0.29497487997710703,-0.11577858877778052,-0.5261521183043718
1772701727149876500,0.25687646484375,0.05619359638690948,-0.3338984848722815,-0.11724749228656291
1772701727159925500,0.266925537109375,-0.4013227925866842,-0.4871072251170873,0.42954877011775966
1772701727169973200,0.27697314453125,-0.7684019547879696,-0.33060032010972495,0.78861764434278
1772701727180021500,0.287021484375,-0.8452607380628585,-0.050610243296623225,0.8267278870284557
1772701727190070300,0.2970703125,-0.6449637911677361,0.0778039551705122,0.5439145694881677
1772701727200119300,0.307119384765625,-0.21240414879620073,0.03161357414275408,0.11729250047206878
1772701727210167300,0.317167236328125,0.20297873332500457,-0.07622194667607546,-0.15181903945207595
1772701727220215000,0.327215087890625,0.47404842157959937,-0.21317425638586282,-0.27188626533448695
1772701727230264000,0.33726416015625,0.7147732404530048,-0.11355711333602667,-0.26241408811211586
1772701727240312000,0.34731201171875,0.7137924127221107,0.0329436537027359,-0.04150280773341655
1772701727250360300,0.3573603515625,0.34493221232295035,-0.23540654646009204,0.607851911869645
1772701727260409000,0.3674091796875,-0.5473123952329159,0.2046963508978486,0.005174772289395332
1772701727270457300,0.377457275390625,-0.9400269339501858,0.1833797143638134,-0.26508126149475575
1772701727280505000,0.387505126953125,-0.8155629344135522,0.08561024500727653,-0.317453838288784
1772701727290553000,0.397552978515625,-0.5205056368499994,0.1857771308943629,-0.4032219042062759
1772701727300602000,0.40760205078125,-0.1610755280971527,0.22193974664360283,-0.4097206185758114
1772701727310650000,0.417650146484375,0.1418354055762291,0.0015399229183793066,-0.26687983534932136
1772701727320698400,0.427698486328125,0.4259685735434294,-0.056227498656511304,-0.14901684151291847
1772701727330746000,0.43774609375,0.36542788786292074,-0.03083528324663639,0.06753682817816734
1772701727340795100,0.447795166015625,0.28501754958629605,0.1251896834626794,-0.06075578973591327
1772701727350843100,0.457843017578125,0.12877835560441017,0.1679629495233297,-0.09342062649726868
1772701727360891100,0.46789111328125,0.0046294133663177485,0.07384908006489277,-0.23711598072648046
1772701727370940200,0.477940185546875,0.0051630818516016,0.031894144649803634,-0.30782208659052845
1772701727380988200,0.48798828125,0.043158173725008964,0.0012882862448692321,-0.29750936689078805
1772701727391036200,0.4980361328125,0.18355623997449874,0.011173428182303905,-0.2359469369471073
1772701727401084200,0.508084228515625,0.44472412741780276,0.12206687526702881,-0.32495559222102166
1772701727411133000,0.5181328125,0.7625725179821252,0.19295739778727292,-0.3059340808868408
1772701727421181200,0.52818115234375,0.954209773081541,-0.005146422977745532,-0.34700141981244087
1772701727431229200,0.538229248046875,1.0128291353106498,-0.1859086483195424,-0.5025356803953648
1772701727441278200,0.5482783203125,1.2074357616096734,-0.3725795131832361,-0.515142648512125
1772701727451326200,0.558326171875,1.47369074305892,-0.6198372409567237,-0.6529103662580251
1772701727461374000,0.5683740234375,1.7923159632146357,-0.40429420961290596,-0.9579290858656168
1772701727471423200,0.57842333984375,2.001249805551767,-0.36013708797842264,-1.1626853502571581
1772701727481471000,0.588470947265625,2.192319489896297,-0.5566361038953066,-1.3140379412412642
1772701727491519200,0.598519287109375,2.3668033656209704,-0.4401289085820317,-1.8872680370628834
1772701727501567200,0.608567138671875,2.6179636537909508,-0.4506184461534023,-2.401414660274982
1772701727511616300,0.6186162109375,2.715497560825944,-0.5911375084340572,-2.7262901729971167
1772701727521664300,0.628664306640625,2.6483856800615784,-0.8022589239433408,-2.9740491282910106
1772701727531712000,0.6387119140625,2.4682243432223796,-1.0379621152624487,-3.344833574751019
1772701727541761300,0.64876123046875,2.167071651393175,-1.1945967383027076,-3.527469192749262
1772701727551809000,0.65880908203125,2.098735781791806,-1.0740446515128015,-3.6557729165792465
1772701727561857300,0.668857177734375,2.056040549403429,-1.0286167792901395,-3.249541309162974
1772701727571905000,0.678905029296875,1.8363117568075655,-0.768043058347702,-2.3404607176184653
1772701727581954300,0.688954345703125,1.6078578059643507,-0.09027209933847188,-1.4774696770757436
1772701727592002000,0.699001953125,1.3632365641742943,0.3053311465576291,-0.3010655980676412
1772701727602050000,0.709050048828125,0.5809516299843788,-0.06317395679354668,0.5124129312872886
1772701727612099000,0.71909912109375,-0.8258604565441608,-0.4000780532225966,1.0410820008486508
1772701727622147000,0.72914697265625,-2.6131653135985133,-0.5438274757266044,1.8655881201744078
1772701727632195300,0.7391953125,-4.304839466890693,-0.2022425280049443,3.2131472227454183
1772701727642243000,0.7492431640625,-5.637549959897995,1.306255909062922,4.471691240301728
1772701727652292400,0.759292236328125,-6.859219414043426,3.644814592452347,5.546280958476662
1772701727662340000,0.769340087890625,-8.191010454118251,5.346614126178622,7.0468053479254245
1772701727672388000,0.77938818359375,-10.110359390574693,6.291535846433043,8.304475505256653
1772701727682437000,0.78943701171875,-13.419605519115924,6.540832094296813,8.276881395888328
1772701727692485000,0.799485107421875,-18.710477884328363,6.974048154750466,7.573619729530811
1772701727702533000,0.809533203125,-21.54012497142553,6.983956385302543,6.878775178384781
1772701727712582100,0.81958203125,-18.30016456055641,5.308188241672515,5.913258998391032
1772701727722630100,0.829630126953125,-14.010755887031554,5.116508900997042,5.899220536166429
1772701727732678100,0.83967822265625,-10.16260161898732,6.1915960473001,7.613928359043598
1772701727742726100,0.84972607421875,-6.389670641970634,6.962732395488024,10.210034401291608
1772701727752775200,0.859775146484375,-2.9601316620975733,6.974038217878341,11.288047079652547
1772701727762823200,0.8698232421875,0.6847825913369655,5.936604218143224,9.249843215712904
1772701727772871200,0.87987109375,3.560979248163104,3.141095547491312,5.7473716860979795
1772701727782919200,0.889919189453125,4.843351885074377,0.7964803405418992,1.795077244621515
1772701727792968200,0.89996826171875,5.020237561243772,-1.1083291984304786,-1.9591420176625252
1772701727803016200,0.91001611328125,5.418492198431491,-2.204728012831509,-4.92995757085979
1772701727813064200,0.920064208984375,6.394044034749269,-2.794513522134721,-6.465052922952175
1772701727823113200,0.93011328125,7.570445775669813,-3.0585078651756046,-6.828976835992932
1772701727833161200,0.9401611328125,7.910203215703368,-3.201094673641026,-6.931499052834511
1772701727843209200,0.950209228515625,8.30927442997098,-3.4912808580368755,-7.327308050435781
1772701727853257200,0.96025732421875,9.021279959276319,-3.2251319673106074,-8.298335102805495
1772701727863306000,0.970305908203125,9.297050372567773,-2.7279654127329587,-9.196795516136287
1772701727873354200,0.980354248046875,9.278578896331787,-2.5842931471183896,-10.389348181390762
1772701727883402000,0.990402099609375,8.9408181830734,-2.9195091443300245,-11.402222909408808
1772701727893451300,1.000451171875,8.58846195822954,-2.9593215147584675,-11.892401797056197
1772701727903499000,1.0104990234375,8.31803758214116,-2.81053585165292,-11.69336391031146
1772701727913547000,1.020547119140625,8.00186501583457,-2.8983731250599023,-10.605708958858251
1772701727923596000,1.030595947265625,7.707937599083781,-2.9544124076679346,-9.363285470497608
1772701727933644000,1.04064404296875,7.530999900466203,-2.8228441290840505,-8.44359054595828
1772701727943692300,1.0506923828125,7.319910341399908,-2.733923444354534,-7.787282353955507
1772701727953740000,1.060739990234375,6.710517629829049,-2.7639848206192252,-7.2948723462551825
1772701727963789300,1.070789306640625,5.9134723488807674,-2.728214419057965,-6.939274363011122
1772701727973837000,1.080837158203125,5.079781052580476,-2.6145006538555022,-6.644770607677102
1772701727983885000,1.090885009765625,4.437462222963571,-2.5780153820231555,-6.265732712134718
1772701727993934000,1.10093408203125,4.197663871285319,-2.78200124656409,-5.744280734345317
1772701728003982000,1.110982177734375,4.2985108483910555,-2.891988684719801,-5.199228100737929
1772701728014030300,1.1210302734375,4.330129390969872,-2.397813713173568,-4.665933124941587
1772701728024078000,1.131078125,4.152492604172229,-1.8479162698835134,-4.058613712513447
1772701728034127400,1.14112744140625,3.8231215335965154,-1.6069602726027368,-3.3409634553194043
1772701728044175000,1.151175048828125,3.2652140945911405,-1.3620876864001155,-2.608246561896801
1772701728054223000,1.16122314453125,2.7620564829051495,-0.855211638712883,-1.9289321728378532
1772701728064272100,1.171272216796875,2.105819018051028,-0.49977732159793375,-1.1528227124124766
1772701728074320100,1.181320068359375,1.0566577556431294,-0.1483987096145749,-0.4828478141069412
1772701728084368100,1.1913681640625,0.5286754993021487,0.03121171534359455,0.30764030028283595
1772701728094416100,1.201416015625,0.5524187784612179,-0.8704609380319714,1.9967840583145617
1772701728104465200,1.211465087890625,-1.2052736151397228,-0.2503632925733924,5.229856463235617
1772701728114513200,1.22151318359375,-6.002222060957551,3.174059074938297,12.638003891015051
1772701728124561200,1.23156103515625,-10.437791017520427,8.889508267074822,24.84044311262369
1772701728134610200,1.241610107421875,-11.100073023235797,16.40826827917099,30.87191406441927
1772701728144658200,1.251658203125,-10.472803878712654,21.86803941345215,26.562799988949298
1772701728154706200,1.2617060546875,-12.766611566227674,18.69221391336322,23.755596204328537
1772701728164754200,1.271754150390625,-13.88579095223546,11.156094770187138,16.180704555165768
1772701728174803200,1.28180322265625,-11.36268000357151,5.483232089367508,6.908204101964831
1772701728184851200,1.291851318359375,-9.536551202604175,2.5824595019504426,1.0447826089322567
1772701728194899200,1.301899169921875,-8.015033709487318,1.1831290033489466,-1.9943641376912593
1772701728204948500,1.311948486328125,-6.013255496147274,-0.6609536797210573,-2.8347148918807505
1772701728214996200,1.321996337890625,-3.808278184729814,-2.494337274122238,-3.284476428943872
1772701728225044500,1.33204443359375,-1.6644979770749806,-3.1905361624866724,-3.7402234701573844
1772701728235093200,1.34209326171875,-0.2667898189783096,-3.0312673915505406,-4.03495811163783
1772701728245141500,1.3521416015625,0.42772973799705505,-2.47254132963866,-3.3506764555603263
1772701728255189500,1.362189453125,1.0956599787324666,-1.9578741896837948,-2.282365087002516
1772701728265237200,1.3722373046875,2.0804525216042995,-1.3095219251215457,-1.4662836816728113
1772701728275286500,1.38228662109375,3.361718074056506,-0.7228215223520994,-1.1994845103442668
1772701728285334300,1.392334228515625,4.47946421239078,-0.46929567409455775,-1.559478682720661
1772701728295382500,1.402382568359375,5.156454542416334,-0.47136342027932404,-2.316413487076759
1772701728305431300,1.412431396484375,5.141519423612952,-0.9467755314275622,-3.026298370966315
1772701728315479600,1.4224794921875,4.7632618647933,-1.6161702917575835,-3.9898102254003285
1772701728325527600,1.432527587890625,4.348621325471997,-1.9130121346503495,-4.89278665485084
1772701728335575300,1.4425751953125,3.5656969243347643,-1.8693723148882389,-4.908358902513981
1772701728345624300,1.452624267578125,3.3826164851784704,-2.0092291138678786,-5.126533451405168
1772701728355672300,1.46267236328125,3.350593453451991,-2.315520337629318,-5.365384877622128
1772701728365720600,1.472720458984375,3.075557199653983,-2.4562992198899387,-5.0008811188668005
1772701728375769300,1.482769287109375,2.7855250367760656,-2.5323282743424174,-4.333552351155877
1772701728385817600,1.492817626953125,2.7117665576040744,-2.679690626646578,-3.7801311176538466
1772701728395865300,1.502865234375,2.969544802609086,-2.6717306075528264,-3.4169583152413368
1772701728405913300,1.512913330078125,3.2774820400118827,-2.482349022425711,-3.3207162015825507
1772701728415962400,1.52296240234375,3.4609880111038684,-2.3815835861235857,-3.222307265278697
1772701728426010400,1.53301025390625,3.5298417670994997,-2.264199315714836,-3.318916458684206
1772701728436058600,1.54305859375,3.557256135986745,-2.1777876911967993,-3.3451334344804287
1772701728446107400,1.553107421875,3.48071679392457,-2.2583248707234858,-3.15751126024127
1772701728456155600,1.56315576171875,3.207514185294509,-2.3872125319212674,-2.894332032975554
1772701728466203400,1.573203369140625,2.675449628075957,-2.2454288565322758,-2.3698598305821417
1772701728476251400,1.58325146484375,1.6911954298645258,-1.9730238280206918,-1.987846134099364
1772701728486300400,1.593300537109375,0.8273065636992454,-1.6380641436576842,-1.619979620912671
1772701728496348400,1.603348388671875,0.6920192645922303,-1.30448773034662,-0.9351654653936624
1772701728506396400,1.613396484375,0.697620445600152,-0.7836740504607558,-0.3667407240271568
1772701728516445400,1.623445556640625,0.34900428406745193,0.015611995151638984,0.5606675513684749
1772701728526493400,1.633493408203125,-0.762858349186182,1.1778320659846067,2.148992973867059
1772701728536541400,1.64354150390625,-2.7421955981373785,2.2504326561689374,3.7513738097250457
1772701728546589400,1.65358935546875,-4.521030148488283,3.3998265631765126,4.8446051000058645
1772701728556638500,1.663638427734375,-6.076000998395681,4.868594462880492,5.470246935588121
1772701728566686500,1.6736865234375,-7.570866046908497,6.2702621722579,6.129817928779125
1772701728576734500,1.683734375,-9.490654543825983,7.56804455974698,7.222797874647378
1772701728586783500,1.693783447265625,-11.873963638567924,8.901493303900956,8.680676716068387
1772701728596831500,1.70383154296875,-14.078385069668292,10.540941595393418,10.15143140567541
1772701728606879500,1.71387939453125,-15.823264743447304,11.8793038305521,10.992871708667277
1772701728616927500,1.723927490234375,-16.403606132578847,12.835497470927237,11.596053875160216
1772701728626976500,1.7339765625,-16.362380972743033,12.984641738212108,11.780110465872287
1772701728637024500,1.7440244140625,-16.04600616186261,12.177199566411971,11.962939560616016
1772701728647072500,1.754072509765625,-15.114560009253024,10.531796165907382,11.90597439533472
1772701728657121500,1.76412158203125,-12.308065834206342,7.889252782133221,9.862156198644637
1772701728667169300,1.774169189453125,-7.73859927932918,4.581065807256103,6.703634300056099
1772701728677217500,1.784217529296875,-3.831851952540874,2.0670649245038626,4.4092350763887165
1772701728687266300,1.794266357421875,-0.3183259449481964,0.7970446964263915,3.1210517073720694
1772701728697314600,1.804314453125,2.2323960642188787,0.03810322842299938,2.1444576685249803
1772701728707362300,1.8143623046875,3.863794320246577,-0.5800134723514319,0.9765624746650456
1772701728717410600,1.82441064453125,5.0671068644464015,-1.624899541658163,-0.2549865684598684
1772701728727459300,1.834459228515625,5.9958361593127245,-2.717278306762874,-1.8775187964648008
1772701728737507300,1.84450732421875,6.699932522928714,-3.3801132701858876,-4.043254815340042
1772701728747555600,1.8545556640625,7.446695477360486,-3.226598824992776,-5.870933183836937
1772701728757604400,1.864604248046875,7.977580469405651,-3.0750270383000373,-7.28027449658215
1772701728767652600,1.874652587890625,8.537799107962845,-2.9701658571168776,-8.60461580517292
1772701728777700400,1.884700439453125,9.541437805601953,-2.604308930186927,-9.543826162043214
1772701728787748400,1.894748291015625,10.55115903802514,-2.23045369797945,-10.297211164963246
1772701728797797400,1.90479736328125,10.751840600323677,-2.142489583322406,-11.111524976098536
1772701728807845400,1.914845458984375,11.308398962807654,-2.218698962777853,-12.182436882543563
1772701728817893600,1.9248935546875,11.666503960436582,-2.1566357437051833,-13.57375329377651
1772701728827942400,1.9349423828125,11.415748745936154,-2.0349983458966014,-14.238508996129035
1772701728837990400,1.944990478515625,10.048612836235762,-1.9925804691448807,-14.337192657721042
1772701728848038400,1.955038330078125,8.322610881406069,-2.131861806324124,-14.642836815750599
1772701728858086400,1.96508642578125,6.580321224120259,-2.064926597300917,-15.312827496147154
1772701728868135400,1.975135498046875,4.629845327994227,-1.509178382156044,-15.700515146613121
1772701728878183400,1.985183349609375,2.7517490239024163,-1.1205065429583192,-14.935419247633218
1772701728888231400,1.9952314453125,1.2110353935368359,-1.7325763647839425,-13.145398117357491
1772701728898280400,2.005280517578125,0.6603925387069582,-2.146016150013357,-11.370882014727592
1772701728908328400,2.015328369140625,0.7765487286254763,-1.6680870876081286,-9.877469503110646
1772701728918376400,2.02537646484375,1.1842504085943102,-1.6045592028103768,-8.660681391265987
1772701728928424400,2.035424560546875,1.8487568123608826,-2.2125874941602346,-7.572163685503601
1772701728938473500,2.045473388671875,2.5821634416133166,-3.1117718378514048,-6.616634061995148
1772701728948521500,2.055521484375,3.1018004789352416,-3.1961031489640472,-6.065972940856218
1772701728958569500,2.065569580078125,3.0097470491379497,-2.3870285536564886,-5.490152828541397
1772701728968618500,2.075618408203125,2.7000059771835803,-1.3600254931733011,-4.5669881820648905
1772701728978666500,2.08566650390625,2.4145623111397025,-0.6300589213721454,-3.2524463829547163
1772701728988714500,2.095714599609375,1.9661831683456896,-0.3361895184189081,-1.5076269149303436
1772701728998762500,2.105762451171875,1.3235206398576498,-0.3221370276689529,0.42169454948604107
1772701729008811500,2.1158115234375,0.009566869768500328,-0.6538704434618353,1.9896675043076275
1772701729018859300,2.125859375,-1.1889981876432896,-2.10774589446038,2.8920974057912825
1772701729028907500,2.135907470703125,-1.6556056455671786,-3.0307459980249405,2.925111202120781
1772701729038956300,2.145956298828125,-2.3742636184990404,-1.6697738716512918,3.0653116999715566
1772701729049004500,2.156004638671875,-4.256464435300231,2.6356051089435812,5.270891653457284
1772701729059052500,2.166052490234375,-6.631995881778002,8.116699017238616,10.285754535925388
1772701729069101300,2.176101318359375,-7.728336243990063,13.452502411067485,15.66631126371622
1772701729079149600,2.186149658203125,-8.576419638258217,16.80366226623058,19.373261409825087
1772701729089197300,2.196197265625,-10.694753854489326,18.656947369670867,19.187043257164955
1772701729099245600,2.20624560546875,-11.178373237490653,17.030536254405973,12.933802362334728
1772701729109294300,2.21629443359375,-12.718671418923138,12.37827042028904,11.510832921731472
1772701729119342600,2.226342529296875,-13.607142353159189,9.205565098047256,10.680220302224159
1772701729129390600,2.236390625,-12.78084935041666,8.108900326186419,5.2299283594280475
1772701729139439400,2.246439453125,-8.979907499924302,5.936732812958955,1.3076736669063567
1772701729149487600,2.256487548828125,-5.767354151418805,2.8978730665832755,-0.9950456413388251
1772701729159535400,2.266535400390625,-4.246624009287357,0.7385171041339635,-1.9367554138094185
1772701729169583600,2.27658349609375,-3.0340368562638758,-0.5870785884320736,-3.5292397095531225
1772701729179632400,2.28663232421875,-2.1825579743385313,-1.4871359155654906,-5.1573576287359
1772701729189680400,2.296680419921875,-1.2381091322928666,-1.5514596269160508,-5.905436926463246
1772701729199728000,2.30672802734375,1.1059387961626053,-1.6207374535426498,-5.513576958748698
1772701729209777000,2.31677685546875,3.4284745655119417,-1.6915592947408555,-5.020090261727571
1772701729219825200,2.3268251953125,4.270840751177072,-1.8064315823286772,-5.316141831025481
1772701729229873000,2.336872802734375,3.9855671810030935,-2.006725606614351,-5.31821279208064
1772701729239921000,2.3469208984375,3.4429788916826247,-2.0174597665965557,-4.651831534352898
1772701729249970000,2.356969970703125,3.2769717524021864,-1.869988985481858,-4.159446076571941
1772701729260018000,2.367017822265625,2.9678444284319876,-1.9855086310625074,-3.1384342193275687
1772701729270066000,2.37706591796875,2.6543051332384344,-2.052818080225587,-2.1952023518562314
1772701729280115000,2.387114990234375,2.6510604522287844,-1.6215969929814338,-1.7060709274351595
1772701729290163000,2.397162841796875,2.5776702218472956,-1.24621586638093,-1.489343654742837
1772701729300211000,2.4072109375,2.1146277629286048,-1.159645836430788,-1.2488777790665626
1772701729310259000,2.417259033203125,1.1886100651085376,-1.1909423074483871,-0.773149441576004
1772701729320308000,2.427307861328125,0.40397359935641286,-0.9814268658310175,-0.8631967922478914
1772701729330356000,2.43735595703125,0.4247761488884687,-1.210047405412793,-0.9636702598661184
1772701729340404000,2.447404052734375,0.049258244165778155,-1.170451892605424,-0.49582478457987306
1772701729350453000,2.457452880859375,-0.633059418362379,-1.2513467995285987,-0.08219079195261002
1772701729360501000,2.4675009765625,-1.1575684456348418,-1.3152566693812608,0.4575760102063417
1772701729370549000,2.477549072265625,-1.371881642922759,-1.3788719402015208,0.8907698588281869
1772701729380598000,2.487597900390625,-0.9498574230909347,-1.543697176221013,0.8686217399060726
1772701729390646000,2.49764599609375,0.03910100728869438,-1.9246496732130645,0.29038930575251576
1772701729400694000,2.507694091796875,0.808687203425169,-2.5748268151149154,0.1887994013249874
1772701729410742000,2.517741943359375,1.205146189367771,-3.293389803239703,-0.22199147683084008
1772701729420790800,2.527790771484375,1.4393722938716411,-3.6116450210392474,-1.203191548168659
1772701729430839000,2.537839111328125,1.5344067853063343,-3.4502263785928484,-2.5011118828237056
1772701729440887000,2.547886962890625,1.883788378253579,-3.4344735136657953,-3.2784692974835634
1772701729450935800,2.557935791015625,2.176232570709288,-3.4285344790056347,-2.599057293269038
1772701729460984000,2.567984130859375,2.397547463452816,-2.808098395372927,-2.0404349839925766
1772701729471031800,2.57803173828125,2.0959505349874497,-2.126127062064409,-1.2232020705401896
1772701729481080000,2.588080078125,0.8829062858462333,-1.3375176010280847,-0.7140244679123163
1772701729491128800,2.59812890625,-0.6666308485746383,-1.128432952043414,-0.5937175880551337
1772701729501176800,2.6081767578125,-1.8606950874358414,-1.2240195244029164,-1.0195049598127603
1772701729511225000,2.61822509765625,-2.800569461172819,-1.0638768932417035,-1.4589613759607076
1772701729521273900,2.62827392578125,-3.124875649574399,-0.40487697793692345,-1.582713427835703
1772701729531322000,2.638322021484375,-2.7188778509140015,0.28617198031842705,-1.2066729605436324
1772701729541369900,2.648369873046875,-2.4070050276279447,1.2230384044110774,-0.2605605691999197
1772701729551418000,2.658418212890625,-2.2283681238770483,2.8060797490268943,0.8069821530729532
1772701729561467000,2.668466796875,-2.54136848988831,4.501521730419993,1.7122534154623745
1772701729571515000,2.678514892578125,-3.5530069541096685,5.718243206769228,2.8942905319213867
1772701729581563000,2.68856298828125,-4.461876533252001,5.989475976631045,3.8560727860838173
1772701729591612000,2.69861181640625,-5.2323617240548135,6.399407607609033,4.351414171060919
1772701729601660000,2.708659912109375,-5.814930141586065,7.680436428695916,5.227543510118126
1772701729611708000,2.7187080078125,-8.581873227488995,9.16693346183598,8.75081349761188
1772701729621756000,2.728755859375,-15.925125866031646,11.969196282923221,15.137325967812536
1772701729631805000,2.738804931640625,-22.967950619888303,17.108085942554474,19.4167650359869
1772701729641853000,2.74885302734375,-25.91345695978403,17.723517349767683,19.925577312433717
1772701729651901000,2.75890087890625,-24.007913261318205,13.750522065567969,16.91148083591461
1772701729661950000,2.768949951171875,-18.61736588538885,9.02093859849274,10.753880581718683
1772701729671998000,2.778998046875,-13.652133003008364,5.304405216002464,5.020190214970707
1772701729682046000,2.7890458984375,-9.111807786941528,2.1952005982905627,1.1325947478979825
1772701729692094000,2.799093994140625,-4.785076221716404,-1.8416884814098475,0.018312486281991003
1772701729702143000,2.80914306640625,-1.0207108284711837,-3.7412826238214967,-1.6764643092006444
1772701729712191000,2.81919091796875,3.060014178085327,-2.9530937262848016,-3.603922902354598
1772701729722239000,2.829239013671875,6.8880129623293875,-2.0831471675157545,-4.783598550379276
1772701729732288000,2.8392880859375,10.257292996072769,-1.6429998464941977,-5.297184617099165
1772701729742336000,2.8493359375,12.889303879916667,-1.7699948258131741,-6.042177054727077
1772701729752384000,2.859384033203125,14.209755195331573,-2.2972934838041663,-7.186208557918667
1772701729762433000,2.86943310546875,14.166246892994641,-2.5833994131490585,-8.567489897349477
1772701729772481000,2.87948095703125,13.485934725069999,-3.4674598374664782,-10.375111566245556
1772701729782528800,2.88952880859375,12.476194203424454,-3.8011400034129617,-11.42707678015828
1772701729792577000,2.899576904296875,11.500582745873928,-3.6005367670476436,-12.217660171616076
1772701729802625800,2.909625732421875,10.844638126486538,-3.312413068139553,-12.787851922655104
1772701729812674000,2.919674072265625,10.593985787838697,-2.7121967657148836,-13.398176946640014
1772701729822722000,2.92972216796875,10.296617290723324,-2.0233532085493207,-14.312632216960191
1772701729832771000,2.93977099609375,9.385011564615368,-1.301938338124752,-14.458714758586883
1772701729842819000,2.949819091796875,8.5502476706475,-1.464389538489282,-13.516526262688636
1772701729852866800,2.95986669921875,7.754093201059103,-2.2898870069399475,-11.906016480910777
1772701729862915000,2.9699150390625,6.910598888146877,-2.093138254045695,-10.96580600708723
1772701729872963800,2.9799638671875,6.094849491250515,-1.5600098669879137,-10.529254664731026
1772701729883012000,2.99001220703125,5.514988579112291,-1.480421951010078,-10.04531496373415
1772701729893060000,3.00006005859375,5.115018954700231,-1.7398166913010178,-9.40033714404106
1772701729903108900,3.01010888671875,4.48462963232994,-1.6372696322791278,-8.837184205597639
1772701729913156900,3.020156982421875,3.571604102551937,-1.0002379492849112,-8.32749339275062
1772701729923204900,3.030204833984375,2.513106272000074,-0.19948080820664763,-7.9747016990989446
1772701729933253000,3.040253173828125,1.6472557503730059,0.7735648905090987,-7.552907196369767
1772701729943302000,3.050302001953125,0.3408265305697918,1.6862112117111683,-7.322669869241118
1772701729953350100,3.06035009765625,-0.7569605233192443,0.8773815310753882,-8.658818520003557
1772701729963398000,3.07039794921875,0.23393501260280608,-0.35657150445133445,-9.209075151994824
1772701729973447000,3.080447021484375,1.967521723473072,-0.16461626944392918,-8.30593564093709
1772701729983495000,3.090494873046875,3.424168392750621,0.07494505860805512,-6.503064965960383
1772701729993543000,3.10054296875,4.830568391346931,-0.1902089758619666,-4.528889629817009
1772701730003592000,3.110592041015625,5.64423689031601,-0.6649880498036742,-3.3157799142241475
1772701730013640000,3.120639892578125,6.316573841577768,-0.44269583646059035,-2.489908351764083
1772701730023688000,3.13068798828125,6.594966420066356,0.5680608764901757,-0.900210471868515
1772701730033736000,3.14073583984375,6.768744193348288,2.1612688103333113,1.2251648950457572
1772701730043785000,3.150784912109375,6.853603912249207,4.197227817955613,2.518123807901144
1772701730053833000,3.1608330078125,4.312870213133096,7.038530271533131,5.491119627746939
1772701730063881000,3.170880859375,-3.1430922742664813,12.908518283474445,9.626231473529339
1772701730073930000,3.180929931640625,-26.295395252943038,21.08103914117813,15.477638119119405
1772701730083978000,3.19097802734375,-36.892770098698136,28.183010496008393,17.587900088053942
1772701730094025700,3.201025634765625,-37.731156859338284,33.89936569707393,18.67868690779209
1772701730104074000,3.211073974609375,-34.09486722638607,31.329947755265234,8.328746607682108
1772701730114122800,3.221122802734375,-22.47225735273361,16.39144457014203,3.0288521471023557
1772701730124171000,3.2311708984375,-9.549054710346459,11.077412278616428,-2.1179759043127295
1772701730134219000,3.241218994140625,-5.636549842944741,3.4707191315233707,-10.344300248396396
1772701730144268000,3.25126806640625,-2.5415356631487604,-2.624984346207976,-11.294597231948375
1772701730154316000,3.26131591796875,1.6201654988735914,-6.584863543725013,-9.721077164393662
1772701730164363800,3.27136376953125,2.9920465572744606,-8.212764020764828,-7.484477803266048
1772701730174412000,3.281412109375,3.197696555635333,-7.005314815151691,-3.881906023259461
1772701730184460800,3.291460693359375,4.56941511695087,-5.790425814926624,-3.370876363024115
1772701730194509000,3.301509033203125,6.021347032666206,-5.189226931205392,-3.7664284632548686
1772701730204557000,3.31155712890625,6.718476479879021,-4.761075168403983,-3.472839192417264
1772701730214606000,3.321606201171875,7.2749267058134075,-4.582195688068866,-3.2946383419960736
1772701730224654000,3.331654052734375,7.55146518086791,-4.511009105211496,-3.0065228263944386
1772701730234701800,3.341701904296875,7.286309100571274,-4.3102772740304465,-1.6507848012819886
1772701730244750000,3.35175,6.191147134488821,-4.141279136240482,0.3590463701322675
1772701730254798800,3.361798828125,5.817823524940014,-3.937245925426483,1.1242074433028697
1772701730264847000,3.37184716796875,5.972130289554595,-3.724310446232557,0.3801303669542074
1772701730274894800,3.381894775390625,5.659756531009077,-3.4841415076762434,-0.4734557163834572
1772701730284944100,3.391944091796875,5.203862774801254,-3.0144495277404784,-0.9573723287656902
1772701730294992000,3.401991943359375,4.502691943243145,-2.3336919541358947,-1.0772577683404088
1772701730305040000,3.412039794921875,3.711576636865735,-1.7288351324290037,-1.0080258266821502
1772701730315089000,3.4220888671875,2.718155381858349,-0.8892220448642969,-1.2053279756754636
1772701730325137000,3.432136962890625,1.7630419379353521,0.17945728022307156,-1.4568255329757929
1772701730335185200,3.44218505859375,1.5304419733285903,1.1756287107214332,-1.41521312738806
1772701730345233000,3.45223291015625,1.584529537346959,1.8952701417326927,-0.8314709899023175
1772701730355282200,3.4622822265625,1.3968395585685967,2.586573659271002,0.3339522608861327
1772701730365330000,3.472329833984375,1.0666296990811823,3.340762379789352,1.0501724852770566
1772701730375378000,3.4823779296875,0.3055763534903526,3.516962411782145,1.0061375287175178
1772701730385427000,3.492427001953125,-0.5125380189716816,3.3510815292298792,1.062141155490279
1772701730395475000,3.502474853515625,-0.2844961560606956,2.0374995150625703,0.5566007403209805
1772701730405523000,3.51252294921875,-0.4483312119990587,0.0021826047360897064,0.24248686010986564
1772701730415571000,3.522571044921875,-2.312452766752243,-1.6336586021751165,0.5219526207879185
1772701730425620000,3.532619873046875,-4.517239524033665,-1.8695570238053798,1.155376780809462
1772701730435668000,3.54266796875,-2.3576386469125747,-1.7966151217132806,-0.0662093789666891
1772701730445716000,3.552716064453125,0.5960831481426954,-1.6452736366450786,-1.552546545369923
1772701730455765000,3.562764892578125,2.433046062335372,-1.22800362560302,-2.209503848931193
1772701730465813000,3.57281298828125,3.1686341272801157,-0.32535598971545693,-2.2316145584523674
1772701730475860700,3.58286083984375,2.8218109866440293,1.2507616931170225,-1.5639093586444854
1772701730485909000,3.592908935546875,1.3548779011517762,2.6570862883895634,-0.6812614314734935
1772701730495957800,3.602957763671875,-0.10481178908348082,2.704765738931298,-1.149725915440917
1772701730506006000,3.613006103515625,-0.6468465361744165,1.7509055099397897,-2.5683529429256913
1772701730516054000,3.623053955078125,-2.39021054469347,1.3138137770965694,-2.6956524581491945
1772701730526103000,3.63310302734375,-5.4551195090830324,1.740667609041929,-2.037748521387577
1772701730536151000,3.643151123046875,-7.868239220198989,2.060900264394283,-1.1161758202776313
1772701730546198800,3.65319873046875,-8.61488994642794,2.2081290534466502,-0.6752937552407383
1772701730556248000,3.663248046875,-10.11096144812107,2.5612138848260044,-1.157176231446862
1772701730566295800,3.6732958984375,-11.328988161849974,3.2512828921332955,-2.2110285742804408
1772701730576344000,3.683343994140625,-10.748920328962802,4.475166807457804,-2.1865894218117
1772701730586391800,3.693391845703125,-10.452441474163532,5.3804678804636,0.05163154916837811
1772701730596441000,3.703441162109375,-11.058836172962188,5.924946513575315,2.1902068816564975
1772701730606488800,3.71348876953125,-11.769413715291023,5.964485912281274,3.5186893817052245
1772701730616536800,3.723536865234375,-12.26748715558052,5.367912934795021,3.743796652469039
1772701730626585900,3.7335859375,-13.139184649670124,4.806799393224716,3.59665466491729
1772701730636633900,3.7436337890625,-14.716306541109084,4.263072163002192,2.4311731080703436
1772701730646682000,3.75368212890625,-16.07625984582901,4.192727583926916,1.4462626379072665
1772701730656729900,3.763729736328125,-14.543696058040856,4.872036127766966,3.780396490591764
1772701730666779100,3.773779052734375,-12.200730079603195,5.871462760668993,6.17941753372848
1772701730676827000,3.783826904296875,-9.717487615469098,6.239312907242774,6.426480323451757
1772701730686875000,3.793875,-6.105319447338581,4.810653146043419,5.720116014903783
1772701730696924000,3.803923828125,-1.768257042235136,2.558159465691447,4.578578374354541
1772701730706972000,3.813971923828125,1.2390829457610846,0.78254709225744,2.749128904531896
1772701730717020200,3.824020263671875,3.2572295255780217,-0.5360714547723532,1.2225959213405846
1772701730727068000,3.83406787109375,5.247509608826041,-1.6384207020103931,0.6103504506871104
1772701730737117000,3.844116943359375,6.688934743574261,-2.8466654419153925,-0.08639613468796015
1772701730747165000,3.8541650390625,7.690763761442899,-3.814813431717455,-0.6671876056745648
1772701730757213000,3.864212890625,8.566078861507773,-4.532363443407416,-1.0259630499109624
1772701730767262000,3.874261962890625,9.600342999035119,-4.582359938719868,-1.672363888144493
1772701730777310000,3.88431005859375,10.222454322403669,-4.687065052558482,-2.3030679755523797
1772701730787358000,3.89435791015625,10.350563984966277,-4.926731010028719,-2.9944644320711493
1772701730797407000,3.904406982421875,10.164887099575996,-5.031702373588085,-3.6848593103319405
1772701730807455000,3.914455078125,9.839971254843473,-5.371620557141304,-4.483607011283934
1772701730817503000,3.9245029296875,10.243888740098475,-6.149433314353227,-5.54419596889615
1772701730827551000,3.934551025390625,11.051361307036876,-6.6664791661381715,-6.379005455571413
1772701730837600000,3.94460009765625,12.510959227335452,-6.452956826967001,-7.114278463217616
1772701730847648000,3.95464794921875,14.409327335083484,-5.703323285534977,-7.660653869861364
1772701730857696000,3.964696044921875,15.986019018411636,-4.773346328695118,-7.979910373657941
1772701730867745000,3.9747451171875,15.84147143126726,-3.701373222759366,-7.9997244966745376
1772701730877792800,3.984792724609375,13.029876718211174,-2.836968223765492,-7.96808958748281
1772701730887841000,3.994841064453125,10.360651663738489,-2.4075766900360582,-7.350385559162497
1772701730897889000,4.004888916015625,9.437028752100467,-2.2991022867918014,-5.997098726594448
1772701730907938000,4.01493798828125,8.965896510228514,-2.5957053524926303,-5.240966470792889
1772701730917985800,4.02498583984375,8.500953770646452,-2.449098202469945,-5.088552972579002
1772701730928034000,4.035033935546875,8.069292538419365,-2.1000681994393466,-5.13264579680562
1772701730938082800,4.045082763671875,7.726146624991297,-2.065641321441531,-4.892054833444953
1772701730948130800,4.055130859375,7.654751367819308,-2.1640604868784545,-4.460309430065751
1772701730958179000,4.065178955078125,7.517523748299479,-2.265430026553571,-4.153631837335229
1772701730968226800,4.075226806640625,7.164461421012878,-2.2541198202490804,-3.8335160863608118
1772701730978276000,4.085276123046875,6.286931567507982,-2.2717902092352507,-3.2318519232153893
1772701730988323800,4.09532373046875,5.157875515130162,-2.0076050197973845,-2.0625608910828825
1772701730998371800,4.105371826171875,3.1051053656995293,-0.9682681090503931,0.6069003102332353
1772701731008420900,4.1154208984375,-0.7841285162299871,0.7515884748920798,4.1668385249108075
1772701731018468900,4.12546875,-3.8248575636088846,2.3613690656125543,7.142632451042532
1772701731028517000,4.13551708984375,-5.434271366843581,2.1816700855880975,6.5011974185228345
1772701731038566000,4.14556591796875,-8.895188650798797,0.2044891378879547,3.7011873447984454
1772701731048614100,4.1556142578125,-13.679859214323757,0.576699963889271,2.0588870248757303
1772701731058662000,4.165661865234375,-19.790611208105087,3.5134763232320547,-1.5984237687952816
1772701731068710000,4.1757099609375,-25.771317602825164,5.061801159253716,-4.6628147006601095
1772701731078759000,4.185759033203125,-25.047922664499282,5.718178324839473,-1.0986258428007363
1772701731088807000,4.195806884765625,-23.307080867934225,4.71959428024143,6.747898973718285
1772701731098855000,4.20585498046875,-20.566042623138426,4.8277679469734425,15.390968720448017
1772701731108904000,4.215904052734375,-17.539812641233205,5.197393871048092,14.261799855345487
1772701731118952000,4.225951904296875,-13.58899177944064,4.962441205835342,8.2731480545789
1772701731129000000,4.236,-8.534451551100611,4.099888556709885,-0.08316080602854489
1772701731139048000,4.2460478515625,-4.337067081278562,2.855036964419484,-8.234967084744572
1772701731149097000,4.256096923828125,-1.8680244074106216,0.9006110154934227,-8.470171094369888
1772701731159145000,4.26614501953125,0.5412345366239547,-0.2891352140381932,-7.09991033064723
1772701731169193000,4.27619287109375,2.782669647344947,-0.830860164527595,-4.857525371855497
1772701731179242000,4.286241943359375,3.8239550618112084,-1.7104397901691495,-2.786083255180716
1772701731189290000,4.2962900390625,4.500853621900081,-1.7895581889390944,-1.3798857934191822
1772701731199338000,4.306337890625,5.3890439856290815,-1.6514372738413512,-0.061790101219713685
1772701731209386000,4.316385986328125,5.7498588267385955,-1.511511793539673,0.3606789397701621
1772701731219434800,4.326434814453125,6.696876642489433,-1.6290769734732806,0.5523460054859519
1772701731229483000,4.33648291015625,7.702869209778308,-1.7639967544421553,0.2541743752941489
1772701731239530800,4.34653076171875,8.35625245424509,-1.9278484692543745,-0.33771628959476946
1772701731249580000,4.356580078125,8.558869368520378,-1.9964070416957138,-0.5576189774528145
1772701731259627800,4.366627685546875,8.195935635560751,-1.6385250391677022,-0.3546704931356013
1772701731269675800,4.37667578125,7.455233004081249,-1.3145222176268696,-0.2741650239214301
1772701731279723800,4.386723876953125,7.0264470350295305,-1.2475285564146936,-0.03721870067343116
1772701731289772800,4.396772705078125,6.281636383709311,-1.2058869247324764,0.5629832809649408
1772701731299820800,4.40682080078125,4.846596566084027,-1.3818011255212128,0.7694220916159451
1772701731309868800,4.416868896484375,3.365181366252899,-1.2999291902594268,0.4929026135228574
1772701731319917800,4.426917724609375,1.9966554634988307,-0.9209000625453889,0.3407131333231926
1772701731329965800,4.4369658203125,0.4720353281915188,-0.6003488427631557,1.1538543935477732
1772701731340013800,4.447013916015625,-0.6486626456856727,-0.1158195053100586,2.1103420484334228
1772701731350062800,4.457062744140625,-1.2297691739708185,0.7200925357796252,1.8276345293551681
1772701731360110800,4.46711083984375,-1.8939128819048403,1.4455064127124846,1.4532128954365848
1772701731370158800,4.477158935546875,-2.5169717152565716,1.7273272120840846,1.5427376835390925
1772701731380206800,4.487206787109375,-2.3963223055720326,1.5609632221899925,2.442734512656927
1772701731390255900,4.497255859375,-1.487812207391858,1.0854659169763325,3.2309161036700007
1772701731400303900,4.507303955078125,-0.2815694549590349,0.8080303469516337,2.4983780739456414
1772701731410351900,4.517351806640625,0.5874982751488685,0.20935623246766624,1.2013076341181992
1772701731420401000,4.52740087890625,1.069502624168992,-0.7557571388788521,0.8211655767261982
1772701731430449000,4.537448974609375,1.1415917088240384,-1.1323935262374578,0.45019700587093825
1772701731440497000,4.547496826171875,2.0116081179589034,-0.250052984515205,-0.29338264234960076
1772701731450545000,4.557544921875,2.7362188618153334,0.2944298133149743,-1.6533084745407103
1772701731460594000,4.567593994140625,2.5911644941926,-0.18295432855859398,-3.4158091452062127
1772701731470642000,4.577641845703125,2.148024421095848,-0.3313740809611976,-4.37560344042182
1772701731480689700,4.587689697265625,1.678514811989665,-0.20886121549233794,-5.229361957716941
1772701731490739000,4.597739013671875,0.9864286196410655,-0.11079327464587986,-6.28663696847558
1772701731500786700,4.60778662109375,0.4415647866040468,0.17626615603156387,-6.713432055971026
1772701731510835000,4.6178349609375,0.165681560587883,0.6008490473702549,-6.867794934687018
1772701731520883700,4.6278837890625,-0.5060299522519112,1.191893616823852,-6.855430543154478
1772701731530931700,4.637931640625,-1.7622195156365632,1.889872082081437,-5.937168866288662
1772701731540980000,4.64797998046875,-3.6532442748844622,2.254524163266271,-4.796121347343921
1772701731551027700,4.65802783203125,-5.584877523374558,1.698836007745564,-3.7223154730230568
1772701731561077000,4.668076904296875,-7.1571642497420305,0.7868946199424565,-1.9584563734859226
1772701731571124700,4.678124755859375,-7.879568423464894,1.8843306684367358,0.3611088556200266
1772701731581173000,4.688173095703125,-8.607385269886255,3.8219595040798184,2.673912920027971
1772701731591221800,4.6982216796875,-9.46393721729219,3.8251562542945146,4.610452060738206
1772701731601269800,4.708269775390625,-10.824417176234721,2.6861726821422574,6.082952717229723
1772701731611317800,4.71831787109375,-12.731511026751994,2.039026432368904,6.352371715667844
1772701731621365800,4.72836572265625,-14.911519316607713,3.1601173510864373,5.174340912240743
1772701731631414800,4.738414794921875,-16.890281396019457,4.3830356362491845,4.634972754010557
1772701731641462800,4.748462890625,-17.345888151979445,4.051418248051405,5.560679486185312
1772701731651510800,4.7585107421875,-17.724603391438723,3.63516705866307,6.683213443318009
1772701731661559800,4.768559814453125,-18.031895901197196,3.3175162364974615,7.179605214130878
1772701731671607800,4.77860791015625,-17.883546583682296,2.5334008720099925,7.8372227351665495
1772701731681655800,4.78865576171875,-17.41143409860134,1.3724407381102441,8.686407953196763
1772701731691703800,4.798703857421875,-15.745055714607238,0.3459595095440745,9.188300659513473
1772701731701752800,4.8087529296875,-13.144489770340918,-0.3475365496024489,9.253229935541748
1772701731711800800,4.81880078125,-10.346787973558902,-0.9086331400379538,8.797368912559747
1772701731721848800,4.828848876953125,-7.171353518614173,-0.9102212860122323,7.988539085793494
1772701731731897900,4.83889794921875,-3.663030340361595,-0.8903199231036006,6.807130330365895
1772701731741945900,4.84894580078125,-0.4830249242395162,-1.0404165226772426,5.63505872760415
1772701731751993900,4.858993896484375,2.6204186457276344,-1.1469525052048266,4.607335097761452
1772701731762043000,4.86904296875,5.0155637242138384,-1.883552377540618,4.330285166053474
1772701731772091000,4.8790908203125,6.478915444087982,-2.5195231533050535,4.329107354445755
1772701731782139000,4.889138916015625,8.074178556895255,-2.4274251537136733,2.7653572780162095
1772701731792186600,4.8991865234375,9.256147868815065,-2.621309457087517,0.8717086000055074
1772701731802236000,4.90923583984375,10.378803406500817,-2.7900165029764175,-1.177486613547802
1772701731812283600,4.91928369140625,12.715096483045816,-2.3369676148056984,-3.9065766463965175
1772701731822332000,4.929331787109375,17.14434266632795,-1.44394807735458,-7.858883947354554
1772701731832380700,4.939380615234375,21.156070709025858,-1.7901862577095626,-10.617957030534743
1772701731842429000,4.949428955078125,23.60980007842779,-2.949538371890783,-11.307929007208347
1772701731852477000,4.959476806640625,18.024487670767307,-2.468266428798437,-11.111908422458171
1772701731862524700,4.969524658203125,12.086668816137314,-1.1550525172911583,-11.793098542261124
1772701731872574000,4.979573974609375,9.709843822717666,-0.25063188038170336,-11.957250993585586
1772701731882621700,4.98962158203125,9.682031686684489,-0.5981351122364401,-11.52607257643938
1772701731892670000,4.999669921875,9.718991005769372,-0.5906589311368763,-11.190075365722178
1772701731902718700,5.00971875,8.795665615773201,-0.6657469053469598,-10.94448732472658
1772701731912767000,5.01976708984375,7.698845361089706,-0.7116463406041265,-10.414214911621809
1772701731922814700,5.029814697265625,6.8464803439795965,-0.7751360853485763,-9.66640098683238
1772701731932862700,5.03986279296875,6.431725238367915,-0.8630893863506615,-9.045319591033458
1772701731942911700,5.049911865234375,6.4563014612197875,-1.0575532431781292,-8.641016321331263
1772701731952959700,5.059959716796875,6.435606463715434,-1.1378883242614566,-8.608518657830357
1772701731963008000,5.070008056640625,6.345764280226827,-0.7451536195389926,-8.348266131666302
1772701731973056800,5.080056884765625,5.997164193046093,-0.2859238507762551,-7.3674308019876475
1772701731983104800,5.090104736328125,5.335276739606261,0.12096592828780411,-6.657898384797573
1772701731993152800,5.10015283203125,4.5791532516330475,0.17880188505426048,-6.066969550678134
1772701732003200800,5.11020068359375,3.821744400024414,0.3152649499423802,-5.406459230810404
1772701732013249800,5.120249755859375,3.0385037725448605,1.0223045274034142,-4.318688544023037
1772701732023297800,5.1302978515625,2.3943191490560767,1.854239335425198,-2.528530635625124
1772701732033346000,5.140345947265625,2.1208874078452586,2.108102891204506,-1.0122387682020664
1772701732043394800,5.150394775390625,1.801004881104827,1.7426352558530867,-0.06094225221872329
1772701732053442800,5.16044287109375,1.2674369335860014,1.487408448896557,0.9522264903098344
1772701732063490800,5.17049072265625,0.8691279358625411,1.547255745485425,1.959839352276921
1772701732073539800,5.180539794921875,-1.072469657281041,1.6524739234127104,3.6160663446128365
1772701732083587800,5.190587890625,-4.0916415373682975,1.6946024618290363,5.562080000633001
1772701732093635800,5.2006357421875,-7.57220284847021,1.6938213944539426,5.806127241927385
1772701732103683600,5.21068359375,-13.85602359048128,2.38323486046195,5.177886037501692
1772701732113732900,5.22073291015625,-22.634319553780553,2.830819638007879,4.366885588698089
1772701732123780600,5.230780517578125,-29.01196073526144,2.707565306521952,4.872936875998974
1772701732133828900,5.240828857421875,-28.8068473279953,2.8064602727770804,9.46602688304782
1772701732143877600,5.250877685546875,-25.80599377940893,2.800416608698666,16.73581914858222
1772701732153926000,5.26092578125,-21.024569650459288,1.9662401592299341,16.482835736638307
1772701732163974000,5.270973876953125,-14.833933388102054,1.7567421071387825,11.760714860528706
1772701732174023000,5.28102294921875,-9.638229369837045,0.4982262927636504,5.8396185926407576
1772701732184071000,5.29107080078125,-5.870432248577475,-0.6119993869379162,0.47731180728971956
1772701732194118700,5.30111865234375,-2.1541350129306314,-0.5773680724091828,-2.972522357115149
1772701732204167400,5.31116748046875,0.4649503383666277,-0.23425591512024402,-5.580015470296144
1772701732214216400,5.321216552734375,2.33619955304265,-0.030719840173423288,-7.724489505434036
1772701732224264400,5.331264404296875,2.382524666365981,-0.06950432885885238,-7.648836006295681
1772701732234312200,5.341312255859375,4.017472723829746,0.1871427201591432,-8.58747586980164
1772701732244361500,5.351361572265625,5.430392479583621,0.2976569586679339,-8.182430841821432
1772701732254409200,5.3614091796875,6.607175913298129,0.3796579271368682,-7.230732174777984
1772701732264457500,5.37145751953125,7.607769251891971,0.5128809871904552,-6.343811392593383
1772701732274505500,5.38150537109375,7.989936677631736,0.5725638869978488,-5.334624997699261
1772701732284554500,5.391554443359375,7.081942127758264,0.037366292450577016,-3.738650814013183
1772701732294602500,5.4016025390625,5.853578144410252,-0.6688678138464689,-1.957321816498041
1772701732304650200,5.411650146484375,5.3922810678541655,-0.5804198611952364,-1.1315668661549687
1772701732314699500,5.421699462890625,5.175980496141314,-0.5300225299969316,-0.07077186457663774
1772701732324747300,5.431747314453125,4.715510518059134,-0.7026806515991687,1.1748019045084714
1772701732334795500,5.44179541015625,4.32496747816205,-0.8909947536252438,2.3301316313058136
1772701732344843300,5.45184326171875,3.682066464743018,-1.0118874705463647,3.034260728147626
1772701732354892500,5.461892578125,2.738494405531883,-0.7243218439124525,3.030892713019252
1772701732364940300,5.471940185546875,2.0530513044595717,-0.3790435946308076,2.4939772086381913
1772701732374988300,5.48198828125,1.5932780764698982,-0.5151340268142521,1.5804259014204143
1772701732385037300,5.492037353515625,1.14104810346663,-0.7431336580187082,0.4571957787171006
1772701732395085300,5.502085205078125,0.6031424190044403,-0.8859349860176443,-0.5713631329059601
1772701732405133600,5.512133544921875,0.03751110774874687,-0.9683990419536829,-0.9937368968278169
1772701732415181300,5.522181396484375,-0.5593839412987232,-1.0409067904122173,-0.6073030458152294
1772701732425230600,5.532230712890625,-1.1799497887909411,-0.9615976913757621,0.290151989865303
1772701732435278300,5.5422783203125,-1.8823902018934486,-0.7622937010407448,1.4079431363850832
1772701732445326300,5.552326416015625,-2.73193490088582,-0.5674489551369101,1.9114871170401573
1772701732455375400,5.562375244140625,-2.992444616681337,-0.21840806538611648,1.5201187322348355
1772701732465423400,5.57242333984375,-2.095235664716363,0.37738654813878236,0.6497089398682117
1772701732475471600,5.5824716796875,-0.7151777296006679,0.6339020066663622,-0.16048106933534145
1772701732485520400,5.592520263671875,0.7699573675364255,0.6050774787202478,-0.6066255849450827
1772701732495568600,5.602568603515625,1.4341080897331238,0.4179168575782329,-1.075863975894451
1772701732505616400,5.612616455078125,1.3583616516143082,0.00968085153698921,-1.774953909525275
1772701732515664400,5.622664306640625,0.9542799157083034,-0.3234041980605572,-1.9583505750238894
1772701732525713400,5.63271337890625,0.8127946387439966,-0.18910094155482945,-1.942560300695896
1772701732535761400,5.642761474609375,0.9869055895030497,0.431044342437759,-2.558187522742152
1772701732545809400,5.652809326171875,0.9313421077132225,1.03930724626109,-3.393189901641011
1772701732555858400,5.6628583984375,0.8252338490784168,2.015946439424157,-3.544298746997118
1772701732565906400,5.672906494140625,1.1799509578347205,3.319156697180867,-3.087430008277297
1772701732575954400,5.682954345703125,1.229496202248335,4.032438237771392,-2.845303505912423
1772701732586002400,5.69300244140625,0.7291290980637073,3.1716233722239733,-3.347265770334005
1772701732596051500,5.703051513671875,-2.8341555044323203,0.4993679370794445,-2.2362492325156924
1772701732606099500,5.713099365234375,-4.617302072763443,0.2857372421629727,-1.1928086858421563
1772701732616147500,5.7231474609375,-6.159155082422495,0.5532154087316244,-1.9168045126706361
1772701732626196500,5.733196533203125,-8.352568797296286,1.5048793697878717,-2.9711230117112395
1772701732636244200,5.743244140625,-9.645430094996094,4.068077121907472,-2.267610585463047
1772701732646292500,5.75329248046875,-10.292602794384957,5.643651783904433,-0.39664544842541216
1772701732656341200,5.76334130859375,-12.168106743896006,4.323239046934247,0.7853086659252643
1772701732666389500,5.773389404296875,-14.734111077868938,4.2762607303991915,2.1878484819620847
1772701732676437500,5.7834375,-16.31954837771058,5.011871883958578,4.057100385341048
1772701732686485200,5.7934853515625,-17.901162904393672,3.7599008150517936,7.54264299198687
1772701732696534300,5.8035341796875,-17.796083404284715,2.4529613076388834,10.560027404135464
1772701732706582300,5.813582275390625,-16.454277166152,1.9253163204282522,12.285517317789793
1772701732716630500,5.823630615234375,-14.82616275410056,1.5924993471823632,14.000280085724592
1772701732726679300,5.83367919921875,-13.052733862185477,1.1001185655765235,14.841728572022914
1772701732736727600,5.8437275390625,-11.068483122229576,0.41281113193705676,14.295434413921832
1772701732746775300,5.853775390625,-9.240910552194714,-0.45922903811037535,12.768782480525969
1772701732756824600,5.863824462890625,-7.573279537791013,-1.333478116378933,11.388185031706094
1772701732766872300,5.873872314453125,-5.530944857656955,-2.134069107110053,10.162221679759025
1772701732776920300,5.88392041015625,-2.59358909099102,-2.430912265177071,8.669540405026078
1772701732786968600,5.893968505859375,0.46872225812077517,-3.0043185943484305,6.506068823951482
1772701732797017300,5.904017333984375,2.7461107257544994,-3.395817912057042,4.612257064333558
1772701732807065600,5.914065673828125,5.435080345138907,-3.246716607131064,3.1463369552761313
1772701732817113300,5.92411328125,8.518623282849788,-2.597346982219815,1.3587971204221247
1772701732827162600,5.93416259765625,11.579399677479266,-1.585419179663062,-0.41551264598071574
1772701732837210400,5.94421044921875,14.014711931180953,-1.377074681521207,-1.1087842487215995
1772701732847258400,5.95425830078125,16.01296080135107,-1.8414277846470475,-2.8218104021221397
1772701732857306400,5.964306396484375,16.58335596600771,-1.8875844095356762,-5.45320286180675
1772701732867355400,5.97435546875,16.837824063551427,-1.6608488069176672,-7.798262597653269
1772701732877403400,5.9844033203125,15.944655911409853,-1.5198065975457429,-8.195373910024761
1772701732887451400,5.994451416015625,14.807657960116863,-2.2772753626480697,-7.314853058010339
1772701732897500400,6.00450048828125,13.526154507255553,-2.465280106464028,-7.408207633534073
1772701732907548400,6.01454833984375,12.217330501270293,-2.354678335802257,-7.477463540589809
1772701732917596400,6.024596435546875,11.436190645462274,-2.232878587038815,-7.447335528829694
1772701732927645400,6.0346455078125,11.190602604466676,-2.3222658663667737,-7.517733591657876
1772701732937693400,6.044693359375,10.76901268439889,-2.0130431191980835,-7.8050255159169435
1772701732947741400,6.054741455078125,10.521046808356045,-1.7641656812682747,-7.785062339818477
1772701732957789400,6.06478955078125,9.716187638786435,-1.5642890056118368,-7.450657366728782
1772701732967838500,6.07483837890625,8.763815018004179,-1.2470968869991599,-6.988362511307001
1772701732977886500,6.084886474609375,7.8977067222237585,-0.8201144602380692,-6.420480206254124
1772701732987934500,6.0949345703125,7.3610700347840785,-0.499581945156306,-5.92920709362924
1772701732997983500,6.1049833984375,7.140199086415767,-0.3656992521502077,-5.6232981471836565
1772701733008031500,6.115031494140625,7.051402612587809,-0.26431371118836106,-5.58054621617198
1772701733018079500,6.12507958984375,6.887645298060774,-0.1119628298819065,-5.50029486784935
1772701733028128500,6.13512841796875,6.529226412177086,0.28250761259198187,-5.239885689818859
1772701733038176300,6.14517626953125,6.409515160125494,0.7477951470237225,-4.882627664408087
1772701733048224500,6.155224609375,6.1637500089973205,0.9156326435364782,-4.676286761173605
1772701733058272300,6.165272216796875,5.824733742719888,0.9524735238734632,-4.513209245604276
1772701733068321500,6.175321533203125,5.354532644218206,0.8129538478937,-4.1740462643325325
1772701733078369300,6.185369384765625,5.25213609958291,0.5304700545687228,-3.4628748477637767
1772701733088417300,6.195417236328125,4.8777188495785,0.3959325509157032,-2.6469863346576687
1772701733098466300,6.20546630859375,3.9465678805232045,0.17483071640096604,-1.6669091298699379
1772701733108514300,6.215514404296875,2.851310637372732,-0.0023468553870916366,-0.3838520178258419
1772701733118562600,6.2255625,1.2735475254207849,-0.021239625775068997,0.9905296252191066
1772701733128610300,6.2356103515625,-0.9464660270869731,-0.34663697041422126,1.9724729161396621
1772701733138659600,6.24565966796875,-4.05743239377439,-0.8220064845297486,2.720016499555111
1772701733148707300,6.255707275390625,-8.351761572566629,-0.7679027730941772,4.75010398479551
1772701733158755300,6.26575537109375,-11.736859353166817,1.1574529294963924,7.716400891524553
1772701733168804400,6.275804443359375,-16.679416293358802,4.975691148030758,7.738139260601997
1772701733178852400,6.285852294921875,-25.409970846796035,7.401903564953804,9.148701639574766
1772701733188900400,6.295900390625,-27.562388534414765,4.552048679347336,13.626784626740216
1772701733198949400,6.305949462890625,-27.970190752148625,-0.44320827949475494,17.092755102431774
1772701733208996600,6.31599658203125,-25.760422114801404,-2.9844115323513742,14.65441268725395
1772701733219044600,6.326044677734375,-17.62673338431716,-3.543423717728257,8.82860342425704
1772701733229092600,6.336092529296875,-10.716289978992938,-2.756409709189832,3.3531711949855088
1772701733239141400,6.346141357421875,-6.27766572651267,-1.4599673381328582,-0.6361223130643368
1772701733249189600,6.356189697265625,-3.511038282430172,-0.686328432539478,-2.4971008936166763
1772701733259237600,6.366237548828125,-1.6393898393034934,-0.2739467049956322,-2.4205846401691433
1772701733269286700,6.37628662109375,-0.30659575966596603,0.3485639929540455,-2.1318623908460137
1772701733279334700,6.386334716796875,0.7617389897674322,0.6676978932842612,-2.7657249422848222
1772701733289382400,6.39638232421875,2.0453660106539724,0.6601302345089614,-3.6424434794068334
1772701733299431700,6.406431640625,3.78618559538722,0.3569430411774665,-3.750944770658016
1772701733309479400,6.4164794921875,5.408398674440384,0.18756247994117436,-3.9797944428205487
1772701733319527700,6.426527587890625,6.49452919280529,0.19342180042862891,-4.419026987084746
1772701733329575400,6.436575439453125,6.713674048033356,0.06516615352407097,-4.942263510203361
1772701733339624700,6.446624755859375,6.550224192020297,0.202933140617609,-5.6170648057520385
1772701733349672400,6.45667236328125,6.334984527537227,0.6223270119458436,-6.186013863253593
1772701733359720400,6.466720458984375,6.10140548876524,0.6751635529898107,-6.8530269891440865
1772701733369769500,6.47676953125,5.356839167594909,0.4093745085518807,-7.569697587651014
1772701733379817500,6.4868173828125,3.8385985041916366,-0.08981069237180053,-6.279652516415715
1772701733389865700,6.49686572265625,2.9839860004156824,-0.6384599622316658,-2.443974868106842
1772701733399914500,6.50691455078125,3.269558845797181,-0.705864323136583,-0.43541503180265423
1772701733409962800,6.516962646484375,3.7358003930181263,-0.05808452470004558,-0.437521064171195
1772701733420010500,6.527010498046875,3.7402316534638405,0.4253403586424887,-0.18560148206651209
1772701733430058500,6.53705859375,4.115581800404191,0.03690693131051957,-0.04736497776508331
1772701733440107500,6.547107421875,4.5219992857813835,-0.09681056119650602,-1.1795014605015515
1772701733450155500,6.557155517578125,4.438987825095653,0.17608159324489533,-2.3241356057614087
1772701733460203500,6.56720361328125,3.8490690448015927,0.9340027052246034,-2.4234061273306606
1772701733470252500,6.57725244140625,2.8940222363740205,1.2854847775824367,-1.57764562305212
1772701733480300500,6.587300537109375,1.7259101848930118,0.9673229371547698,-0.29282676203250885
1772701733490348500,6.5973486328125,0.49175475866198537,1.0317462364222854,0.5429518619358539
1772701733500397600,6.6073974609375,-1.8252911810994148,1.461934400422126,1.5421400099068878
1772701733510445600,6.617445556640625,-3.5633500689476727,2.1038496176742014,2.2630460540264843
1772701733520493600,6.62749365234375,-3.6503158202171324,2.328952650654316,1.6812129650324583
1772701733530541600,6.63754150390625,-2.8255834909200668,1.7824369587570428,0.5322083496034145
1772701733540590600,6.647590576171875,-2.602297298103571,0.5074984539018944,-0.13743278670310974
1772701733550638600,6.657638671875,-3.012452800965309,-0.8615827811799943,-0.6527618976980447
1772701733560686600,6.6676865234375,-2.565868140372634,-1.4825139548532664,-0.6590665508002043
1772701733570735600,6.677735595703125,-2.3611399330317973,-1.7688317733831702,-0.47398412417173386
1772701733580783600,6.68778369140625,-1.6240180826485155,-1.4873511657513676,-0.6167530112057924
1772701733590831600,6.69783154296875,-0.7060024894982576,-1.0114603311754762,-0.8205676108330487
1772701733600879600,6.707879638671875,-0.6819611041754484,-0.9390220677565783,-1.0508183819651602
1772701733610928600,6.7179287109375,-0.9449614677429199,-0.9793646726042031,-1.1105150180369614
1772701733620976600,6.7279765625,-1.0743576629847287,-0.5665562440808862,-1.1399953795433044
1772701733631024600,6.738024658203125,-0.9887316358864306,0.05781425639130175,-1.1212854183763266
1772701733641073400,6.748073486328125,-1.0356161366581915,0.6557168750461191,-1.2101339146524668
1772701733651121700,6.75812158203125,-1.467140590763092,1.2299410234063863,-1.0119833321362732
1772701733661169400,6.76816943359375,-2.52954478110373,1.3727128330498932,-0.8753115929335356
1772701733671218700,6.77821875,-3.707734574484825,1.1704428325161338,-0.5568710816949606
1772701733681266400,6.788266357421875,-4.488660495281219,0.8296181285772473,0.3406324693024158
1772701733691314400,6.798314453125,-5.091622881543636,0.5565080936014652,0.71944473939538
1772701733701363500,6.808363525390625,-5.922063067093491,0.565403128523007,0.6287076528936624
1772701733711411500,6.818411376953125,-6.741916392177343,0.8704322233941405,0.845263660672307
1772701733721459700,6.828459716796875,-7.259547934895753,1.4463018008738755,1.5559364800691604
1772701733731507500,6.838507568359375,-7.95551885972321,1.6118579815164207,2.9639240401178597
1772701733741556700,6.848556640625,-9.145621209216117,1.5878469913318751,4.201612901172042
1772701733751604500,6.8586044921875,-9.88313118213415,1.718807513280958,5.229115289479494
1772701733761652500,6.868652587890625,-10.555621278131008,1.6151156681381165,5.943527295404672
1772701733771701500,6.878701416015625,-11.6352121655941,0.8919837646625935,6.508381192547082
1772701733781749500,6.88874951171875,-12.376692211186885,-0.1417443662919104,7.414795195230841
1772701733791797800,6.8987978515625,-12.875831819403171,-1.608594741936773,8.363513385158777
1772701733801845500,6.908845458984375,-13.84673670669794,-2.2212547847405073,9.568983399653435
1772701733811894500,6.91889453125,-14.922973607558012,-0.8931125494968145,11.979684943711757
1772701733821942500,6.928942626953125,-13.917977065569161,-0.23074001595377922,13.353678464221954
1772701733831990500,6.938990478515625,-12.348822207486629,-0.3741593297205865,13.375960438656806
1772701733842039600,6.94903955078125,-10.953912155675887,-0.5032990659832954,12.012829672944545
1772701733852087600,6.959087646484375,-8.625238321962952,-0.39722733996659515,9.319418856242299
1772701733862135600,6.969135498046875,-4.626833871218562,-0.4022507941517979,6.7081608375698325
1772701733872184600,6.9791845703125,0.5914589954733849,-0.27077165515609086,5.101112009900808
1772701733882232600,6.989232666015625,5.207137266427278,-0.6273639831997454,3.5581413943886755
1772701733892280600,6.999280517578125,8.406910628336668,-1.1979975597221404,1.3551537954837083
1772701733902328600,7.00932861328125,11.012160931026935,-1.7202207410797477,-0.5977876139730215
1772701733912377600,7.019377685546875,12.67051499851942,-1.9620450456276535,-2.402234159964323
1772701733922425600,7.029425537109375,13.628296200346947,-1.789158083705604,-3.483649924767017
1772701733932473600,7.0394736328125,14.441024788117408,-1.5390356141507624,-4.1901767304003235
1772701733942522600,7.049522705078125,14.956068067908285,-1.5853396846860646,-5.02040999520123
1772701733952570600,7.059570556640625,15.167597187435627,-1.7532954738162456,-5.704764131993055
1772701733962618600,7.06961865234375,15.322521207165718,-2.0583318752110005,-5.92855593624413
1772701733972667400,7.07966748046875,15.207399620991945,-2.522023737949133,-6.131564480185508
1772701733982715600,7.089715576171875,15.033509034985302,-2.7785166193187236,-6.16045038293004
1772701733992763400,7.099763427734375,14.414861588335036,-2.4933698903948067,-6.262285786551237
1772701734002811600,7.109811767578125,13.674737633526325,-2.059272224801034,-6.688591629225015
1772701734012860400,7.1198603515625,12.643918083494901,-1.6633496838226913,-6.973467724514007
1772701734022908700,7.12990869140625,11.436032824552058,-1.4862478806845842,-6.668857585707307
1772701734032956700,7.139956787109375,10.642001922988891,-1.5259469999969004,-6.181054779541492
1772701734043005400,7.15000537109375,9.786789699754118,-1.3948955848939717,-5.811235378721356
1772701734053053700,7.1600537109375,9.031335489344597,-1.1293510898016392,-5.484447894898056
1772701734063101400,7.170101318359375,8.29692640505135,-0.9825048703260719,-5.128696766918897
1772701734073150700,7.180150634765625,7.808979806500673,-0.8661259775675832,-4.924160867279768
1772701734083198500,7.190198486328125,7.300590723901987,-0.792696438089013,-4.7384945032835
1772701734093246500,7.20024658203125,6.889953575003147,-0.795766347053647,-4.654858188697696
1772701734103294700,7.210294677734375,6.523161997571587,-0.8818617452293633,-4.579442005446553
1772701734113343500,7.220343505859375,6.1604556436270475,-0.8060885652340948,-4.526239992091059
1772701734123391700,7.230391845703125,5.716426512736081,-0.5782208898462354,-4.471010856822133
1772701734133439500,7.240439453125,5.526076374837756,-0.49517581915184855,-4.405265003713965
1772701734143488800,7.25048876953125,4.925195471024513,-0.4176436666600406,-4.161063448640704
1772701734153536500,7.26053662109375,4.372523010063171,-0.4860150459662079,-3.769298173472285
1772701734163584500,7.27058447265625,3.7705782764106988,-0.6349180518411099,-3.2289450958579775
1772701734173633500,7.280633544921875,3.537219017869234,-0.7629170936360955,-2.604930569216609
1772701734183681500,7.290681640625,3.5464252376317975,-0.715274467973411,-1.979254246842861
1772701734193729500,7.3007294921875,3.384289971348643,-0.5816819900855422,-1.262472589176893
1772701734203778000,7.310778076171875,2.161627414512634,-0.2774839392110705,-0.2749684492588043
1772701734213826800,7.320826904296875,0.6805255184143781,0.14681407077163458,1.1181798535764216
1772701734223875000,7.330875,-1.5915876391649246,0.7425077812053262,3.1260195589125153
1772701734233923000,7.340923095703125,-6.034940673732757,1.9360951963350175,6.280795256710052
1772701734243972000,7.35097216796875,-12.861587020951509,3.6873064112231133,8.708232246991992
1772701734254020000,7.36102001953125,-17.692029155570268,4.844280105835199,10.750795475184917
1772701734264067800,7.37106787109375,-20.29596545305252,4.3105777182817455,14.01324478123784
1772701734274117000,7.3811171875,-22.12093163998127,2.506823538468778,18.641645755642653
1772701734284164900,7.391164794921875,-19.418297652381657,1.4029818607158957,17.70060526073575
1772701734294213000,7.401213134765625,-14.503638772940635,0.8913109799675643,12.51957975616455
1772701734304262000,7.411261962890625,-12.673532300513981,0.9280097484201192,9.362035178175567
1772701734314310000,7.421309814453125,-11.514216134428978,1.4195835975572466,7.068864034998416
1772701734324358000,7.43135791015625,-10.38664769026041,1.5259670198716222,4.648430201476812
1772701734334406000,7.441406005859375,-9.232324510157108,0.8024345727711916,2.849029832959175
1772701734344455000,7.451454833984375,-7.3843445273876185,0.21397242102622985,1.0846551851153372
1772701734354503000,7.4615029296875,-5.403729513585567,-0.13322379070594906,-0.44908641428053375
1772701734364551200,7.47155126953125,-3.1699557312726974,-0.38926673635095355,-1.3545511534154415
1772701734374600000,7.481599853515625,-0.9201321469128131,-0.5596867236375809,-2.1127707368850706
1772701734384648000,7.49164794921875,0.7665724012732505,-0.678991879106313,-2.868324900537729
1772701734394696000,7.501696044921875,2.370810847696662,-0.9364290555886924,-3.4457091934293507
1772701734404745000,7.511744873046875,3.9595764151781796,-1.2433964250460265,-4.046586005589366
1772701734414793000,7.52179296875,5.224073788180947,-1.4728446476235986,-4.463921775344014
1772701734424841000,7.531841064453125,6.126759125730395,-1.3957131848871707,-4.577603684103488
1772701734434889000,7.541888916015625,6.35442981724143,-0.9789834182016551,-4.041543919768929
1772701734444938000,7.55193798828125,5.8243070417404175,-0.6916688437193632,-3.2729537489324807
1772701734454986000,7.561986083984375,5.296619384431839,-0.7668503414317965,-3.024355420204997
1772701734465034000,7.572033935546875,4.953494513791799,-0.7418886263936758,-2.7757623521745205
1772701734475082800,7.582082763671875,4.705862984269857,-0.7729661939635872,-2.6310318096786736
1772701734485131000,7.592131103515625,4.2654742557078595,-0.9572961947895586,-2.419647067058086
1772701734495179000,7.602178955078125,3.8728216763108967,-1.1731142436824737,-1.7776234209954738
1772701734505228000,7.61222802734375,3.3969524690449235,-1.2022424307502806,-1.1687760683476924
1772701734515276000,7.622276123046875,2.7114503312617537,-0.737913877543807,-0.8032336141943931
1772701734525323800,7.63232373046875,1.8858125775575636,-0.3373107775337994,-0.1157797578215599
1772701734535373000,7.642373046875,1.3159399754703045,-0.17606281547918914,0.4880886373698711
1772701734545420800,7.6524208984375,1.1956225742191076,0.09854147664234042,0.9843196646630763
1772701734555469000,7.662468994140625,0.48874388640820976,0.6803723736792803,1.4418980129569767
1772701734565517000,7.67251708984375,-0.23010931683480737,1.108551170618087,1.7196055317908525
1772701734575566000,7.682566162109375,-0.8367857551842928,1.0154723432958126,1.789486292746663
1772701734585614000,7.692614013671875,-1.4906658432573079,0.6382657548338174,1.732318298369646
1772701734595661800,7.702661865234375,-2.1410797165244815,0.407733244150877,1.5238035582274199
1772701734605711000,7.712711181640625,-2.6417648006170986,0.42632425511330363,1.304942780637741
1772701734615758800,7.7227587890625,-2.614040342867374,0.7114376662895083,1.013498412874341
1772701734625807000,7.73280712890625,-2.0286703119188547,0.9658677699103951,0.41263562923967834
1772701734635856000,7.74285595703125,-1.3862790015876292,0.8942939413011074,-0.09441139110028743
1772701734645904100,7.752904052734375,-0.9673246907204389,0.5438020490244031,-0.470194084239006
1772701734655952000,7.762951904296875,-0.5983429097682237,0.14290624967813492,-0.6085656130969525
1772701734666001000,7.7730009765625,-0.21517770516276358,-0.17899550793021915,-0.5114800343513488
1772701734676049000,7.783048828125,-0.09521510869860648,-0.4051806370586157,-0.43654023644030093
1772701734686097000,7.793096923828125,-0.31229251000285146,-0.645389030842483,-0.494912930431962
1772701734696145200,7.803145263671875,-0.32758827881217,-0.6267971430972218,-0.8429314183324574
1772701734706194000,7.81319384765625,-0.2446563131034374,-0.3559168399348855,-1.2352449750334025
1772701734716242000,7.823241943359375,0.1339268244087696,-0.13831132310330868,-1.5784434954315423
1772701734726290000,7.8332900390625,0.836371329164505,0.07570522932559251,-1.7585814513951539
1772701734736339000,7.8433388671875,1.4156687622010706,0.430223308378458,-1.6635019517749547
1772701734746387000,7.853386962890625,1.6912053667366505,0.5868070780143141,-1.2919137877166271
1772701734756435000,7.86343505859375,1.5731576639831064,0.5901601878345012,-0.7183750643372535
1772701734766484000,7.87348388671875,1.2667705786317587,0.7532488093197345,-0.05993921265602112
1772701734776532000,7.883531982421875,0.5833002389371394,0.7968231626302004,0.3446457965970039
1772701734786580000,7.893580078125,0.2478384502708912,0.6799556095719337,0.7050602402120828
1772701734796628000,7.9036279296875,0.2955938886582851,0.3554889699116349,0.8468278412491083
1772701734806677000,7.913677001953125,-0.15632862583100796,0.05788023429960012,0.44046471640765666
1772701734816725000,7.92372509765625,-0.5132470440238714,-0.529850096039474,0.2832382649540901
1772701734826773000,7.93377294921875,-1.086338023635745,-1.3989352156735957,0.2569295192211866
1772701734836822000,7.943822021484375,-1.7123136212170122,-0.875762989962846,-0.29876842704117296
1772701734846870000,7.9538701171875,-1.4449492172211407,0.2971456481449306,-0.8122329132080077
1772701734856917800,7.963917724609375,-0.5753653542846441,0.30281551047489047,-0.06608838293552398
1772701734866967000,7.973967041015625,0.032227029865980146,0.09617430911958218,0.8069628638505936
1772701734877014800,7.984014892578125,0.14164075978696344,-0.047478375011682505,1.342035955235362
1772701734887063000,7.99406298828125,-0.3135574153721332,0.09026464668437838,1.28189332896173
1772701734897111800,8.00411181640625,-0.7069020686864852,0.16486980581358074,0.9211533066540956
1772701734907160000,8.01416015625,-0.7765496054083109,-0.012340718396008013,0.7399947754710913
1772701734917208000,8.0242080078125,-0.9204875362217426,-0.18664616881385446,0.6291600728362798
1772701734927257000,8.034257080078126,-0.8305985909819602,-0.18484701043739915,0.39323885485231874
1772701734937305000,8.04430517578125,-0.5145534504473209,-0.18341303211152551,0.09822656547427176
1772701734947352800,8.054352783203125,-0.4402677325308323,-0.32382878014817834,-0.21690905900001525
1772701734957401000,8.064401123046874,-0.32401334293484685,-0.6730030139550566,-0.53383916567564
1772701734967449900,8.074449951171875,0.13116554300189018,-1.185437280291319,-0.6451718809604644
1772701734977498000,8.084498046875,0.5495639735519886,-1.2366624406158924,-0.5290671289682388
1772701734987545900,8.0945458984375,0.21639877139031885,-0.24077362645119427,-0.7748159134835004
1772701734997595000,8.104594970703126,-0.31476445307433604,0.36440804329589005,-0.7070277408927679
1772701735007643000,8.114642822265624,-0.30937749933898445,0.344532837741822,-0.2565513335585594
1772701735017691000,8.12469091796875,-0.18891572118103503,0.48951326334550976,-0.13657353952527046
1772701735027740000,8.134739990234374,0.023058219504356384,0.47087622128427026,-0.04789513911902904
1772701735037788000,8.144787841796875,0.3605757716566324,0.08948942452818155,0.14326514611840246
1772701735047836200,8.154836181640626,0.3949082493692636,-0.12270604995340108,0.03019990795254707
1772701735057885000,8.164885009765625,0.2896434558212757,-0.08244798158407211,-0.23055881416797636
1772701735067933000,8.174932861328125,0.07857143241167068,-0.02181581822782755,-0.34013621021807194
1772701735077981000,8.18498095703125,-0.11112871714532374,-0.03941182680353522,-0.2550719086557627
1772701735088029000,8.19502880859375,-0.000037409400939941404,-0.0900217778392136,-0.053044776967167855
1772701735098078000,8.205077880859376,0.1550672275930643,-0.1254693771868944,0.12918927449285983
1772701735108126000,8.2151259765625,0.14039397459626196,-0.15879457755312323,0.11893033080697059
1772701735118174000,8.225174072265625,0.1422708743840456,-0.2732626682542264,0.13199322599768637
1772701735128223000,8.235222900390625,0.30713118171691894,-0.42409547314792867,0.061387073376774785
1772701735138271000,8.24527099609375,0.39146015474200246,-0.4061832382299006,-0.08720540524423122
1772701735148319000,8.255319091796874,0.13751520428955555,-0.3310164996951818,-0.12488310173153877
1772701735158368000,8.265367919921875,-0.02390752981007099,-0.3310772899717092,-0.09793372000753879
1772701735168416000,8.275416015625,-0.048612347477674483,-0.2750610959783196,-0.022515198668837545
1772701735178464000,8.285464111328125,-0.20391572191417215,-0.21518910333961247,-0.005834697502851486
1772701735188513000,8.295512939453126,-0.32041502618193624,-0.25945582282841206,-0.07184241641759873
1772701735198561000,8.30556103515625,-0.3246960645020008,-0.20687661754637957,-0.0839689075410366
1772701735208609000,8.315609130859375,-0.23042378961145876,-0.1310623748883605,-0.10747837794423103
1772701735218657300,8.3256572265625,0.08022329127192497,-0.1084659276768565,-0.14579203424751758
1772701735228706000,8.3357060546875,0.4055401180207729,-0.13139701367020606,-0.15552315466701983
1772701735238754300,8.34575439453125,0.46042496989667414,-0.0401043391123414,-0.14640636675357818
1772701735248802300,8.35580224609375,0.38502515325844283,0.014947686024010181,-0.18374387150108812
1772701735258851300,8.365851318359375,0.3488391566336155,0.05396335311681032,-0.09377835389375686
1772701735268899300,8.3758994140625,0.2684954538524151,-0.012431903810799122,0.04712240118086338
1772701735278947000,8.385947021484375,0.12672960638105868,-0.030726562175154685,0.1557598860323429
1772701735288996000,8.39599609375,-0.10412205325365066,-0.022643208962678907,0.154705993065238
1772701735299044000,8.406044189453125,-0.239058346965909,-0.03267243554592132,0.11099719972014427
1772701735309092400,8.41609228515625,-0.266675252687931,0.021035481505095956,0.09264321238398551
1772701735319141000,8.42614111328125,-0.3312234204441309,0.11138123060166835,0.15541384907364844
1772701735329189400,8.436189453125,-0.4042378032505512,0.24589286916106937,0.11996376550793647
1772701735339237000,8.446237060546874,-0.49747196726500986,0.29737960303127764,0.07665946131050587
1772701735349286400,8.456286376953125,-0.593644522818923,0.2567734518766403,0.057712184256315226
1772701735359334100,8.466334228515626,-0.7240478492766619,0.21875965530276298,0.07161912905573845
1772701735369382100,8.476382080078125,-0.8071557560741901,0.15263941592425107,0.05379296498596668
1772701735379430400,8.486430419921875,-0.687554978659749,-0.03537088084965944,0.01726443853378296
1772701735389479200,8.496479248046874,-0.5082207402944564,-0.26144787342846393,-0.03682195644080639
1772701735399527400,8.50652734375,-0.42110242881178855,-0.28581016126871106,-0.1324935767352581
1772701735409575200,8.5165751953125,-0.334035555255413,-0.2884472317740321,-0.22930501471459863
1772701735419624200,8.526624267578125,-0.13657646213471888,-0.2652776608496904,-0.2348836916297674
1772701735429672200,8.536672119140626,-0.009223755419254303,-0.19929829124659298,-0.2108686097919941
1772701735439720200,8.54672021484375,0.09504150569736956,-0.10664455746859311,-0.17394085488915442
1772701735449769200,8.556769287109375,0.1419090553343296,-0.08796791404932737,-0.16230127049982546
1772701735459817200,8.566817138671874,0.17939444411993025,-0.04920446815192699,-0.1202063420921564
1772701735469865000,8.576864990234375,0.19493045142590998,0.003063479223847389,-0.031124621582031248
1772701735479914200,8.586914306640624,0.2522434072315693,-0.023833295530080793,0.011755319723486899
1772701735489962000,8.5969619140625,0.2613350607037544,-0.06452507914155721,0.05087094005942344
1772701735500010200,8.60701025390625,0.22113865939378738,-0.11156593951880932,0.055613166150450706
1772701735510058200,8.617058349609374,0.13952011437118053,-0.10285948597192764,0.029741058269143104
1772701735520107300,8.627107177734375,0.061626142829656595,-0.051098319074511525,0.03634907823204994
1772701735530155300,8.6371552734375,-0.08790215533673763,-0.04021189114004373,0.09967559523880481
1772701735540203000,8.647203125,-0.1649544153571129,-0.006027005204558372,0.1828559827506542
1772701735550252300,8.657252197265626,-0.14608137258291243,0.08362754675745963,0.2843623005479574
1772701735560300000,8.667300048828125,-0.02908113305568695,0.09960311452448367,0.3580903845816851
1772701735570348300,8.677348388671875,0.006177227330207824,0.11317688184678554,0.3474526707112789
1772701735580397000,8.68739697265625,-0.16455109525322914,0.15008563978821038,0.2858323731005192
1772701735590445300,8.6974453125,0.16123919422626495,0.022620704869925973,0.08872165502607822
1772701735600493300,8.707493408203124,1.020072530567646,0.03632189796417951,-0.02767301982343197
1772701735610542300,8.717542236328125,-0.30374563093185425,0.11732669500261544,0.030786767929792402
1772701735620590300,8.72759033203125,-0.527056373667717,-0.1138970128148794,0.04687047224640846
1772701735630638000,8.73763818359375,-0.4991904616206884,-0.17157003410458563,0.07469079158604144
1772701735640687000,8.74768701171875,-0.38944881491959094,-0.2004506761521101,0.10954115569293499
1772701735650735000,8.757735107421874,-0.573847350937128,-0.20759762529730796,0.0050981999218463895
1772701735660783400,8.767783447265625,-0.6033534314066171,-0.22736527882367372,-0.024565701457858084
1772701735670831000,8.7778310546875,-0.3495563649922609,-0.1661860029786825,0.010394552764296532
1772701735680880400,8.78788037109375,0.10866612642407417,-0.12837854263186455,0.10634265191256999
