time,seconds_elapsed,z,y,x
1772701726951423500,0.058423583984375,-0.03731168434023857,-0.08594553172588348,0.11670983582735062
1772701726961471500,0.068471435546875,-0.050460509955883026,-0.028490230441093445,0.11256702244281769
1772701726971519500,0.07851953125,-0.05332394316792488,0.002822417998686433,0.1008342057466507
1772701726981568300,0.088568359375,-0.056410279124975204,0.023427028208971024,0.09510201215744019
1772701726991616500,0.098616455078125,-0.06326232850551605,0.03863288089632988,0.09232912957668304
1772701727001664500,0.10866455078125,-0.075119249522686,0.03303970769047737,0.07984503358602524
1772701727011713500,0.118713623046875,-0.0736401304602623,0.02731817401945591,0.06350573897361755
1772701727021761500,0.128761474609375,-0.07289870828390121,0.028742965310811996,0.0432654470205307
1772701727031809500,0.1388095703125,-0.07160814106464386,0.03940413147211075,0.02370612882077694
1772701727041857500,0.148857421875,-0.06537767499685287,0.03594095632433891,0.01991618424654007
1772701727051906300,0.15890625,-0.0637747198343277,0.02522040158510208,0.00660543842241168
1772701727061954600,0.16895458984375,-0.07648252695798874,-0.0044133905321359634,-0.020260529592633247
1772701727072002300,0.179002197265625,-0.08804357051849365,-0.001567802974022925,-0.03862089663743973
1772701727082051600,0.189051513671875,-0.08910510689020157,0.015660451725125313,-0.03738971799612045
1772701727092099300,0.199099365234375,-0.09330438077449799,0.03898122161626816,-0.03747227415442467
1772701727102147300,0.209147216796875,-0.08555325120687485,0.07241001725196838,-0.04518985003232956
1772701727112195600,0.219195556640625,-0.08352791517972946,0.07623804360628128,-0.06236324459314346
1772701727122244400,0.229244384765625,-0.10315807908773422,0.07924821972846985,-0.10092661529779434
1772701727132292600,0.239292724609375,-0.11969204246997833,0.14140187203884125,-0.15473978221416473
1772701727142340400,0.24934033203125,-0.135724276304245,0.15831133723258972,-0.19656631350517273
1772701727152388400,0.259388427734375,-0.15718615055084229,0.05179502069950104,-0.17855003476142883
1772701727162437400,0.269437255859375,-0.1573512703180313,-0.1056009978055954,-0.10537542402744293
1772701727172485400,0.2794853515625,-0.09705943614244461,-0.20797796547412872,-0.01284495834261179
1772701727182533400,0.289533447265625,-0.04345772787928581,-0.22936740517616272,0.05732826888561249
1772701727192582400,0.29958251953125,-0.014403440058231354,-0.18962238729000092,0.09222686290740967
1772701727202631200,0.309631103515625,-0.005259476602077484,-0.10913447290658951,0.09370438754558563
1772701727212679200,0.31967919921875,-0.004198207054287195,-0.02991555444896221,0.07085313647985458
1772701727222728200,0.329728271484375,-0.006857106927782297,0.009831058792769909,0.020595556125044823
1772701727232776200,0.339776123046875,-0.047272175550460815,0.09696942567825317,-0.048413071781396866
1772701727242824200,0.34982421875,-0.008477373979985714,-0.013006079941987991,-0.11646828800439835
1772701727252872200,0.3598720703125,0.011035873554646969,-0.17153766751289368,-0.10613974928855896
1772701727262921200,0.369921142578125,0.012833773158490658,-0.17874684929847717,-0.005547098349779844
1772701727272969200,0.37996923828125,0.0014860439114272594,-0.17098025977611542,0.058824967592954636
1772701727283017200,0.390017333984375,-0.017724402248859406,-0.07315943390130997,0.08154013007879257
1772701727293065000,0.40006494140625,-0.03359018266201019,0.058221761137247086,0.08329515904188156
1772701727303114200,0.4101142578125,-0.04465322196483612,0.17257896065711975,0.08630026876926422
1772701727313162000,0.420161865234375,-0.05359611660242081,0.19125810265541077,0.051261056214571
1772701727323210200,0.430210205078125,-0.04355759546160698,0.18220895528793335,0.02328028902411461
1772701727333259000,0.440259033203125,-0.023932762444019318,0.13768009841442108,0.0010793792316690087
1772701727343307300,0.450307373046875,-0.01398692186921835,0.10352879017591476,0.00339153571985662
1772701727353355300,0.460355224609375,0.005544168874621391,0.07348007708787918,0.01569693721830845
1772701727363403000,0.470403076171875,0.0006130596739239991,0.06690632551908493,0.030840735882520676
1772701727373452300,0.480452392578125,0.00794447585940361,0.09288013726472855,0.04918006435036659
1772701727383500000,0.4905,0.0030804784037172794,0.1351466327905655,0.07197805494070053
1772701727393548300,0.50054833984375,0.004677576012909412,0.1434173434972763,0.09349692612886429
1772701727403597000,0.51059716796875,0.03766535222530365,0.16715116798877716,0.08557642251253128
1772701727413645300,0.520645263671875,0.09085560590028763,0.20012617111206055,0.06775268167257309
1772701727423693000,0.530693115234375,0.1092710942029953,0.1709459125995636,0.06234726309776306
1772701727433742000,0.5407421875,0.09447057545185089,0.08738337457180023,0.08761081099510193
1772701727443790000,0.5507900390625,0.07157192379236221,0.003885818412527442,0.13326458632946014
1772701727453838000,0.560838134765625,0.047566987574100494,-0.04465561732649803,0.13519537448883057
1772701727463886300,0.57088623046875,0.027422569692134857,-0.03892343118786812,0.11353401839733124
1772701727473935000,0.58093505859375,0.019582755863666534,-0.0064863949082791805,0.07376264035701752
1772701727483983000,0.590983154296875,-0.032642364501953125,0.049250636249780655,0.040045686066150665
1772701727494031000,0.601031005859375,-0.10398605465888977,0.14185966551303864,-0.005164668429642916
1772701727504080100,0.611080078125,-0.16618844866752625,0.19504033029079437,-0.08677750825881958
1772701727514128100,0.621128173828125,-0.2363172024488449,0.2159498780965805,-0.1542513519525528
1772701727524176100,0.631176025390625,-0.35834643244743347,0.10550911724567413,-0.21446143090724945
1772701727534224400,0.641224365234375,-0.4926927983760834,-0.1697877049446106,-0.25373613834381104
1772701727544273200,0.651273193359375,-0.667381227016449,-0.470270037651062,-0.28748345375061035
1772701727554321200,0.661321044921875,-0.9070920944213867,-0.6449712514877319,-0.40957021713256836
1772701727564369200,0.671369140625,-1.1608684062957764,-0.5462217926979065,-0.5595474243164062
1772701727574418200,0.681418212890625,-1.3738411664962769,-0.2580864131450653,-0.7415090203285217
1772701727584466200,0.691466064453125,-1.4316070079803467,-0.025491777807474136,-0.9828822016716003
1772701727594514200,0.70151416015625,-1.3758454322814941,-0.15084916353225708,-1.2084554433822632
1772701727604562000,0.71156201171875,-1.3305509090423584,-0.7435628175735474,-1.2996524572372437
1772701727614611200,0.721611083984375,-1.3722240924835205,-1.693414330482483,-1.2216979265213013
1772701727624659000,0.731658935546875,-1.4964845180511475,-2.613075017929077,-1.1219193935394287
1772701727634707200,0.741707275390625,-1.6075819730758667,-3.106964111328125,-1.0995433330535889
1772701727644756000,0.751755859375,-1.672552227973938,-3.2884819507598877,-1.1219497919082642
1772701727654804200,0.76180419921875,-1.6104360818862915,-3.0438783168792725,-1.1730116605758667
1772701727664852200,0.771852294921875,-1.3754651546478271,-2.7022762298583984,-1.3198202848434448
1772701727674900000,0.78189990234375,-0.9552220702171326,-1.9051662683486938,-1.4353876113891602
1772701727684949200,0.79194921875,-0.4990958273410797,-0.1508675366640091,-1.2362407445907593
1772701727694997000,0.8019970703125,-0.11251962184906006,2.18436598777771,-0.748291015625
1772701727705045200,0.812045166015625,-0.16522358357906342,2.8494784832000732,-0.10160145908594131
1772701727715094000,0.822093994140625,-0.5877114534378052,2.048853635787964,0.659673273563385
1772701727725142300,0.832142333984375,-0.8176810145378113,1.0885889530181885,1.4078401327133179
1772701727735190300,0.842190185546875,-0.5868139863014221,0.2811232805252075,1.9543859958648682
1772701727745238000,0.852238037109375,0.04656616970896721,-0.26915475726127625,2.176189661026001
1772701727755287300,0.862287353515625,0.6754652857780457,-0.240292489528656,2.009711980819702
1772701727765335000,0.8723349609375,1.2294954061508179,0.2226589024066925,1.5385643243789673
1772701727775383300,0.88238330078125,1.638114333152771,0.5833705067634583,1.1487406492233276
1772701727785432000,0.89243212890625,1.788218379020691,0.7284946441650391,0.9959383606910706
1772701727795480300,0.902480224609375,1.6813029050827026,0.7686311602592468,0.9802486300468445
1772701727805528000,0.912528076171875,1.4306503534317017,0.7642723917961121,1.0058096647262573
1772701727815577300,0.922577392578125,1.175215482711792,0.7417548298835754,0.9665428996086121
1772701727825625000,0.932625,0.9574133157730103,0.5916973948478699,0.9954826831817627
1772701727835673000,0.942673095703125,0.8076145052909851,0.35164138674736023,1.101163625717163
1772701727845721300,0.952721435546875,0.6672094464302063,0.24999332427978516,1.148916482925415
1772701727855770000,0.96277001953125,0.5586987137794495,0.37906956672668457,1.1292670965194702
1772701727865818400,0.972818359375,0.48833638429641724,0.5921661257743835,1.0656734704971313
1772701727875866000,0.9828662109375,0.41192495822906494,0.7694903016090393,1.0281095504760742
1772701727885914000,0.9929140625,0.3068925738334656,0.8034272193908691,1.0280143022537231
1772701727895963100,1.002963134765625,0.154031902551651,0.7841635346412659,1.0280864238739014
1772701727906011100,1.01301123046875,-0.03652232512831688,0.7925596833229065,0.9920676946640015
1772701727916059100,1.02305908203125,-0.1991458535194397,0.8549032211303711,0.9158235192298889
1772701727926108200,1.033108154296875,-0.27193164825439453,0.9115784764289856,0.8028296232223511
1772701727936156200,1.04315625,-0.25568264722824097,0.908491313457489,0.6573339104652405
1772701727946204200,1.0532041015625,-0.21322518587112427,0.8655843138694763,0.5159019827842712
1772701727956253000,1.0632529296875,-0.17408551275730133,0.8419296145439148,0.4222542941570282
1772701727966301200,1.07330126953125,-0.13428989052772522,0.7711667418479919,0.36415132880210876
1772701727976349200,1.08334912109375,-0.12198396027088165,0.7276507019996643,0.3367937207221985
1772701727986397200,1.093397216796875,-0.14293771982192993,0.6935523748397827,0.308357834815979
1772701727996446200,1.1034462890625,-0.21608489751815796,0.5093146562576294,0.22518545389175415
1772701728006494000,1.113493896484375,-0.3202219605445862,0.22202107310295105,0.08572475612163544
1772701728016542200,1.123542236328125,-0.37396401166915894,-0.013821006752550602,-0.0570550300180912
1772701728026591000,1.133591064453125,-0.3911198377609253,-0.22887100279331207,-0.1880796253681183
1772701728036639200,1.14363916015625,-0.42420053482055664,-0.35625213384628296,-0.2872741222381592
1772701728046687200,1.153687255859375,-0.5151858329772949,-0.2886408567428589,-0.34124013781547546
1772701728056735200,1.1637353515625,-0.6295111179351807,-0.022130336612462997,-0.3926825523376465
1772701728066784300,1.1737841796875,-0.7177613377571106,0.5242456793785095,-0.4206303060054779
1772701728076832000,1.18383203125,-0.8402153253555298,1.245099663734436,-0.37575045228004456
1772701728086880300,1.19388037109375,-1.1281059980392456,1.7982758283615112,-0.6162088513374329
1772701728096929000,1.203928955078125,-2.094892978668213,1.7765984535217285,-1.306713581085205
1772701728106977300,1.213977294921875,-3.35554575920105,1.6464968919754028,-1.776181697845459
1772701728117025000,1.22402490234375,-3.586975336074829,0.5821390748023987,-1.4775071144104004
1772701728127073000,1.234072998046875,-2.6268117427825928,-1.5798121690750122,-0.7159005999565125
1772701728137122000,1.2441220703125,-1.490605354309082,-3.370370388031006,-0.3520491123199463
1772701728147170000,1.254170166015625,0.11067698150873184,-3.935046672821045,-0.277871310710907
1772701728157218300,1.26421826171875,1.7022079229354858,-3.2779922485351562,-0.3385967016220093
1772701728167267000,1.27426708984375,2.4711925983428955,-1.9104915857315063,-0.5717614889144897
1772701728177315300,1.2843154296875,2.5342156887054443,-0.493586003780365,-0.7116917371749878
1772701728187363000,1.294363037109375,2.1544337272644043,0.4881736636161804,-0.4985341727733612
1772701728197412600,1.30441259765625,1.6697660684585571,1.031602382659912,-0.12666606903076172
1772701728207460400,1.31446044921875,1.220740556716919,1.2354220151901245,0.21534320712089539
1772701728217508600,1.324508544921875,0.7966870069503784,1.1634610891342163,0.41783931851387024
1772701728227556400,1.334556396484375,0.36814820766448975,0.9093320965766907,0.5269788503646851
1772701728237605400,1.34460546875,0.014764032326638699,0.5896142721176147,0.6368348002433777
1772701728247653400,1.3546533203125,-0.18290989100933075,0.2832586169242859,0.7726501226425171
1772701728257701400,1.364701416015625,-0.1969974935054779,0.10752566158771515,0.8427743911743164
1772701728267750400,1.37475048828125,-0.07619357109069824,0.09212673455476761,0.7892738580703735
1772701728277798400,1.38479833984375,0.11232814192771912,0.1292189657688141,0.631440281867981
1772701728287846700,1.3948466796875,0.2909037470817566,0.1415582001209259,0.4018494188785553
1772701728297894400,1.404894287109375,0.4517919719219208,0.1344800442457199,0.19117236137390137
1772701728307943400,1.414943359375,0.5277551412582397,0.10943993926048279,0.04153332859277725
1772701728317991400,1.424991455078125,0.48685646057128906,0.04423537105321884,-0.04604339227080345
1772701728328039400,1.435039306640625,0.4154965281486511,-0.1204419955611229,-0.03044685535132885
1772701728338088400,1.44508837890625,0.32600659132003784,-0.23023799061775208,0.040350619703531265
1772701728348136400,1.455136474609375,0.22406771779060364,-0.20730765163898468,0.0835484191775322
1772701728358184400,1.465184326171875,0.13520842790603638,-0.04219139739871025,0.13445314764976501
1772701728368232400,1.475232421875,0.07801330834627151,0.2778337597846985,0.20027503371238708
1772701728378281500,1.485281494140625,0.023264842107892036,0.6836206912994385,0.28885790705680847
1772701728388329500,1.49532958984375,-0.020798489451408386,1.0264605283737183,0.36733245849609375
1772701728398377500,1.50537744140625,-0.04767537862062454,1.2355961799621582,0.3956458568572998
1772701728408426500,1.515426513671875,-0.06211423873901367,1.3640263080596924,0.37550464272499084
1772701728418474500,1.525474609375,-0.10668330639600754,1.3648937940597534,0.3128125071525574
1772701728428522200,1.535522216796875,-0.19661211967468262,1.2606701850891113,0.21855977177619934
1772701728438570500,1.545570556640625,-0.32690781354904175,1.1045372486114502,0.05789818614721298
1772701728448619300,1.555619384765625,-0.5133695602416992,0.8771485686302185,-0.1927470862865448
1772701728458667500,1.56566748046875,-0.6741054654121399,0.7028987407684326,-0.5188834071159363
1772701728468715500,1.575715576171875,-0.8296135663986206,0.6066750288009644,-0.7894818782806396
1772701728478764500,1.5857646484375,-1.0092687606811523,0.5010830760002136,-0.9372566342353821
1772701728488812500,1.5958125,-1.129887580871582,0.3837548494338989,-1.0256829261779785
1772701728498860300,1.6058603515625,-1.1453685760498047,0.2795829176902771,-1.1439882516860962
1772701728508908500,1.615908447265625,-1.1893384456634521,0.00782703049480915,-1.3739557266235352
1772701728518957300,1.625957275390625,-1.3408414125442505,-0.699199378490448,-1.704298973083496
1772701728529005600,1.636005615234375,-1.54707932472229,-1.477918267250061,-1.992777705192566
1772701728539053600,1.646053466796875,-1.705664873123169,-1.9473893642425537,-2.1375272274017334
1772701728549102600,1.6561025390625,-1.7808539867401123,-2.307677984237671,-2.1742587089538574
1772701728559150300,1.666150390625,-1.7953509092330933,-2.682424783706665,-2.152728319168091
1772701728569198300,1.6761982421875,-1.6597975492477417,-2.76584529876709,-2.0226261615753174
1772701728579246600,1.68624658203125,-1.2689152956008911,-2.457836389541626,-1.7550641298294067
1772701728589295400,1.69629541015625,-0.6696318984031677,-1.7878974676132202,-1.2906222343444824
1772701728599343600,1.706343505859375,-0.024695759639143944,-1.1425442695617676,-0.7010068297386169
1772701728609391400,1.716391357421875,0.42014801502227783,-0.768609344959259,-0.09892125427722931
1772701728619440600,1.726440673828125,0.6186057329177856,-0.751664936542511,0.5151123404502869
1772701728629488400,1.73648828125,0.6989410519599915,-1.1924508810043335,1.2177942991256714
1772701728639536400,1.746536376953125,0.7657948732376099,-1.8851600885391235,2.012174606323242
1772701728649585400,1.75658544921875,0.7549643516540527,-2.2213077545166016,2.6322684288024902
1772701728659633400,1.76663330078125,0.6557381749153137,-1.6468596458435059,2.689265727996826
1772701728669681700,1.776681640625,0.5654088258743286,-0.550211489200592,2.4425573348999023
1772701728679729400,1.7867294921875,0.5241205096244812,0.4603140652179718,2.079245090484619
1772701728689778700,1.79677880859375,0.5359654426574707,1.2301268577575684,1.7059451341629028
1772701728699826400,1.806826416015625,0.6241248250007629,1.9852560758590698,1.433542013168335
1772701728709874400,1.81687451171875,0.8234683275222778,2.6661717891693115,1.295360803604126
1772701728719923500,1.82692333984375,1.0916608572006226,3.159421682357788,1.24089515209198
1772701728729971500,1.836971435546875,1.3040567636489868,3.4337358474731445,1.2734296321868896
1772701728740019500,1.84701953125,1.453269362449646,3.3807718753814697,1.426893711090088
1772701728750067500,1.8570673828125,1.596705436706543,3.178860664367676,1.6839306354522705
1772701728760116200,1.8671162109375,1.7154901027679443,3.1674141883850098,1.9424412250518799
1772701728770164500,1.87716455078125,1.8347309827804565,3.3044464588165283,2.073136329650879
1772701728780212500,1.88721240234375,1.9517279863357544,3.4995806217193604,1.939589262008667
1772701728790261500,1.897261474609375,2.0573275089263916,3.7284185886383057,1.6800473928451538
1772701728800309500,1.9073095703125,2.1438710689544678,3.828747272491455,1.260243535041809
1772701728810357200,1.917357177734375,2.094852924346924,3.7164902687072754,0.6859261393547058
1772701728820405500,1.927405517578125,1.9425243139266968,3.5501930713653564,0.03244182839989662
1772701728830454300,1.937454345703125,1.813623309135437,3.381458282470703,-0.535271942615509
1772701728840502500,1.94750244140625,1.7325308322906494,3.0694451332092285,-0.8999204635620117
1772701728850550500,1.957550537109375,1.638015866279602,2.3192429542541504,-1.065787434577942
1772701728860599600,1.967599609375,1.4059759378433228,1.2539411783218384,-0.9417645931243896
1772701728870647600,1.9776474609375,0.9471532106399536,0.2950785160064697,-0.5602478384971619
1772701728880695300,1.9876953125,0.3685324788093567,-0.7058830857276917,-0.04477812349796295
1772701728890743600,1.99774365234375,-0.21230639517307281,-1.8247401714324951,0.4241640567779541
1772701728900792300,2.007792236328125,-0.6392790079116821,-2.8861894607543945,0.7301599383354187
1772701728910840600,2.017840576171875,-0.8340173363685608,-3.7036612033843994,0.8786543607711792
1772701728920888300,2.027888427734375,-0.8956977725028992,-4.1917500495910645,0.8263527750968933
1772701728930937600,2.0379375,-0.9442642331123352,-4.359357833862305,0.542069673538208
1772701728940985300,2.0479853515625,-1.1368573904037476,-4.196537971496582,0.02406698651611805
1772701728951033300,2.058033447265625,-1.4732152223587036,-3.7312281131744385,-0.5766012668609619
1772701728961081600,2.06808154296875,-1.7518867254257202,-3.4308860301971436,-1.1096729040145874
1772701728971130400,2.07813037109375,-1.9130338430404663,-3.475675106048584,-1.438616394996643
1772701728981178600,2.0881787109375,-1.8889015913009644,-3.745251417160034,-1.4937182664871216
1772701728991226400,2.098226318359375,-1.5750278234481812,-4.048945426940918,-1.4713081121444702
1772701729001275600,2.108275634765625,-0.9507181644439697,-3.8253633975982666,-1.4789124727249146
1772701729011323400,2.118323486328125,-0.3634850084781647,-2.277984380722046,-1.6151092052459717
1772701729021371400,2.128371337890625,-0.9546907544136047,-0.1521056443452835,-2.1196961402893066
1772701729031420400,2.13842041015625,-2.6767449378967285,0.6110231876373291,-2.7552199363708496
1772701729041468400,2.148468505859375,-4.452668190002441,-0.03403812646865845,-3.109572410583496
1772701729051516400,2.158516357421875,-5.511789798736572,-0.7220261096954346,-3.0668857097625732
1772701729061564400,2.168564453125,-5.525184631347656,-0.8976932764053345,-2.8471124172210693
1772701729071613400,2.178613525390625,-4.801488876342773,-1.4012677669525146,-2.4345881938934326
1772701729081661400,2.188661376953125,-3.212207794189453,-2.6917777061462402,-1.478273630142212
1772701729091709400,2.19870947265625,-1.8894331455230713,-3.0268168449401855,-0.8766026496887207
1772701729101758500,2.208758544921875,-0.49986493587493896,-1.890655755996704,-0.7538594007492065
1772701729111806500,2.218806396484375,1.090728759765625,-0.7403039336204529,-0.54902184009552
1772701729121854500,2.2288544921875,1.9893122911453247,0.013941914774477482,-0.1152629405260086
1772701729131902500,2.23890234375,2.316152811050415,0.09533530473709106,0.29188272356987
1772701729141951500,2.248951416015625,2.3927247524261475,0.3354054391384125,0.40012022852897644
1772701729151999500,2.25899951171875,2.3398377895355225,0.636603593826294,0.44300806522369385
1772701729162047500,2.269047607421875,2.077134609222412,0.8437293767929077,0.5215252637863159
1772701729172096500,2.279096435546875,1.6106598377227783,0.786320686340332,0.6844723224639893
1772701729182144500,2.28914453125,0.9667804837226868,0.4595729112625122,0.9680622220039368
1772701729192192500,2.299192626953125,0.3844859004020691,0.18568038940429688,1.0650527477264404
1772701729202240000,2.309239990234375,0.012967197224497795,0.10460550338029861,0.8017646074295044
1772701729212288800,2.319288818359375,-0.24160489439964294,0.1362377256155014,0.3698424994945526
1772701729222337000,2.3293369140625,-0.45949888229370117,0.20311769843101501,-0.00042344260145910084
1772701729232385000,2.339385009765625,-0.568597674369812,0.29360073804855347,-0.19435270130634308
1772701729242434000,2.34943408203125,-0.6294364929199219,0.448006272315979,-0.2905910909175873
1772701729252482000,2.35948193359375,-0.5970777869224548,0.5783160924911499,-0.2891013026237488
1772701729262529800,2.36952978515625,-0.4736804664134979,0.6571919918060303,-0.20287561416625977
1772701729272578000,2.379578125,-0.3144652545452118,0.6408284306526184,-0.0902196392416954
1772701729282626800,2.389626708984375,-0.1821008324623108,0.5349107980728149,-0.010729343630373478
1772701729292675000,2.399675048828125,-0.08200725167989731,0.4372159540653229,0.0202791728079319
1772701729302722800,2.409722900390625,0.01817847043275833,0.4248106777667999,0.0570230707526207
1772701729312772000,2.419772216796875,0.079865001142025,0.43737199902534485,0.1416545957326889
1772701729322819800,2.42981982421875,0.07242625951766968,0.5682780742645264,0.1088857352733612
1772701729332867800,2.439867919921875,0.11817590892314911,0.6447259783744812,0.0323219858109951
1772701729342916900,2.449916748046875,0.1908240169286728,0.621279776096344,0.02292342483997345
1772701729352964900,2.45996484375,0.29985567927360535,0.5205934047698975,0.07703832536935806
1772701729363013000,2.47001318359375,0.42279067635536194,0.4287947714328766,0.17386101186275482
1772701729373060900,2.480060791015625,0.5265197157859802,0.47194355726242065,0.2421676218509674
1772701729383110100,2.490110107421875,0.5533177852630615,0.7854871153831482,0.1592189520597458
1772701729393158000,2.500157958984375,0.6000298857688904,1.1586263179779053,-0.029869215562939644
1772701729403206000,2.510205810546875,0.6723472476005554,1.369279146194458,-0.1940501630306244
1772701729413255000,2.5202548828125,0.6917643547058105,1.296657919883728,-0.2800348401069641
1772701729423303000,2.530302978515625,0.6187093257904053,0.9867456555366516,-0.26424816250801086
1772701729433351000,2.540350830078125,0.445578008890152,0.5442691445350647,-0.21418313682079315
1772701729443399000,2.55039892578125,0.3310231864452362,0.095545694231987,-0.20875880122184753
1772701729453448000,2.560447998046875,0.2403244525194168,-0.22368928790092468,-0.31403303146362305
1772701729463496000,2.570495849609375,0.20075680315494537,-0.3667239248752594,-0.5088901519775391
1772701729473544000,2.5805439453125,0.2140185534954071,-0.4676143229007721,-0.6808592081069946
1772701729483593000,2.590593017578125,0.23168408870697021,-0.6007897257804871,-0.6932863593101501
1772701729493641000,2.600640869140625,0.24582761526107788,-0.7068663239479065,-0.5528922080993652
1772701729503689000,2.61068896484375,0.21322838962078094,-0.8540043830871582,-0.2756078839302063
1772701729513737000,2.620737060546875,0.060514211654663086,-0.9554937481880188,0.06512334197759628
1772701729523786000,2.630785888671875,-0.19984547793865204,-1.0285812616348267,0.25313079357147217
1772701729533834000,2.640833984375,-0.5214940905570984,-1.3010390996932983,0.3038214147090912
1772701729543882000,2.650882080078125,-0.8341673016548157,-1.5281540155410767,0.1685168445110321
1772701729553931000,2.660930908203125,-1.0678369998931885,-1.550999402999878,-0.0840296596288681
1772701729563979000,2.67097900390625,-1.0817112922668457,-1.3871828317642212,-0.2818087935447693
1772701729574027000,2.681027099609375,-0.9444085955619812,-1.2883145809173584,-0.42468178272247314
1772701729584075000,2.691074951171875,-0.8583242893218994,-1.3495731353759766,-0.6049585938453674
1772701729594123800,2.701123779296875,-0.9636216759681702,-1.3933030366897583,-1.0184558629989624
1772701729604172000,2.711172119140625,-1.0987517833709717,-1.5750703811645508,-1.5891833305358887
1772701729614219800,2.7212197265625,-0.8844605684280396,-2.9214859008789062,-1.4496451616287231
1772701729624269000,2.73126904296875,-0.18101026117801666,-4.968201637268066,-0.3157888650894165
1772701729634316800,2.74131689453125,0.8273349404335022,-6.07247257232666,1.1233911514282227
1772701729644364800,2.75136474609375,1.769538164138794,-5.147956371307373,2.0623557567596436
1772701729654413000,2.7614130859375,2.348390817642212,-1.9489002227783203,2.119279146194458
1772701729664461800,2.7714619140625,2.2970921993255615,1.478816032409668,1.8784878253936768
1772701729674510000,2.781510009765625,1.7959964275360107,3.2528884410858154,1.9756460189819336
1772701729684557800,2.791557861328125,1.4135379791259766,3.7870733737945557,2.303675889968872
1772701729694607000,2.801607177734375,1.166434407234192,3.904301166534424,2.717928647994995
1772701729704654800,2.81165478515625,1.0186140537261963,4.238987922668457,2.991184711456299
1772701729714702800,2.821702880859375,0.9755023121833801,4.7912678718566895,2.966432809829712
1772701729724752000,2.831751953125,1.0808295011520386,5.43082332611084,2.5759572982788086
1772701729734800000,2.8417998046875,1.2547099590301514,6.008756160736084,1.8328598737716675
1772701729744848100,2.85184814453125,1.3442920446395874,6.2096076011657715,0.9926261901855469
1772701729754896000,2.861895751953125,1.3545100688934326,5.617767810821533,0.42453449964523315
1772701729764945200,2.871945068359375,1.3306190967559814,4.768494129180908,0.07817176729440689
1772701729774993000,2.881992919921875,1.3993324041366577,3.883476972579956,-0.030233535915613174
1772701729785041000,2.892041015625,1.4898455142974854,2.9588851928710938,-0.04352084547281265
1772701729795090000,2.90208984375,1.5337415933609009,2.077352285385132,-0.04567853733897209
1772701729805138000,2.912137939453125,1.5397536754608154,0.9553272724151611,-0.0009888317435979843
1772701729815186000,2.92218603515625,1.4245842695236206,-0.3925382196903229,0.06945230811834335
1772701729825234000,2.93223388671875,1.2172232866287231,-1.601715326309204,0.15109097957611084
1772701729835283000,2.942282958984375,1.0752350091934204,-2.3881149291992188,0.20313793420791626
1772701729845331000,2.9523310546875,1.014892578125,-2.7630856037139893,0.18614830076694489
1772701729855379000,2.96237890625,0.961384117603302,-2.9576611518859863,0.12629163265228271
1772701729865428000,2.972427978515625,0.8218815922737122,-3.032844305038452,0.03936205431818962
1772701729875476000,2.98247607421875,0.5117501020431519,-3.0758869647979736,-0.06145084276795387
1772701729885524000,2.99252392578125,0.07835845649242401,-3.1543774604797363,-0.2376069575548172
1772701729895572000,3.002572021484375,-0.31257548928260803,-3.065706968307495,-0.4493144154548645
1772701729905621000,3.01262109375,-0.6107211709022522,-2.8994550704956055,-0.6711483001708984
1772701729915669000,3.0226689453125,-0.8028032183647156,-2.783539056777954,-0.8128883838653564
1772701729925717000,3.032717041015625,-0.8121565580368042,-2.424339532852173,-0.9024488925933838
1772701729935766000,3.04276611328125,-0.4556758999824524,-1.5302273035049438,-0.9679901003837585
1772701729945814000,3.05281396484375,-0.2136899083852768,-0.7967014312744141,-0.778099775314331
1772701729955862000,3.062862060546875,-0.4812222719192505,-0.9037714004516602,-0.47336941957473755
1772701729965910000,3.072909912109375,-1.0932121276855469,-1.526559591293335,-0.26305320858955383
1772701729975959000,3.082958984375,-1.7922863960266113,-2.4650490283966064,-0.2089518904685974
1772701729986007000,3.093007080078125,-2.4373435974121094,-3.3790664672851562,-0.5746771097183228
1772701729996054800,3.1030546875,-3.0358810424804688,-3.9885494709014893,-1.33720064163208
1772701730006104000,3.11310400390625,-3.71744441986084,-4.369214057922363,-2.410525321960449
1772701730016151800,3.12315185546875,-4.06195592880249,-4.44151496887207,-3.6374897956848145
1772701730026200000,3.133199951171875,-3.8824539184570312,-4.244428634643555,-5.011000156402588
1772701730036248800,3.143248779296875,-3.5215229988098145,-4.057385444641113,-6.750377178192139
1772701730046296800,3.153296875,-3.317020893096924,-4.600265026092529,-8.785013198852539
1772701730056345000,3.163344970703125,-3.4921274185180664,-6.028906345367432,-10.326099395751953
1772701730066392800,3.173392822265625,-3.2220816612243652,-7.731829643249512,-9.15961742401123
1772701730076442000,3.183442138671875,-2.4817044734954834,-8.217735290527344,-5.879535675048828
1772701730086489900,3.19348974609375,-0.41207465529441833,-8.68012809753418,-2.245374917984009
1772701730096538000,3.2035380859375,0.5593641996383667,-7.348272323608398,1.1890984773635864
1772701730106587000,3.2135869140625,1.1296758651733398,-3.7066311836242676,2.644968271255493
1772701730116635000,3.223634765625,1.8478270769119263,-0.2742381989955902,2.2970070838928223
1772701730126683000,3.233682861328125,1.4629329442977905,1.6393910646438599,1.8509116172790527
1772701730136731000,3.24373095703125,0.8199763894081116,1.85299551486969,2.0535478591918945
1772701730146780000,3.25377978515625,0.6942365765571594,1.3856616020202637,2.4627187252044678
1772701730156828000,3.263827880859375,1.0118496417999268,1.26789128780365,2.8163270950317383
1772701730166876000,3.2738759765625,1.5316835641860962,1.421664834022522,3.0596883296966553
1772701730176925000,3.283925048828125,1.7790586948394775,1.4149153232574463,3.1060614585876465
1772701730186973000,3.293972900390625,1.6593810319900513,1.2590701580047607,2.8697452545166016
1772701730197021000,3.30402099609375,1.350972056388855,0.9688798189163208,2.413670778274536
1772701730207069000,3.31406884765625,0.9341967105865479,0.577405571937561,1.7650939226150513
1772701730217118000,3.324117919921875,0.4985607862472534,0.17852473258972168,1.051862359046936
1772701730227166000,3.334166015625,0.20092138648033142,-0.09736836701631546,0.4159165024757385
1772701730237214000,3.3442138671875,0.20677848160266876,-0.1215788945555687,0.03496730327606201
1772701730247263000,3.354262939453125,0.41162270307540894,0.1172853484749794,-0.14406102895736694
1772701730257311000,3.36431103515625,0.5665528774261475,0.42386019229888916,-0.20973698794841766
1772701730267359000,3.37435888671875,0.6206150650978088,0.6613616943359375,-0.13763722777366638
1772701730277408000,3.384407958984375,0.6359825730323792,0.7187339067459106,0.10209361463785172
1772701730287456000,3.3944560546875,0.6675444841384888,0.720727264881134,0.488278865814209
1772701730297504000,3.40450390625,0.7392221689224243,0.7650095224380493,0.9834502339363098
1772701730307551700,3.4145517578125,0.8365254998207092,0.9541613459587097,1.5969568490982056
1772701730317601000,3.42460107421875,0.9514001607894897,1.2271568775177002,2.2840805053710938
1772701730327648800,3.434648681640625,1.0586727857589722,1.385786533355713,2.8951375484466553
1772701730337697000,3.444697021484375,1.1783009767532349,1.4136844873428345,3.263622760772705
1772701730347745800,3.454745849609375,1.365536093711853,1.0922744274139404,3.475881338119507
1772701730357794000,3.4647939453125,1.583554744720459,0.7603034377098083,3.551330327987671
1772701730367842000,3.474842041015625,1.6922612190246582,0.7501783967018127,3.4863550662994385
1772701730377889800,3.484889892578125,1.7586634159088135,1.0761988162994385,3.241105794906616
1772701730387939000,3.49493896484375,1.5941722393035889,1.554510235786438,2.3933634757995605
1772701730397986800,3.50498681640625,0.9971900582313538,1.7773020267486572,0.8826570510864258
1772701730408035000,3.51503515625,-0.031318772584199905,1.3725396394729614,-0.5440585017204285
1772701730418083800,3.525083740234375,-0.5817222595214844,0.7100242972373962,-0.7165929675102234
1772701730428132000,3.535132080078125,-0.5077119469642639,0.3920346200466156,-0.3884286880493164
1772701730438180000,3.54518017578125,-0.34851589798927307,0.12855210900306702,-0.24822045862674713
1772701730448227800,3.555227783203125,-0.32251039147377014,-0.18110160529613495,-0.3038802742958069
1772701730458276900,3.56527685546875,-0.4621575176715851,-0.6416913270950317,-0.4746038019657135
1772701730468324900,3.575324951171875,-0.6805585622787476,-1.258234977722168,-0.7346771955490112
1772701730478373000,3.585373046875,-0.8151866793632507,-1.8520410060882568,-0.9812129139900208
1772701730488422000,3.595421875,-0.841086208820343,-2.2381975650787354,-1.0810418128967285
1772701730498470100,3.60547021484375,-0.9007478952407837,-2.578352689743042,-1.1059281826019287
1772701730508518000,3.615517822265625,-0.9528843760490417,-2.89943265914917,-0.9808856248855591
1772701730518567000,3.62556689453125,-0.9562913179397583,-3.1346490383148193,-0.5741586089134216
1772701730528615000,3.635614990234375,-0.9237725734710693,-2.974487781524658,-0.07666707783937454
1772701730538663000,3.645662841796875,-0.8501755595207214,-2.174515724182129,0.12750868499279022
1772701730548711200,3.655711181640625,-0.7627841830253601,-1.0510854721069336,0.01738112047314644
1772701730558760000,3.665760009765625,-0.7975120544433594,-0.25938284397125244,-0.026873959228396416
1772701730568808000,3.675807861328125,-0.9878620505332947,0.00824727676808834,-0.09699578583240509
1772701730578856000,3.68585595703125,-1.118370771408081,-0.30854904651641846,-0.19472287595272064
1772701730588905000,3.695905029296875,-1.1695884466171265,-0.8612271547317505,-0.2795834541320801
1772701730598953000,3.705952880859375,-1.150281310081482,-1.0271708965301514,-0.4058460295200348
1772701730609001000,3.7160009765625,-1.006976842880249,-0.5342530012130737,-0.4804587662220001
1772701730619049000,3.726049072265625,-0.7394663691520691,0.02930036373436451,-0.25453323125839233
1772701730629098000,3.736097900390625,-0.47654151916503906,0.31828954815864563,0.34418535232543945
1772701730639145700,3.746145751953125,-0.374968022108078,1.141154170036316,1.0107245445251465
1772701730649194000,3.756194091796875,-0.18302014470100403,1.6409096717834473,1.4670933485031128
1772701730659242800,3.76624267578125,0.020802482962608337,1.4224302768707275,1.7593510150909424
1772701730669291000,3.776291015625,0.12138581275939941,1.4534353017807007,1.8672425746917725
1772701730679339000,3.786339111328125,0.1799338161945343,1.730967402458191,1.7123403549194336
1772701730689388000,3.796387939453125,0.1930466890335083,1.6383413076400757,1.4318948984146118
1772701730699436000,3.80643603515625,0.2299509048461914,1.2555936574935913,1.1705290079116821
1772701730709483800,3.81648388671875,0.3408665060997009,0.9254615306854248,0.947642982006073
1772701730719532000,3.826531982421875,0.5540781021118164,0.7725449204444885,0.7200316786766052
1772701730729580800,3.836580810546875,0.8297259211540222,0.8122646808624268,0.5176652669906616
1772701730739629000,3.846629150390625,1.0782278776168823,0.9995208382606506,0.34532251954078674
1772701730749677000,3.856677001953125,1.3340167999267578,1.2481261491775513,0.1520254909992218
1772701730759726000,3.86672607421875,1.4842678308486938,1.6853700876235962,-0.14130786061286926
1772701730769774000,3.876774169921875,1.5069611072540283,2.18595552444458,-0.4850519001483917
1772701730779821800,3.88682177734375,1.4109184741973877,2.485433578491211,-0.7877300381660461
1772701730789870000,3.8968701171875,1.2477666139602661,2.501052141189575,-0.979021430015564
1772701730799918800,3.9069189453125,1.0260485410690308,2.2560651302337646,-0.9459526538848877
1772701730809967000,3.916967041015625,0.7706221342086792,1.6947212219238281,-0.6495670676231384
1772701730820014800,3.927014892578125,0.5093995928764343,0.8705841302871704,-0.19477029144763947
1772701730830064000,3.937064208984375,0.23023374378681183,0.12761548161506653,0.1316070258617401
1772701730840111900,3.94711181640625,-0.07762555032968521,-0.2068684995174408,0.0653260126709938
1772701730850159900,3.957159912109375,-0.4011540710926056,0.0029049760196357965,-0.36123916506767273
1772701730860208000,3.9672080078125,-0.7003892660140991,0.6292487382888794,-0.9810947179794312
1772701730870257000,3.9772568359375,-0.9481013417243958,1.4292213916778564,-1.3475160598754883
1772701730880305200,3.98730517578125,-1.0881681442260742,2.035722494125366,-1.3040682077407837
1772701730890353000,3.997352783203125,-0.9879350066184998,2.115938425064087,-1.0253745317459106
1772701730900402000,4.00740185546875,-0.6959202289581299,1.691017746925354,-0.6468509435653687
1772701730910450000,4.017449951171875,-0.315085768699646,0.9590559601783752,-0.27942392230033875
1772701730920498000,4.027497802734375,-0.06334914267063141,0.12412407994270325,-0.04288488253951073
1772701730930546000,4.0375458984375,-0.010581005364656448,-0.47281813621520996,0.0819406732916832
1772701730940595000,4.047594970703125,-0.0763365849852562,-0.9438080191612244,0.0908510759472847
1772701730950643000,4.057642822265625,-0.19714821875095367,-1.4776133298873901,0.020725518465042114
1772701730960691000,4.06769091796875,-0.33414122462272644,-2.0362741947174072,-0.16415804624557495
1772701730970740000,4.077739990234375,-0.42062872648239136,-2.6252644062042236,-0.350911408662796
1772701730980788000,4.0877880859375,-0.40979790687561035,-3.408748149871826,-0.3528352975845337
1772701730990836000,4.0978359375,-0.19697724282741547,-4.533746242523193,-0.058819908648729324
1772701731000884000,4.107884033203125,0.26633021235466003,-6.16090202331543,0.6734703183174133
1772701731010933000,4.11793310546875,0.8041569590568542,-7.472305774688721,1.6225948333740234
1772701731020980700,4.127980712890625,1.1039226055145264,-7.823018550872803,2.1877071857452393
1772701731031029000,4.138029052734375,1.1415245532989502,-7.567956447601318,2.536125898361206
1772701731041077800,4.148077880859375,1.1620831489562988,-5.539154529571533,2.626434564590454
1772701731051126000,4.1581259765625,1.349770426750183,-0.7827475070953369,2.2135825157165527
1772701731061174000,4.168174072265625,1.4104136228561401,5.780523300170898,1.5622971057891846
1772701731071223000,4.17822314453125,1.135776162147522,9.925004959106445,0.5418888330459595
1772701731081271000,4.18827099609375,0.3502357602119446,9.703180313110352,-0.2941693067550659
1772701731091318800,4.19831884765625,0.14708638191223145,6.479732513427734,-0.48923492431640625
1772701731101367000,4.208366943359375,0.27451491355895996,3.379760503768921,-0.35137853026390076
1772701731111415800,4.218415771484375,0.3217109143733978,1.1367404460906982,-0.11160722374916077
1772701731121464000,4.228464111328125,0.3922351598739624,0.35123419761657715,0.12024465203285217
1772701731131511800,4.23851171875,0.36414864659309387,-0.007710916455835104,0.27821671962738037
1772701731141561000,4.24856103515625,0.2730802595615387,-0.24808889627456665,0.42452144622802734
1772701731151608800,4.25860888671875,0.10949213802814484,-0.8303584456443787,0.5286129713058472
1772701731161656800,4.26865673828125,-0.052799031138420105,-1.6794480085372925,0.4828316271305084
1772701731171705000,4.278705078125,-0.16137424111366272,-2.3733701705932617,0.3528033196926117
1772701731181753900,4.28875390625,-0.24848730862140656,-2.6081933975219727,0.13352343440055847
1772701731191802000,4.298802001953125,-0.18559755384922028,-2.62212872505188,-0.12244442105293274
1772701731201849900,4.308849853515625,-0.05001682788133621,-2.5053365230560303,-0.3326365351676941
1772701731211899000,4.31889892578125,0.08731386810541153,-2.3873543739318848,-0.5198445320129395
1772701731221946600,4.328946533203125,0.193629652261734,-2.311769485473633,-0.6994166970252991
1772701731231995000,4.338994873046875,0.23450012505054474,-2.2417118549346924,-0.817491352558136
1772701731242043600,4.349043701171875,0.2169078141450882,-2.117108106613159,-0.8386174440383911
1772701731252092000,4.359091796875,0.1843743622303009,-1.886155605316162,-0.7535400986671448
1772701731262140000,4.369139892578125,0.1187378317117691,-1.4356461763381958,-0.5544352531433105
1772701731272187600,4.379187744140625,-0.03677665814757347,-0.792683482170105,-0.322966068983078
1772701731282237000,4.38923681640625,-0.14139920473098755,-0.15780401229858398,-0.18352028727531433
1772701731292284700,4.39928466796875,-0.05763080716133118,0.44285517930984497,-0.07579942047595978
1772701731302333000,4.4093330078125,0.05848834291100502,1.1737879514694214,0.0866781696677208
1772701731312381700,4.419381591796875,0.14708532392978668,2.114394187927246,0.303577184677124
1772701731322430000,4.429429931640625,0.21967723965644836,3.0960514545440674,0.587347149848938
1772701731332477700,4.439477783203125,0.3048571050167084,3.760599136352539,0.934114396572113
1772701731342525700,4.449525634765625,0.28307005763053894,4.328068733215332,1.2892613410949707
1772701731352574700,4.45957470703125,0.22418570518493652,5.046786308288574,1.6042001247406006
1772701731362622700,4.469622802734375,0.2216852605342865,5.723766803741455,1.861807942390442
1772701731372671000,4.4796708984375,0.33702516555786133,5.923981189727783,1.9707610607147217
1772701731382719700,4.4897197265625,0.5586691498756409,5.431011199951172,1.8557194471359253
1772701731392768000,4.49976806640625,0.6652704477310181,4.475275039672852,1.4154413938522339
1772701731402815700,4.509815673828125,0.5371702313423157,3.3682615756988525,0.7170529365539551
1772701731412863700,4.51986376953125,0.40876859426498413,1.8931208848953247,0.059251073747873306
1772701731422912800,4.529912841796875,0.47956952452659607,0.9614267349243164,-0.2893865406513214
1772701731432960800,4.539960693359375,0.6189079880714417,0.6643335223197937,-0.4709387421607971
1772701731443009000,4.550009033203125,0.6890945434570312,0.7525309920310974,-0.690540611743927
1772701731453057800,4.560057861328125,0.6368691325187683,0.9507061839103699,-0.888457179069519
1772701731463105800,4.570105712890625,0.5140619874000549,1.2232903242111206,-1.0079576969146729
1772701731473153800,4.58015380859375,0.3776037395000458,1.4979122877120972,-1.0304574966430664
1772701731483201800,4.590201904296875,0.1965615302324295,1.5982614755630493,-0.905350387096405
1772701731493250800,4.600250732421875,0.026855316013097763,1.5189125537872314,-0.6819000244140625
1772701731503298800,4.610298828125,-0.0981215089559555,1.256752848625183,-0.4584597051143646
1772701731513346800,4.620346923828125,-0.20190435647964478,0.8708161115646362,-0.2926507890224457
1772701731523395800,4.630395751953125,-0.2662191689014435,0.5544214248657227,-0.16842202842235565
1772701731533443800,4.64044384765625,-0.353747695684433,0.38031405210494995,0.031370971351861954
1772701731543491800,4.650491943359375,-0.5403958559036255,0.2341291457414627,0.33434948325157166
1772701731553540600,4.66054052734375,-0.7300409078598022,-0.0006471481174230576,0.6688145399093628
1772701731563588900,4.6705888671875,-0.9099619388580322,-0.5355864763259888,0.7914568781852722
1772701731573636900,4.680636962890625,-1.0191733837127686,-1.416514277458191,0.6662925481796265
1772701731583684900,4.690684814453125,-1.0912641286849976,-2.418564558029175,0.2536991238594055
1772701731593734000,4.70073388671875,-1.1217178106307983,-3.271228075027466,-0.5351579785346985
1772701731603782000,4.710781982421875,-0.9688090085983276,-3.9117603302001953,-1.4759867191314697
1772701731613830000,4.720829833984375,-0.6509261131286621,-4.181832790374756,-2.1479053497314453
1772701731623878700,4.730878662109375,-0.5566009283065796,-4.023166656494141,-2.18678617477417
1772701731633927000,4.740927001953125,-0.5337512493133545,-3.731334924697876,-1.970521092414856
1772701731643974700,4.750974609375,-0.4919646680355072,-3.356759786605835,-1.5987437963485718
1772701731654023000,4.76102294921875,-0.4692939817905426,-3.10660719871521,-1.0626095533370972
1772701731664071700,4.77107177734375,-0.42534491419792175,-2.8508825302124023,-0.4662260115146637
1772701731674119700,4.78111962890625,-0.3552955090999603,-2.3995180130004883,0.11460141092538834
1772701731684168000,4.79116796875,-0.3046081066131592,-1.8215523958206177,0.6459270715713501
1772701731694216700,4.801216796875,-0.3069426417350769,-1.3293826580047607,1.0447548627853394
1772701731704265000,4.811264892578125,-0.3872574269771576,-0.9570876359939575,1.2955093383789062
1772701731714312700,4.821312744140625,-0.5131556987762451,-0.6115805506706238,1.4588370323181152
1772701731724361000,4.83136083984375,-0.640548050403595,-0.15283748507499695,1.523572325706482
1772701731734409700,4.84140966796875,-0.7150595188140869,0.4492640793323517,1.5042484998703003
1772701731744457700,4.851457763671875,-0.6853322982788086,1.226494550704956,1.460057020187378
1772701731754506000,4.861506103515625,-0.5124475955963135,2.04129695892334,1.3689534664154053
1772701731764554800,4.8715546875,-0.12702825665473938,2.71722674369812,1.39213228225708
1772701731774603000,4.88160302734375,0.17186576128005981,3.5546681880950928,1.4566020965576172
1772701731784650800,4.891650634765625,0.380347341299057,4.490687370300293,1.5254664421081543
1772701731794700000,4.901699951171875,0.5236128568649292,5.488121032714844,1.5558160543441772
1772701731804747800,4.911747802734375,0.5673664808273315,6.457746982574463,1.411111831665039
1772701731814795800,4.921795654296875,0.3354475200176239,7.353651523590088,0.7047163844108582
1772701731824843800,4.93184375,0.009017197415232658,7.2974534034729,-0.31976816058158875
1772701731834892800,4.941892822265625,-0.20952606201171875,5.170012474060059,-1.2812459468841553
1772701731844940800,4.95194091796875,-0.1807362288236618,2.9453623294830322,-1.2396471500396729
1772701731854988800,4.96198876953125,-0.14009079337120056,0.9804489016532898,-0.5996527671813965
1772701731865037800,4.972037841796875,-0.2711196541786194,-0.5953320860862732,0.04008350521326065
1772701731875085800,4.9820859375,-0.42590391635894775,-1.1799113750457764,0.41576072573661804
1772701731885133800,4.9921337890625,-0.5312561392784119,-1.0377403497695923,0.49595943093299866
1772701731895181800,5.002181884765625,-0.6156152486801147,-0.6301105618476868,0.430706650018692
1772701731905230800,5.01223095703125,-0.6749528646469116,-0.24079103767871857,0.36626455187797546
1772701731915278800,5.02227880859375,-0.6671958565711975,0.12632039189338684,0.31882432103157043
1772701731925326800,5.032326904296875,-0.5336650013923645,0.4484502375125885,0.2604158818721771
1772701731935376000,5.0423759765625,-0.31060075759887695,0.6744365096092224,0.1247326135635376
1772701731945424000,5.052423828125,-0.10092022269964218,0.7687315344810486,-0.0640689954161644
1772701731955472000,5.062471923828125,-0.17247962951660156,0.7778598070144653,-0.2404506802558899
1772701731965520000,5.072519775390625,-0.3095663785934448,0.5762742161750793,-0.43345049023628235
1772701731975569000,5.08256884765625,-0.4199994206428528,0.21260467171669006,-0.5735561847686768
1772701731985617000,5.092616943359375,-0.4724213480949402,-0.2790886163711548,-0.6419779062271118
1772701731995665000,5.102664794921875,-0.4726756811141968,-0.8562001585960388,-0.6320067644119263
1772701732005714000,5.1127138671875,-0.41739457845687866,-1.5098224878311157,-0.5514863133430481
1772701732015762000,5.122761962890625,-0.2313743680715561,-2.1599605083465576,-0.4265774190425873
1772701732025809700,5.1328095703125,0.06347058713436127,-2.715639352798462,-0.3500027358531952
1772701732035859000,5.14285888671875,0.38916799426078796,-3.1449286937713623,-0.33208686113357544
1772701732045906700,5.15290673828125,0.6966954469680786,-3.6734890937805176,-0.3328240215778351
1772701732055955000,5.162954833984375,0.9651431441307068,-4.317368507385254,-0.4970095157623291
1772701732066003000,5.1730029296875,1.1996898651123047,-4.841849327087402,-0.7859100103378296
1772701732076051700,5.1830517578125,1.5428427457809448,-5.330499172210693,-0.9526255130767822
1772701732086100000,5.193099853515625,1.7785381078720093,-5.450095176696777,-1.0850088596343994
1772701732096147700,5.203147705078125,1.744204044342041,-5.094198703765869,-1.073832631111145
1772701732106197000,5.213197021484375,1.3418313264846802,-3.8191335201263428,-0.7668290138244629
1772701732116244700,5.22324462890625,0.6206358671188354,-1.7255100011825562,-0.15188327431678772
1772701732126293000,5.23329296875,0.09991061687469482,0.7666950225830078,0.3655785024166107
1772701732136340700,5.2433408203125,0.2965261936187744,1.7559504508972168,0.8041499853134155
1772701732146389800,5.2533896484375,0.3843173086643219,1.696236252784729,1.0525976419448853
1772701732156437800,5.263437744140625,0.47904834151268005,1.8807952404022217,0.9514020681381226
1772701732166485800,5.27348583984375,0.7709949612617493,1.9733991622924805,0.5798702836036682
1772701732176534800,5.28353466796875,0.7946867346763611,2.2866013050079346,0.3030634820461273
1772701732186582800,5.293582763671875,0.6681503653526306,2.083087921142578,0.0784790962934494
1772701732196630800,5.303630859375,0.4436139166355133,1.2669461965560913,-0.0928865298628807
1772701732206680300,5.313680419921875,0.1064755767583847,0.36993756890296936,-0.21040862798690796
1772701732216728600,5.323728515625,-0.20640642940998077,-0.6083807945251465,-0.30166131258010864
1772701732226776300,5.3337763671875,-0.32187923789024353,-1.7490957975387573,-0.35825642943382263
1772701732236824600,5.343824462890625,-0.27064427733421326,-2.7749946117401123,-0.3899056911468506
1772701732246873300,5.353873291015625,-0.15479597449302673,-3.671173334121704,-0.43384093046188354
1772701732256921300,5.36392138671875,-0.0716283768415451,-4.4886980056762695,-0.48883894085884094
1772701732266969300,5.37396923828125,-0.023238742724061012,-4.8063578605651855,-0.5083918571472168
1772701732277017300,5.384017333984375,0.018156366422772408,-4.583879470825195,-0.4771963953971863
1772701732287066400,5.39406640625,0.009004680439829826,-4.1162567138671875,-0.4408053457736969
1772701732297114400,5.4041142578125,-0.048284709453582764,-3.351661443710327,-0.43373119831085205
1772701732307162600,5.41416259765625,-0.12851643562316895,-2.235283613204956,-0.39836254715919495
1772701732317211400,5.42421142578125,-0.2355523407459259,-0.9941596388816833,-0.33127832412719727
1772701732327259400,5.43425927734375,-0.18785591423511505,0.0020365193486213684,-0.3275800049304962
1772701732337307400,5.444307373046875,-0.01744263991713524,1.0286056995391846,-0.34030085802078247
1772701732347355400,5.45435546875,0.22950083017349243,2.11299467086792,-0.30281659960746765
1772701732357404400,5.464404296875,0.4879124164581299,3.146885871887207,-0.18667960166931152
1772701732367452400,5.474452392578125,0.6871618628501892,4.0147504806518555,0.019653862342238426
1772701732377500400,5.48450048828125,0.7901015877723694,4.586235046386719,0.27088475227355957
1772701732387549400,5.494549560546875,0.7911516427993774,4.7381815910339355,0.5440401434898376
1772701732397597400,5.504597412109375,0.7723931670188904,4.408658027648926,0.7743431329727173
1772701732407645400,5.5146455078125,0.7422853112220764,3.816708564758301,0.875094473361969
1772701732417694200,5.524694091796875,0.681877076625824,3.207505226135254,0.8388696312904358
1772701732427742500,5.534742431640625,0.5497507452964783,2.457810163497925,0.7553901672363281
1772701732437790500,5.54479052734375,0.41967928409576416,1.85980224609375,0.7119321823120117
1772701732447838200,5.554838134765625,0.4198300242424011,1.6211252212524414,0.6321939826011658
1772701732457887500,5.564887451171875,0.500452995300293,1.5922656059265137,0.4093960225582123
1772701732467935200,5.574935302734375,0.6062438488006592,1.4360911846160889,0.09284072369337082
1772701732477983500,5.5849833984375,0.7370926737785339,1.2073408365249634,-0.22703927755355835
1772701732488032300,5.5950322265625,0.863876461982727,0.9551358222961426,-0.44265225529670715
1772701732498080500,5.60508056640625,0.9996907711029053,0.6959609389305115,-0.5193417072296143
1772701732508128500,5.61512841796875,1.151243805885315,0.4927966594696045,-0.5252670049667358
1772701732518176300,5.62517626953125,1.2039581537246704,0.47701209783554077,-0.5409657955169678
1772701732528225500,5.6352255859375,1.1140506267547607,0.5040591359138489,-0.5806151628494263
1772701732538273300,5.645273193359375,0.9811367392539978,0.4519498944282532,-0.6540870070457458
1772701732548321500,5.655321533203125,0.9049437046051025,0.4059954285621643,-0.8753021955490112
1772701732558370300,5.665370361328125,0.9231703877449036,0.39981716871261597,-1.1626110076904297
1772701732568418600,5.67541845703125,0.9127222895622253,0.33518704771995544,-1.4353899955749512
1772701732578466300,5.68546630859375,0.8790261149406433,0.2466105818748474,-1.6326000690460205
1772701732588515600,5.695515625,1.0077414512634277,0.32932037115097046,-1.6165978908538818
1772701732598563300,5.705563232421875,1.314366340637207,0.5161592364311218,-1.4979397058486938
1772701732608611300,5.715611328125,1.5338259935379028,0.2742491364479065,-1.4489763975143433
1772701732618660400,5.725660400390625,1.3143442869186401,-0.4376271367073059,-1.4050837755203247
1772701732628708400,5.735708251953125,0.6613787412643433,-1.1969451904296875,-1.4285666942596436
1772701732638756600,5.745756591796875,0.07044939696788788,-1.6647638082504272,-1.6613531112670898
1772701732648804400,5.755804443359375,-0.24247735738754272,-1.855851173400879,-1.897079586982727
1772701732658853400,5.765853271484375,-0.3272833228111267,-1.875943660736084,-1.8231090307235718
1772701732668901400,5.7759013671875,-0.5561689734458923,-1.3250763416290283,-1.4953992366790771
1772701732678949400,5.785949462890625,-0.6799913048744202,-0.8750598430633545,-0.8160924315452576
1772701732688998400,5.795998291015625,-0.6682507395744324,-0.7675131559371948,-0.07874620705842972
1772701732699046400,5.80604638671875,-0.6977615356445312,-0.758599042892456,0.48027899861335754
1772701732709094400,5.816094482421875,-0.7237920761108398,-0.6841524839401245,0.9120572805404663
1772701732719142400,5.826142333984375,-0.7228471636772156,-0.6814959645271301,1.2998039722442627
1772701732729191400,5.83619140625,-0.7027512192726135,-0.7919194102287292,1.6125136613845825
1772701732739239400,5.846239501953125,-0.717135488986969,-0.9562569856643677,1.8435910940170288
1772701732749287400,5.856287353515625,-0.7619096040725708,-1.0493650436401367,1.9801324605941772
1772701732759336400,5.86633642578125,-0.8001787066459656,-0.9410601854324341,2.0530569553375244
1772701732769384400,5.876384521484375,-0.8299986720085144,-0.7640313506126404,2.0286636352539062
1772701732779432200,5.88643212890625,-0.8774244785308838,-0.6094063520431519,1.9249764680862427
1772701732789481500,5.8964814453125,-0.9157071709632874,-0.3431171476840973,1.8507965803146362
1772701732799529200,5.906529296875,-0.8784045577049255,0.14647145569324493,1.7442981004714966
1772701732809577500,5.916577392578125,-0.8276851773262024,0.7184255123138428,1.5476787090301514
1772701732819625500,5.92662548828125,-0.7936182618141174,1.3103759288787842,1.221796989440918
1772701732829674500,5.936674560546875,-0.6262982487678528,1.7505887746810913,0.8184903264045715
1772701732839722500,5.946722412109375,-0.37008777260780334,1.9823052883148193,0.3567839562892914
1772701732849770200,5.956770263671875,-0.2542594373226166,1.7485381364822388,0.011591408401727676
1772701732859819500,5.966819580078125,-0.33061492443084717,1.0907913446426392,-0.23208622634410858
1772701732869867300,5.9768671875,-0.44878631830215454,0.36222371459007263,-0.3572465479373932
1772701732879915500,5.98691552734375,-0.35486355423927307,0.04835954308509827,-0.44210338592529297
1772701732889963300,5.99696337890625,-0.31217414140701294,-0.1158544272184372,-0.5177826881408691
1772701732900012500,6.007012451171875,-0.3123965263366699,-0.08101948350667953,-0.5782130360603333
1772701732910060300,6.017060302734375,-0.29203346371650696,-0.03363705426454544,-0.5402264595031738
1772701732920108300,6.0271083984375,-0.2285199910402298,0.04697602987289429,-0.4985051453113556
1772701732930157300,6.0371572265625,-0.12637923657894135,-0.013434848748147488,-0.41606539487838745
1772701732940205300,6.047205322265625,-0.06553879380226135,-0.23825916647911072,-0.3854672610759735
1772701732950253600,6.057253662109375,-0.06228175014257431,-0.5083985328674316,-0.350203275680542
1772701732960302300,6.06730224609375,-0.04351551830768585,-0.7192156910896301,-0.30918368697166443
1772701732970350600,6.0773505859375,0.007287473883479834,-0.785351037979126,-0.22404801845550537
1772701732980398300,6.0873984375,0.08654900640249252,-0.7402085661888123,-0.10793152451515198
1772701732990446300,6.0974462890625,0.20663785934448242,-0.6253331303596497,0.022108497098088264
1772701733000495400,6.107495361328125,0.3380294442176819,-0.49142804741859436,0.1540476232767105
1772701733010543400,6.11754345703125,0.42213207483291626,-0.42508843541145325,0.2624388039112091
1772701733020591600,6.127591552734375,0.46037161350250244,-0.4733971059322357,0.38984763622283936
1772701733030640400,6.137640380859375,0.4828449487686157,-0.5893873572349548,0.47954848408699036
1772701733040688600,6.147688720703125,0.47934767603874207,-0.7333986163139343,0.5526922345161438
1772701733050736400,6.157736328125,0.44552475214004517,-0.9229925274848938,0.5859289765357971
1772701733060785400,6.167785400390625,0.4228801429271698,-1.145479679107666,0.603560209274292
1772701733070833400,6.17783349609375,0.4191170930862427,-1.2315751314163208,0.5209952592849731
1772701733080881400,6.18788134765625,0.3894500136375427,-1.246787667274475,0.31183886528015137
1772701733090929400,6.197929443359375,0.33219364285469055,-1.23038649559021,0.038535408675670624
1772701733100978400,6.207978515625,0.26100975275039673,-1.2144014835357666,-0.269016832113266
1772701733111026400,6.2180263671875,0.1833791434764862,-1.2690434455871582,-0.5349931120872498
1772701733121074400,6.228074462890625,0.08180484920740128,-1.4441558122634888,-0.6005473732948303
1772701733131123200,6.238123291015625,-0.07035032659769058,-1.736958622932434,-0.3884478807449341
1772701733141171500,6.24817138671875,-0.19957037270069122,-1.7039448022842407,0.2024625539779663
1772701733151219500,6.258219482421875,0.08519478887319565,-0.5881434082984924,0.9411574006080627
1772701733161268500,6.2682685546875,0.7735907435417175,1.0526410341262817,1.40364670753479
1772701733171316500,6.27831640625,1.4218372106552124,1.0307836532592773,1.9948042631149292
1772701733181364200,6.2883642578125,1.4895904064178467,0.17698462307453156,1.6359113454818726
1772701733191412500,6.29841259765625,0.9932330846786499,0.5488255620002747,0.528778076171875
1772701733201460500,6.30846044921875,0.6396875381469727,1.2713662385940552,-0.13817784190177917
1772701733211508500,6.318508544921875,0.5442635416984558,1.1713906526565552,-0.43896883726119995
1772701733221556700,6.328556640625,0.43301427364349365,1.3953826427459717,-0.6971838474273682
1772701733231605500,6.33860546875,0.1595185548067093,1.7652307748794556,-0.9583798050880432
1772701733241653800,6.34865380859375,-0.12847141921520233,1.8687984943389893,-1.1468013525009155
1772701733251701500,6.358701416015625,-0.2397228479385376,1.7327711582183838,-1.1994377374649048
1772701733261750500,6.36875048828125,-0.22004714608192444,1.5306336879730225,-1.0984101295471191
1772701733271798500,6.378798583984375,-0.18727907538414001,1.257184386253357,-0.8766268491744995
1772701733281846500,6.388846435546875,-0.2215030938386917,0.8956948518753052,-0.6180927753448486
1772701733291894800,6.398894775390625,-0.21941465139389038,0.5577676892280579,-0.4795631468296051
1772701733301943600,6.408943603515625,-0.17173953354358673,0.19159233570098877,-0.5020149350166321
1772701733311991800,6.41899169921875,-0.12799391150474548,-0.19575965404510498,-0.6237940788269043
1772701733322039600,6.42903955078125,-0.10842021554708481,-0.5299704074859619,-0.7203981280326843
1772701733332088600,6.439088623046875,-0.11016219109296799,-0.7777815461158752,-0.7183453440666199
1772701733342136600,6.449136474609375,-0.07989802956581116,-0.8710142374038696,-0.6478418707847595
1772701733352184600,6.4591845703125,-0.003034672001376748,-0.8124423027038574,-0.5511795282363892
1772701733362232600,6.469232666015625,-0.057979147881269455,-0.604979932308197,-0.4618286192417145
1772701733372281600,6.479281494140625,-0.23623676598072052,-0.07607399672269821,-0.3264867663383484
1772701733382329300,6.489329345703125,-0.17074404656887054,0.4982699751853943,-0.08737032860517502
1772701733392377600,6.499377685546875,0.027327761054039,1.202952265739441,0.13076280057430267
1772701733402426400,6.50942626953125,0.05904467776417732,2.06795334815979,0.2544647753238678
1772701733412474600,6.519474609375,0.048817604780197144,2.646745443344116,0.39145803451538086
1772701733422522600,6.529522705078125,0.17832286655902863,2.7423713207244873,0.5338910818099976
1772701733432571600,6.539571533203125,0.3666429817676544,2.489814519882202,0.653780460357666
1772701733442619600,6.54961962890625,0.46803751587867737,2.0752997398376465,0.7717878222465515
1772701733452667400,6.55966748046875,0.515625536441803,1.6399316787719727,0.9299806356430054
1772701733462715600,6.569715576171875,0.5343137383460999,1.1404539346694946,1.1700798273086548
1772701733472764400,6.579764404296875,0.5797821283340454,0.6427699327468872,1.4490584135055542
1772701733482812700,6.589812744140625,0.5465483069419861,0.46738582849502563,1.4633833169937134
1772701733492860700,6.599860595703125,0.47142931818962097,0.6466323137283325,1.3614790439605713
1772701733502909700,6.60990966796875,0.4935503304004669,0.8781328797340393,1.266035556793213
1772701733512957700,6.619957763671875,0.523546040058136,1.1675915718078613,1.081023097038269
1772701733523005400,6.63000537109375,0.400562047958374,1.3853071928024292,0.7327623963356018
1772701733533054500,6.640054443359375,0.13980796933174133,1.4514342546463013,0.3218510150909424
1772701733543102500,6.6501025390625,-0.1049296110868454,1.4721235036849976,-0.06801953166723251
1772701733553150700,6.660150634765625,-0.38846224546432495,1.2275819778442383,-0.40375784039497375
1772701733563198500,6.670198486328125,-0.5972873568534851,1.1292511224746704,-0.6389802098274231
1772701733573247700,6.680247802734375,-0.6787585020065308,0.9366713166236877,-0.786108672618866
1772701733583295500,6.69029541015625,-0.6166179180145264,0.7714184522628784,-0.9535048604011536
1772701733593343500,6.700343505859375,-0.4971349537372589,0.6912966966629028,-0.9991424083709717
1772701733603392500,6.710392578125,-0.3945228159427643,0.6675381064414978,-0.9016914963722229
1772701733613440500,6.7204404296875,-0.34566497802734375,0.5407617688179016,-0.7266342043876648
1772701733623488800,6.73048876953125,-0.3725373446941376,0.22857405245304108,-0.5927490592002869
1772701733633537500,6.74053759765625,-0.4001151919364929,-0.21092449128627777,-0.5030133128166199
1772701733643585800,6.750585693359375,-0.35307711362838745,-0.7213376760482788,-0.4697427451610565
1772701733653633500,6.760633544921875,-0.23722080886363983,-1.2506736516952515,-0.4414362609386444
1772701733663681500,6.770681640625,-0.08942894637584686,-1.6278414726257324,-0.3793606460094452
1772701733673730600,6.78073046875,0.10496396571397781,-1.8184809684753418,-0.39708104729652405
1772701733683778600,6.790778564453125,0.2750084102153778,-1.5314172506332397,-0.5389806628227234
1772701733693826600,6.80082666015625,0.2935413420200348,-0.7644292116165161,-0.7238306403160095
1772701733703875600,6.81087548828125,0.20770232379436493,-0.018010959029197693,-0.9210145473480225
1772701733713923600,6.820923583984375,0.05162937194108963,0.08779589831829071,-1.151248574256897
1772701733723971600,6.8309716796875,-0.08767499029636383,-0.6031716465950012,-1.3324631452560425
1772701733734020400,6.841020263671875,-0.22039708495140076,-1.3494317531585693,-1.2993296384811401
1772701733744068600,6.851068603515625,-0.31125882267951965,-1.626895546913147,-1.0841175317764282
1772701733754116600,6.86111669921875,-0.3257195055484772,-1.4452080726623535,-0.762418806552887
1772701733764164600,6.87116455078125,-0.33981722593307495,-0.9665559530258179,-0.36732128262519836
1772701733774213600,6.881213623046875,-0.380425363779068,-0.5798718929290771,0.0256880521774292
1772701733784261400,6.891261474609375,-0.4493551552295685,-0.39063698053359985,0.42851513624191284
1772701733794309600,6.9013095703125,-0.5569846630096436,-0.32064804434776306,0.8683433532714844
1772701733804358400,6.9113583984375,-0.5900906920433044,-0.520851194858551,1.427992820739746
1772701733814406700,6.92140673828125,-0.6334275603294373,-1.143471598625183,1.873537302017212
1772701733824454700,6.93145458984375,-0.7432727813720703,-1.889072060585022,2.0081562995910645
1772701733834503700,6.941503662109375,-0.8452215194702148,-2.1715359687805176,1.832144021987915
1772701733844551700,6.9515517578125,-0.8792202472686768,-1.865560531616211,1.4823330640792847
1772701733854599400,6.961599365234375,-0.8970280289649963,-1.4139747619628906,1.1501744985580444
1772701733864647700,6.971647705078125,-0.9041581153869629,-1.2411302328109741,0.843420684337616
1772701733874696400,6.981696533203125,-0.8804884552955627,-1.2957322597503662,0.5113165378570557
1772701733884744700,6.99174462890625,-0.849686324596405,-1.216017246246338,0.23570840060710907
1772701733894792400,7.00179248046875,-0.8443759679794312,-0.9128021597862244,-0.07934675365686417
1772701733904841700,7.011841796875,-0.904235303401947,-0.43088480830192566,-0.4235648512840271
1772701733914889500,7.021889404296875,-0.9807958602905273,-0.0024564997293055058,-0.7182942032814026
1772701733924937500,7.0319375,-1.020782709121704,0.2986873686313629,-0.9588650465011597
1772701733934986500,7.041986572265625,-1.0140230655670166,0.4557238519191742,-1.104532241821289
1772701733945034500,7.052034423828125,-0.9729792475700378,0.4745047390460968,-1.130752682685852
1772701733955082800,7.062082763671875,-0.8966482281684875,0.35770994424819946,-1.0916798114776611
1772701733965130500,7.072130615234375,-0.8004564642906189,0.3218398094177246,-0.9384638667106628
1772701733975179800,7.0821796875,-0.7376551628112793,0.14300589263439178,-0.729388415813446
1772701733985227500,7.0922275390625,-0.6290066838264465,0.008986304514110088,-0.4114226996898651
1772701733995275500,7.102275634765625,-0.4194957911968231,-0.1277417093515396,-0.013800767250359058
1772701734005324500,7.112324462890625,-0.18071332573890686,-0.22853997349739075,0.30284854769706726
1772701734015372500,7.12237255859375,-0.03825657442212105,-0.13754507899284363,0.4917433559894562
1772701734025420500,7.132420654296875,0.01642477884888649,-0.03406236320734024,0.5676128268241882
1772701734035469600,7.142469482421875,0.029879868030548096,0.029282787814736366,0.5923895239830017
1772701734045517600,7.152517578125,0.028782911598682404,0.04809855297207832,0.5788588523864746
1772701734055565600,7.162565673828125,0.0279189832508564,-0.0004924184759147465,0.5576353073120117
1772701734065613600,7.172613525390625,0.014994129538536072,-0.07550168037414551,0.5442246794700623
1772701734075662600,7.18266259765625,-0.00367170013487339,-0.10790090262889862,0.5237652063369751
1772701734085710600,7.192710693359375,-0.0149238221347332,-0.1360667645931244,0.4998859763145447
1772701734095758600,7.202758544921875,-0.036864541471004486,-0.16682679951190948,0.45709776878356934
1772701734105807600,7.2128076171875,-0.08754129707813263,-0.19352126121520996,0.3945361375808716
1772701734115855600,7.222855712890625,-0.1399882584810257,-0.26250991225242615,0.3508978486061096
1772701734125903600,7.232903564453125,-0.19264374673366547,-0.30926597118377686,0.28073740005493164
1772701734135952400,7.242952392578125,-0.2348969280719757,-0.3902148902416229,0.23387961089611053
1772701734146000600,7.253000732421875,-0.27460867166519165,-0.5046818256378174,0.20450493693351746
1772701734156048600,7.263048583984375,-0.31044307351112366,-0.5585599541664124,0.2249140739440918
1772701734166096600,7.2730966796875,-0.33705684542655945,-0.5223609209060669,0.2563154101371765
1772701734176145700,7.283145751953125,-0.3320533037185669,-0.4184369444847107,0.23850472271442413
1772701734186193400,7.293193359375,-0.3068787157535553,-0.198581263422966,0.13051992654800415
1772701734196241700,7.30324169921875,-0.3091495931148529,0.03916364908218384,0.05485792085528374
1772701734206291000,7.313291015625,-0.30229300260543823,0.1161324679851532,0.09509642422199249
1772701734216339000,7.3233388671875,-0.16921326518058777,0.3167875409126282,0.2604840397834778
1772701734226387000,7.333386962890625,0.005031776614487171,1.0676705837249756,0.4463876187801361
1772701734236436000,7.34343603515625,0.10850703716278076,1.8188154697418213,0.6684520840644836
1772701734246484000,7.35348388671875,0.15634433925151825,1.7981551885604858,0.648836076259613
1772701734256532000,7.363531982421875,-0.07391390204429626,1.601575255393982,-0.023577498272061348
1772701734266580000,7.373580078125,-0.2920244038105011,2.0840904712677,-0.5703471302986145
1772701734276629000,7.38362890625,0.05987105518579483,2.664497137069702,-0.6855903267860413
1772701734286677000,7.393677001953125,0.4079003930091858,2.402947425842285,-0.7865946888923645
1772701734296725000,7.40372509765625,0.6150943040847778,1.876612663269043,-0.7158542275428772
1772701734306774000,7.41377392578125,0.713916540145874,1.0943880081176758,-0.5613166093826294
1772701734316822000,7.423822021484375,0.7231007218360901,0.40904343128204346,-0.41602542996406555
1772701734326870000,7.4338701171875,0.7215432524681091,-0.038652852177619934,-0.2630939483642578
1772701734336918800,7.443918701171875,0.7626143097877502,-0.28941184282302856,-0.19261711835861206
1772701734346967000,7.453967041015625,0.7385944128036499,-0.18801064789295197,-0.2025834619998932
1772701734357014800,7.464014892578125,0.6359820365905762,0.08196623623371124,-0.2252139449119568
1772701734367064000,7.47406396484375,0.5005781650543213,0.3582841157913208,-0.3256223201751709
1772701734377111800,7.48411181640625,0.3518134355545044,0.5123586058616638,-0.4367131292819977
1772701734387160000,7.49416015625,0.1942291259765625,0.570399284362793,-0.5105194449424744
1772701734397208000,7.5042080078125,0.05327067896723747,0.49923989176750183,-0.5910630226135254
1772701734407256800,7.5142568359375,-0.10439431667327881,0.28822779655456543,-0.6753126382827759
1772701734417305000,7.52430517578125,-0.2697228193283081,-0.06541735678911209,-0.7674766778945923
1772701734427352800,7.534352783203125,-0.35534024238586426,-0.5208631753921509,-0.8434614539146423
1772701734437402000,7.544402099609375,-0.3483949899673462,-0.916411280632019,-0.8704859018325806
1772701734447449900,7.554449951171875,-0.36560487747192383,-1.092358946800232,-0.8660323023796082
1772701734457497900,7.564497802734375,-0.39655372500419617,-1.0473158359527588,-0.818236768245697
1772701734467547000,7.574546875,-0.39309749007225037,-0.8357569575309753,-0.7160401344299316
1772701734477595000,7.584594970703125,-0.36733725666999817,-0.6098678708076477,-0.5720978379249573
1772701734487643000,7.594642822265625,-0.3402252197265625,-0.39742007851600647,-0.4336518347263336
1772701734497691000,7.60469091796875,-0.3017220199108124,-0.2169373780488968,-0.35224592685699463
1772701734507740000,7.614739990234375,-0.2841459810733795,-0.008476043120026588,-0.352180153131485
1772701734517788000,7.624787841796875,-0.26237356662750244,0.18103210628032684,-0.37655311822891235
1772701734527836000,7.6348359375,-0.1968853622674942,0.22492551803588867,-0.39105990529060364
1772701734537885000,7.644885009765625,-0.11596548557281494,0.18080759048461914,-0.46587395668029785
1772701734547933000,7.654932861328125,-0.0458441860973835,0.1469348520040512,-0.5732622146606445
1772701734557981000,7.66498095703125,0.013110475614666939,0.06476648151874542,-0.709064781665802
1772701734568030000,7.675030029296875,0.0536978505551815,-0.019590744748711586,-0.8663699626922607
1772701734578078000,7.685077880859375,0.06914231926202774,-0.02058277279138565,-0.9665612578392029
1772701734588126000,7.6951259765625,0.07711156457662582,0.01543594803661108,-0.9418588876724243
1772701734598175000,7.705175048828125,0.10003712028265,0.06807998567819595,-0.7584954500198364
1772701734608223000,7.715222900390625,0.15998594462871552,0.145699143409729,-0.47363680601119995
1772701734618271000,7.72527099609375,0.2132853865623474,0.1934773176908493,-0.18628491461277008
1772701734628319000,7.735319091796875,0.2561793029308319,0.15108191967010498,0.053772151470184326
1772701734638368000,7.745367919921875,0.2808729410171509,0.11408023536205292,0.19515298306941986
1772701734648416000,7.755416015625,0.2577630877494812,0.09177572280168533,0.26674672961235046
1772701734658464000,7.765464111328125,0.19680653512477875,-0.02190370112657547,0.2869800925254822
1772701734668513000,7.775512939453125,0.0942857563495636,-0.20485541224479675,0.2565377652645111
1772701734678561000,7.78556103515625,-0.05824652686715126,-0.3110215365886688,0.189798966050148
1772701734688608800,7.79560888671875,-0.22642089426517487,-0.2551095187664032,0.06099624186754227
1772701734698658000,7.805657958984375,-0.3320685029029846,-0.09748714417219162,-0.0851961225271225
1772701734708705800,7.815705810546875,-0.34025344252586365,0.1296842247247696,-0.1454796940088272
1772701734718754000,7.825754150390625,-0.29661914706230164,0.29320818185806274,-0.15411552786827087
1772701734728802800,7.835802734375,-0.2187376618385315,0.39571642875671387,-0.10917308926582336
1772701734738850800,7.845850830078125,-0.12949886918067932,0.39352118968963623,-0.020663999021053314
1772701734748899000,7.855899169921875,-0.04062625765800476,0.29321029782295227,0.11878124624490738
1772701734758946800,7.86594677734375,0.043828438967466354,0.20680058002471924,0.23435097932815552
1772701734768996000,7.87599609375,0.13224245607852936,0.28903260827064514,0.3367479145526886
1772701734779043800,7.8860439453125,0.20014800131320953,0.3602258265018463,0.45204707980155945
1772701734789092000,7.896092041015625,0.2393859624862671,0.20886319875717163,0.5127424001693726
1772701734799140900,7.906140869140625,0.25841423869132996,-0.021796908229589462,0.49102166295051575
1772701734809188900,7.91618896484375,0.23754064738750458,-0.1628328561782837,0.31432944536209106
1772701734819237000,7.926237060546875,0.2028987854719162,-0.23345589637756348,-0.022407837212085724
1772701734829286000,7.936285888671875,0.18405292928218842,0.011671303771436214,-0.2295551598072052
1772701734839334000,7.946333984375,0.1500994861125946,0.4935460686683655,-0.22531408071517944
1772701734849382000,7.9563818359375,0.11762277036905289,0.6698806285858154,-0.0832272469997406
1772701734859431000,7.966430908203125,0.1554178148508072,0.5093860030174255,0.12614542245864868
1772701734869479000,7.97647900390625,0.17743124067783356,0.1284109652042389,0.23499520123004913
1772701734879527000,7.98652685546875,0.15384894609451294,-0.1441662311553955,0.2651698887348175
1772701734889575000,7.996574951171875,0.10566437989473343,-0.15482206642627716,0.276080846786499
1772701734899624000,8.0066240234375,0.03949121758341789,-0.10216498374938965,0.2032788246870041
1772701734909672000,8.016671875,-0.04237861558794975,-0.08634394407272339,0.058215901255607605
1772701734919720000,8.026719970703125,-0.1297854334115982,-0.06103858724236488,-0.062124092131853104
1772701734929769000,8.03676904296875,-0.20937825739383698,-0.1054486632347107,-0.1585979014635086
1772701734939817000,8.04681689453125,-0.26115062832832336,-0.05915173515677452,-0.1882530003786087
1772701734949865000,8.056864990234375,-0.24964284896850586,0.08464217931032181,-0.10504332929849625
1772701734959914000,8.0669140625,-0.2521504759788513,0.16927318274974823,0.05622332543134689
1772701734969962000,8.0769619140625,-0.2843047082424164,-0.041069671511650085,0.1359304040670395
1772701734980010000,8.087010009765624,-0.3258691728115082,-0.250336617231369,0.12531930208206177
1772701734990059000,8.09705908203125,-0.3515639007091522,-0.16424433887004852,0.13122539222240448
1772701735000107000,8.10710693359375,-0.2931767404079437,0.027812723070383072,0.19902202486991882
1772701735010155000,8.117155029296875,-0.18001344799995422,0.10458579659461975,0.2559252381324768
1772701735020202800,8.12720263671875,-0.11991149187088013,0.24038730561733246,0.3307526111602783
1772701735030252000,8.137251953125,-0.10814378410577774,0.15792065858840942,0.3159917891025543
1772701735040299800,8.1472998046875,-0.12090005725622177,0.07310430705547333,0.26386305689811707
1772701735050348000,8.15734814453125,-0.1223946213722229,0.05053747445344925,0.20111820101737976
1772701735060396800,8.167396728515625,-0.10905777662992477,0.1154235303401947,0.13506273925304413
1772701735070445000,8.177445068359376,-0.0845806673169136,0.2492135465145111,0.0767565667629242
1772701735080493000,8.1874931640625,-0.054017163813114166,0.38302433490753174,0.008677377365529537
1772701735090541800,8.197541748046875,-0.024878984317183495,0.3985162079334259,-0.09368867427110672
1772701735100590000,8.207590087890624,-0.017108146101236343,0.4009588658809662,-0.1656680554151535
1772701735110637800,8.217637939453125,-0.009806823916733265,0.4290325939655304,-0.18696722388267517
1772701735120687000,8.22768701171875,-0.0041252365335822105,0.40247446298599243,-0.16448934376239777
1772701735130734800,8.23773486328125,-0.01974174752831459,0.31301623582839966,-0.15740054845809937
1772701735140782800,8.247782958984375,-0.03074832446873188,0.2644151449203491,-0.16040033102035522
1772701735150831000,8.2578310546875,-0.026871562004089355,0.27492716908454895,-0.16538843512535095
1772701735160879900,8.2678798828125,-0.02624598518013954,0.2769269347190857,-0.19585898518562317
1772701735170928000,8.27792822265625,-0.02905428782105446,0.26790282130241394,-0.23917582631111145
1772701735180975900,8.287975830078125,-0.030972030013799667,0.27362462878227234,-0.28152620792388916
1772701735191025000,8.29802490234375,-0.047333959490060806,0.2915961742401123,-0.30681025981903076
1772701735201073000,8.308072998046875,-0.06791619956493378,0.3190895617008209,-0.2951376438140869
1772701735211121200,8.31812109375,-0.08464537560939789,0.3280481696128845,-0.24248294532299042
1772701735221170200,8.328170166015624,-0.07765883952379227,0.28779688477516174,-0.19067780673503876
1772701735231218200,8.33821826171875,-0.0639326423406601,0.22197793424129486,-0.1831115037202835
1772701735241266200,8.34826611328125,-0.04204092547297478,0.19320142269134521,-0.19775941967964172
1772701735251315200,8.358315185546875,-0.024959677830338478,0.20154297351837158,-0.2199408859014511
1772701735261363200,8.36836328125,-0.01986425183713436,0.2014702707529068,-0.239524707198143
1772701735271411200,8.3784111328125,-0.019104186445474625,0.20354805886745453,-0.2660021185874939
1772701735281460200,8.388460205078125,-0.0194352176040411,0.23513901233673096,-0.29433175921440125
1772701735291508200,8.39850830078125,-0.021268004551529884,0.2744312882423401,-0.31552228331565857
1772701735301556200,8.40855615234375,-0.02828649990260601,0.3141600489616394,-0.31481918692588806
1772701735311604200,8.418604248046876,-0.027346136048436165,0.2935091257095337,-0.2870464324951172
1772701735321653200,8.4286533203125,-0.018064754083752632,0.20793242752552032,-0.23469266295433044
1772701735331701200,8.438701171875,0.008284561336040497,0.11406584829092026,-0.17530177533626556
1772701735341749200,8.448749267578124,0.029929669573903084,0.02196415513753891,-0.12553901970386505
1772701735351798300,8.45879833984375,0.04652116447687149,-0.05795198306441307,-0.08977223187685013
1772701735361846300,8.46884619140625,0.052324723452329636,-0.07793314754962921,-0.05963856354355812
1772701735371894000,8.47889404296875,0.05618470907211304,-0.08616311103105545,-0.01816941611468792
1772701735381943300,8.488943359375,0.05162670835852623,-0.11791225522756577,0.025186313316226006
1772701735391991000,8.498990966796875,0.026446787640452385,-0.14470098912715912,0.05518336221575737
1772701735402039300,8.509039306640625,0.00936101097613573,-0.12295681238174438,0.08557695150375366
1772701735412088000,8.519088134765624,0.0007313040550798178,-0.08287250995635986,0.10625720024108887
1772701735422136300,8.52913623046875,-0.0037763623986393213,-0.05401955917477608,0.11605896055698395
1772701735432184300,8.539184326171876,0.002867691917344928,-0.043285954743623734,0.11999990791082382
1772701735442232000,8.549232177734375,0.016023706644773483,-0.04616163671016693,0.11064901947975159
1772701735452281300,8.55928125,0.03355875983834267,-0.037869617342948914,0.09391371160745621
1772701735462329000,8.5693291015625,0.05582225322723389,-0.01781148836016655,0.07715710252523422
1772701735472377300,8.57937744140625,0.07194715738296509,-0.007518103811889887,0.06469617038965225
1772701735482426000,8.589426025390624,0.08351299911737442,-0.025654496625065804,0.053288254886865616
1772701735492474400,8.599474365234375,0.0925070270895958,-0.04860774800181389,0.03707066923379898
1772701735502522000,8.609522216796876,0.09967466443777084,-0.05734797939658165,0.021261345595121384
1772701735512571100,8.619571044921875,0.09794147312641144,-0.0627259686589241,-0.0004724447790067643
1772701735522619100,8.629619140625,0.092892125248909,-0.06352784484624863,-0.027836425229907036
1772701735532667100,8.639667236328124,0.0956231951713562,-0.037160951644182205,-0.04760347306728363
1772701735542716200,8.649716064453125,0.10222171247005463,-0.005547630600631237,-0.05748060345649719
1772701735552764200,8.65976416015625,0.10579194128513336,0.0028628981672227383,-0.058038268238306046
1772701735562812200,8.669812255859375,0.10079425573348999,-0.03671354055404663,-0.07932305335998535
1772701735572861200,8.679861083984376,0.09753508120775223,-0.06493079662322998,-0.08102081716060638
1772701735582909200,8.6899091796875,0.13699832558631897,-0.1524454653263092,0.04307582974433899
1772701735592957200,8.699957275390625,0.1698862463235855,-0.46724921464920044,0.21215113997459412
1772701735603005200,8.710005126953124,0.15165956318378448,-0.47351962327957153,0.27252766489982605
1772701735613054200,8.72005419921875,0.14105884730815887,-0.30559268593788147,0.2424248903989792
1772701735623102200,8.730102294921876,0.14504081010818481,-0.17971064150333405,0.20645196735858917
1772701735633150200,8.740150146484375,0.12855371832847595,-0.14555586874485016,0.1318749487400055
1772701735643199200,8.75019921875,0.1035466343164444,-0.06310386955738068,0.050161704421043396
1772701735653247200,8.760247314453125,0.0828634575009346,0.05488322302699089,-0.022648854181170464
1772701735663295200,8.770295166015625,0.061048440635204315,0.1097792312502861,-0.05788513645529747
1772701735673344300,8.78034423828125,0.031195469200611115,0.03918655216693878,-0.03146178647875786
1772701735683392300,8.790392333984375,0.019903400912880898,-0.12106996774673462,0.061105962842702866
