time,seconds_elapsed,z,y,x
1772701726969007600,0.076007568359375,-0.054181795567274094,-0.011980152688920498,0.1031903624534607
1772701726979056400,0.086056396484375,-0.05380575731396675,0.011735829524695873,0.09800758957862854
1772701726989104400,0.0961044921875,-0.061805471777915955,0.029062410816550255,0.09270790964365005
1772701726999152400,0.10615234375,-0.06940533220767975,0.02685598097741604,0.08512429147958755
1772701727009200400,0.116200439453125,-0.07056747376918793,0.021914660930633545,0.06914595514535904
1772701727019249400,0.12624951171875,-0.06938183307647705,0.021129559725522995,0.04693785309791565
1772701727029297400,0.13629736328125,-0.0673898383975029,0.029627574607729912,0.026654614135622978
1772701727039345400,0.146345458984375,-0.07051585614681244,0.03215891122817993,0.019282717257738113
1772701727049394400,0.15639453125,-0.06316287070512772,0.023439187556505203,0.009316902607679367
1772701727059442400,0.1664423828125,-0.07135528326034546,-0.005926158279180527,-0.01030793134123087
1772701727069490400,0.176490478515625,-0.08709056675434113,-0.01155464630573988,-0.034464746713638306
1772701727079538400,0.186538330078125,-0.08686845749616623,0.0007970947772264481,-0.03860409930348396
1772701727089587500,0.19658740234375,-0.08932629972696304,0.02429955266416073,-0.034364450722932816
1772701727099635500,0.206635498046875,-0.08933189511299133,0.058516912162303925,-0.03985296189785004
1772701727109683500,0.216683349609375,-0.08359898626804352,0.07005453109741211,-0.05324387177824974
1772701727119732500,0.226732421875,-0.09551503509283066,0.062026962637901306,-0.08968417346477509
1772701727129780500,0.236780517578125,-0.11681033670902252,0.12188190221786499,-0.14272786676883698
1772701727139828500,0.246828369140625,-0.13025477528572083,0.15570804476737976,-0.19230102002620697
1772701727149876500,0.25687646484375,-0.15401265025138855,0.07987905293703079,-0.18691478669643402
1772701727159925500,0.266925537109375,-0.1616082489490509,-0.07830845564603806,-0.12494569271802902
1772701727169973200,0.27697314453125,-0.11466570943593979,-0.19781997799873352,-0.03692023828625679
1772701727180021500,0.287021484375,-0.05582263320684433,-0.2364448606967926,0.04249229654669762
1772701727190070300,0.2970703125,-0.021844763308763504,-0.20772604644298553,0.0856175646185875
1772701727200119300,0.307119384765625,-0.006943045649677515,-0.13714668154716492,0.09769127517938614
1772701727210167300,0.317167236328125,-0.0027495729736983776,-0.05273276939988136,0.08366386592388153
1772701727220215000,0.327215087890625,-0.003996731247752905,-0.005716790445148945,0.03615599498152733
1772701727230264000,0.33726416015625,-0.04265380650758743,0.0871792584657669,-0.03352458029985428
1772701727240312000,0.34731201171875,-0.016567345708608627,0.03045445866882801,-0.10211988538503647
1772701727250360300,0.3573603515625,0.009295892901718616,-0.16046956181526184,-0.11918576061725616
1772701727260409000,0.3674091796875,0.014447778463363647,-0.18470193445682526,-0.02909262105822563
1772701727270457300,0.377457275390625,0.00686731468886137,-0.18436069786548615,0.04657448083162308
1772701727280505000,0.387505126953125,-0.015073936432600021,-0.10863717645406723,0.07925040274858475
1772701727290553000,0.397552978515625,-0.02970452606678009,0.019540544599294662,0.08699116110801697
1772701727300602000,0.40760205078125,-0.039907362312078476,0.14322519302368164,0.08827214688062668
1772701727310650000,0.417650146484375,-0.0473378486931324,0.18281708657741547,0.06710667163133621
1772701727320698400,0.427698486328125,-0.0486111044883728,0.17688702046871185,0.029180599376559258
1772701727330746000,0.43774609375,-0.028063904494047165,0.1458977311849594,0.0018074691761285067
1772701727340795100,0.447795166015625,-0.01671963557600975,0.10499531030654907,0.0005706971860490739
1772701727350843100,0.457843017578125,0.0012324133422225714,0.07254337519407272,0.014185845851898193
1772701727360891100,0.46789111328125,0.002404204336926341,0.060041967779397964,0.02842709980905056
1772701727370940200,0.477940185546875,0.010078340768814087,0.07663533836603165,0.04656416177749634
1772701727380988200,0.48798828125,0.00638373801484704,0.12043048441410065,0.06572481244802475
1772701727391036200,0.4980361328125,0.0031639114022254944,0.13511216640472412,0.08715029805898666
1772701727401084200,0.508084228515625,0.02317437157034874,0.14958539605140686,0.09164784103631973
1772701727411133000,0.5181328125,0.08135437965393066,0.19398875534534454,0.0764494389295578
1772701727421181200,0.52818115234375,0.1090477928519249,0.17598791420459747,0.06406281143426895
1772701727431229200,0.538229248046875,0.09823641926050186,0.10015174746513367,0.07864654809236526
1772701727441278200,0.5482783203125,0.07541712373495102,0.0093105249106884,0.11993193626403809
1772701727451326200,0.558326171875,0.05227823555469513,-0.040771059691905975,0.1388925462961197
1772701727461374000,0.5683740234375,0.03327019140124321,-0.050874024629592896,0.12093432247638702
1772701727471423200,0.57842333984375,0.027957532554864883,-0.021513517946004868,0.08648858964443207
1772701727481471000,0.588470947265625,-0.015237342566251755,0.0222235769033432,0.04600587859749794
1772701727491519200,0.598519287109375,-0.08595072478055954,0.11255861073732376,0.01022514421492815
1772701727501567200,0.608567138671875,-0.15530529618263245,0.1776563972234726,-0.06649493426084518
1772701727511616300,0.6186162109375,-0.2187620997428894,0.2098275125026703,-0.13891805708408356
1772701727521664300,0.628664306640625,-0.3237289786338806,0.14410948753356934,-0.2006317675113678
1772701727531712000,0.6387119140625,-0.45694082975387573,-0.10232728719711304,-0.24631048738956451
1772701727541761300,0.64876123046875,-0.6166937351226807,-0.4050584137439728,-0.2696267366409302
1772701727551809000,0.65880908203125,-0.8442800641059875,-0.6352709531784058,-0.37245994806289673
1772701727561857300,0.668857177734375,-1.0975593328475952,-0.6016789078712463,-0.5159859657287598
1772701727571905000,0.678905029296875,-1.3263057470321655,-0.3475014865398407,-0.6994736790657043
1772701727581954300,0.688954345703125,-1.430878758430481,-0.06217467784881592,-0.9174635410308838
1772701727592002000,0.699001953125,-1.4021624326705933,-0.0823444128036499,-1.1686357259750366
1772701727602050000,0.709050048828125,-1.329939603805542,-0.5537964105606079,-1.2876547574996948
1772701727612099000,0.71909912109375,-1.3546748161315918,-1.4480414390563965,-1.2568544149398804
1772701727622147000,0.72914697265625,-1.461665391921997,-2.421468496322632,-1.1402881145477295
1772701727632195300,0.7391953125,-1.5842392444610596,-3.024970293045044,-1.0996965169906616
1772701727642243000,0.7492431640625,-1.6569209098815918,-3.3080334663391113,-1.1049511432647705
1772701727652292400,0.759292236328125,-1.6424330472946167,-3.1180062294006348,-1.1548235416412354
1772701727662340000,0.769340087890625,-1.4530922174453735,-2.827124834060669,-1.2761839628219604
1772701727672388000,0.77938818359375,-1.0745943784713745,-2.161864757537842,-1.4275215864181519
1772701727682437000,0.78943701171875,-0.6132444143295288,-0.7261074185371399,-1.320581316947937
1772701727692485000,0.799485107421875,-0.1858922392129898,1.6898149251937866,-0.8867504596710205
1772701727702533000,0.809533203125,-0.09601935744285583,2.8724753856658936,-0.27559757232666016
1772701727712582100,0.81958203125,-0.4862227439880371,2.301632881164551,0.4639999568462372
1772701727722630100,0.829630126953125,-0.7879205346107483,1.3116480112075806,1.2393258810043335
1772701727732678100,0.83967822265625,-0.7007138133049011,0.45782220363616943,1.8428034782409668
1772701727742726100,0.84972607421875,-0.12054655700922012,-0.17448894679546356,2.1592512130737305
1772701727752775200,0.859775146484375,0.5280945897102356,-0.3290003538131714,2.094862699508667
1772701727762823200,0.8698232421875,1.107637882232666,0.0952497273683548,1.6608238220214844
1772701727772871200,0.87987109375,1.5485597848892212,0.5196473598480225,1.2274489402770996
1772701727782919200,0.889919189453125,1.7761064767837524,0.7008101940155029,1.0119379758834839
1772701727792968200,0.89996826171875,1.7227349281311035,0.7547040581703186,0.9739766716957092
1772701727803016200,0.91001611328125,1.5029783248901367,0.7612866163253784,1.005755066871643
1772701727813064200,0.920064208984375,1.2371864318847656,0.749723494052887,0.9804992079734802
1772701727823113200,0.93011328125,1.0036208629608154,0.6372912526130676,0.9752482175827026
1772701727833161200,0.9401611328125,0.8434932827949524,0.4067748785018921,1.0794801712036133
1772701727843209200,0.950209228515625,0.6998224258422852,0.24712292850017548,1.150014042854309
1772701727853257200,0.96025732421875,0.5826792120933533,0.3281801640987396,1.1456276178359985
1772701727863306000,0.970305908203125,0.5079938173294067,0.5297660231590271,1.0835392475128174
1772701727873354200,0.980354248046875,0.43131154775619507,0.7296944260597229,1.0303230285644531
1772701727883402000,0.990402099609375,0.33874833583831787,0.8079338073730469,1.0300090312957764
1772701727893451300,1.000451171875,0.19437947869300842,0.7740727663040161,1.032111406326294
1772701727903499000,1.0104990234375,0.013453365303575993,0.7805008292198181,1.004774808883667
1772701727913547000,1.020547119140625,-0.16422317922115326,0.8272219300270081,0.9411803483963013
1772701727923596000,1.030595947265625,-0.26259979605674744,0.8956974148750305,0.8342738747596741
1772701727933644000,1.04064404296875,-0.2622528076171875,0.914027750492096,0.6982336640357971
1772701727943692300,1.0506923828125,-0.22480501234531403,0.8632327318191528,0.5457237958908081
1772701727953740000,1.060739990234375,-0.1809065043926239,0.8483877778053284,0.4407953917980194
1772701727963789300,1.070789306640625,-0.14201636612415314,0.7803413271903992,0.37875545024871826
1772701727973837000,1.080837158203125,-0.12178332358598709,0.7252334952354431,0.34339553117752075
1772701727983885000,1.090885009765625,-0.132111594080925,0.7021678686141968,0.3221200704574585
1772701727993934000,1.10093408203125,-0.19158977270126343,0.5643332600593567,0.2515401542186737
1772701728003982000,1.110982177734375,-0.2967316210269928,0.2840408682823181,0.1240471750497818
1772701728014030300,1.1210302734375,-0.3656162619590759,0.03472211956977844,-0.018483083695173264
1772701728024078000,1.131078125,-0.387056827545166,-0.18799804151058197,-0.15715228021144867
1772701728034127400,1.14112744140625,-0.4110209345817566,-0.34202274680137634,-0.26523667573928833
1772701728044175000,1.151175048828125,-0.4893476963043213,-0.33267027139663696,-0.3280329406261444
1772701728054223000,1.16122314453125,-0.603160560131073,-0.11704497784376144,-0.38237109780311584
1772701728064272100,1.171272216796875,-0.693562924861908,0.3499978482723236,-0.4203816056251526
1772701728074320100,1.181320068359375,-0.8116467595100403,1.036948561668396,-0.38532736897468567
1772701728084368100,1.1913681640625,-1.0061677694320679,1.7317280769348145,-0.49970775842666626
1772701728094416100,1.201416015625,-1.7833459377288818,1.7815062999725342,-1.1282153129577637
1772701728104465200,1.211465087890625,-3.080308437347412,1.708876371383667,-1.7125142812728882
1772701728114513200,1.22151318359375,-3.6771011352539062,0.9724479913711548,-1.6294260025024414
1772701728124561200,1.23156103515625,-2.9197206497192383,-1.0135351419448853,-0.8955592513084412
1772701728134610200,1.241610107421875,-1.7764897346496582,-3.059784173965454,-0.3970521092414856
1772701728144658200,1.251658203125,-0.3519665002822876,-3.900325059890747,-0.2869117558002472
1772701728154706200,1.2617060546875,1.3800240755081177,-3.5415406227111816,-0.3027263283729553
1772701728164754200,1.271754150390625,2.3461992740631104,-2.2998528480529785,-0.5045742392539978
1772701728174803200,1.28180322265625,2.575904369354248,-0.8348823189735413,-0.7049521803855896
1772701728184851200,1.291851318359375,2.2727982997894287,0.29436084628105164,-0.5801466107368469
1772701728194899200,1.301899169921875,1.7937381267547607,0.9240576028823853,-0.22306138277053833
1772701728204948500,1.311948486328125,1.3236536979675293,1.2064930200576782,0.13770906627178192
1772701728214996200,1.321996337890625,0.9054410457611084,1.1979178190231323,0.3815856873989105
1772701728225044500,1.33204443359375,0.4724821448326111,0.9748868346214294,0.5015611052513123
1772701728235093200,1.34209326171875,0.09452763199806213,0.6693412661552429,0.604732871055603
1772701728245141500,1.3521416015625,-0.15208905935287476,0.3492351770401001,0.7422673106193542
1772701728255189500,1.362189453125,-0.20961780846118927,0.13011763989925385,0.8346388936042786
1772701728265237200,1.3722373046875,-0.11722156405448914,0.07728052139282227,0.8167938590049744
1772701728275286500,1.38228662109375,0.06377675384283066,0.11496976763010025,0.6800609827041626
1772701728285334300,1.392334228515625,0.2485189139842987,0.1333964467048645,0.463351309299469
1772701728295382500,1.402382568359375,0.41888317465782166,0.12887339293956757,0.23839479684829712
1772701728305431300,1.412431396484375,0.5226390957832336,0.11044219136238098,0.07226227968931198
1772701728315479600,1.4224794921875,0.5087458491325378,0.060572341084480286,-0.02561437524855137
1772701728325527600,1.432527587890625,0.43395891785621643,-0.07689151167869568,-0.043760355561971664
1772701728335575300,1.4425751953125,0.3524225652217865,-0.2260776162147522,0.025408022105693817
1772701728345624300,1.452624267578125,0.24829910695552826,-0.2309456169605255,0.07505786418914795
1772701728355672300,1.46267236328125,0.15630878508090973,-0.10738503187894821,0.12327375262975693
1772701728365720600,1.472720458984375,0.0904884859919548,0.18226301670074463,0.18477173149585724
1772701728375769300,1.482769287109375,0.03852752596139908,0.5751321315765381,0.2652306854724884
1772701728385817600,1.492817626953125,-0.013261903077363968,0.9485981464385986,0.3503168225288391
1772701728395865300,1.502865234375,-0.03978857398033142,1.1851754188537598,0.39107659459114075
1772701728405913300,1.512913330078125,-0.06007120758295059,1.3370217084884644,0.38619157671928406
1772701728415962400,1.52296240234375,-0.09111620485782623,1.3693597316741943,0.3312036097049713
1772701728426010400,1.53301025390625,-0.1690932959318161,1.2833327054977417,0.24895931780338287
1772701728436058600,1.54305859375,-0.2869786322116852,1.1432305574417114,0.10379000008106232
1772701728446107400,1.553107421875,-0.46469590067863464,0.9312186241149902,-0.12016133964061737
1772701728456155600,1.56315576171875,-0.6359947323799133,0.7273176908493042,-0.4362832307815552
1772701728466203400,1.573203369140625,-0.7870867848396301,0.6246514916419983,-0.7283300161361694
1772701728476251400,1.58325146484375,-0.9651020765304565,0.5244482159614563,-0.9087110757827759
1772701728486300400,1.593300537109375,-1.1128093004226685,0.40201470255851746,-1.001350998878479
1772701728496348400,1.603348388671875,-1.1460731029510498,0.30735281109809875,-1.1107617616653442
1772701728506396400,1.613396484375,-1.1676753759384155,0.09751329571008682,-1.2954440116882324
1772701728516445400,1.623445556640625,-1.2944732904434204,-0.5069662928581238,-1.6199034452438354
1772701728526493400,1.633493408203125,-1.495875358581543,-1.3114513158798218,-1.9335455894470215
1772701728536541400,1.64354150390625,-1.6728551387786865,-1.8560136556625366,-2.1109812259674072
1772701728546589400,1.65358935546875,-1.7667946815490723,-2.2248592376708984,-2.1742451190948486
1772701728556638500,1.663638427734375,-1.803092122077942,-2.611050605773926,-2.167243242263794
1772701728566686500,1.6736865234375,-1.7178072929382324,-2.7843706607818604,-2.062967538833618
1772701728576734500,1.683734375,-1.390836238861084,-2.581937789916992,-1.8416633605957031
1772701728586783500,1.693783447265625,-0.8349750638008118,-1.9768627882003784,-1.4219452142715454
1772701728596831500,1.70383154296875,-0.17141473293304443,-1.2834995985031128,-0.8468277454376221
1772701728606879500,1.71387939453125,0.3349890410900116,-0.8484587073326111,-0.24699704349040985
1772701728616927500,1.723927490234375,0.5923550128936768,-0.7177972197532654,0.358958899974823
1772701728626976500,1.7339765625,0.6780808568000793,-1.0469250679016113,1.0328257083892822
1772701728637024500,1.7440244140625,0.7583077549934387,-1.7238036394119263,1.8110698461532593
1772701728647072500,1.754072509765625,0.7685950398445129,-2.22381591796875,2.5308361053466797
1772701728657121500,1.76412158203125,0.6794942617416382,-1.8684477806091309,2.7197558879852295
1772701728667169300,1.774169189453125,0.5849610567092896,-0.8417221903800964,2.5140788555145264
1772701728677217500,1.784217529296875,0.5315343141555786,0.23021282255649567,2.176931858062744
1772701728687266300,1.794266357421875,0.5269118547439575,1.0397698879241943,1.7900747060775757
1772701728697314600,1.804314453125,0.5907073020935059,1.7872700691223145,1.4885691404342651
1772701728707362300,1.8143623046875,0.7633139491081238,2.5064351558685303,1.322024941444397
1772701728717410600,1.82441064453125,1.0289087295532227,3.0501651763916016,1.2486389875411987
1772701728727459300,1.834459228515625,1.258108377456665,3.3940720558166504,1.248528003692627
1772701728737507300,1.84450732421875,1.420079231262207,3.4213979244232178,1.3779442310333252
1772701728747555600,1.8545556640625,1.560853362083435,3.2080535888671875,1.6143434047698975
1772701728757604400,1.864604248046875,1.684789776802063,3.1493725776672363,1.8850648403167725
1772701728767652600,1.874652587890625,1.801552414894104,3.250640392303467,2.0620973110198975
1772701728777700400,1.884700439453125,1.9232869148254395,3.4396910667419434,1.9863591194152832
1772701728787748400,1.894748291015625,2.0285298824310303,3.668588638305664,1.7616198062896729
1772701728797797400,1.90479736328125,2.1331868171691895,3.814595937728882,1.380098819732666
1772701728807845400,1.914845458984375,2.1231119632720947,3.7523927688598633,0.8443895578384399
1772701728817893600,1.9248935546875,1.9823616743087769,3.5868852138519287,0.1976277381181717
1772701728827942400,1.9349423828125,1.839792013168335,3.4159865379333496,-0.4122569262981415
1772701728837990400,1.944990478515625,1.7556688785552979,3.1733906269073486,-0.8283119797706604
1772701728848038400,1.955038330078125,1.670716643333435,2.5541317462921143,-1.0482827425003052
1772701728858086400,1.96508642578125,1.4843626022338867,1.5132499933242798,-1.0015603303909302
1772701728868135400,1.975135498046875,1.0802068710327148,0.5158898830413818,-0.675061821937561
1772701728878183400,1.985183349609375,0.5174293518066406,-0.44375911355018616,-0.1792556643486023
1772701728888231400,1.9952314453125,-0.07738500833511353,-1.549750804901123,0.3197174072265625
1772701728898280400,2.005280517578125,-0.5538151860237122,-2.6415226459503174,0.6686467528343201
1772701728908328400,2.015328369140625,-0.8037475347518921,-3.5332281589508057,0.8574464917182922
1772701728918376400,2.02537646484375,-0.8846237063407898,-4.108345031738281,0.8578730821609497
1772701728928424400,2.035424560546875,-0.9247679114341736,-4.354249477386475,0.6340023875236511
1772701728938473500,2.045473388671875,-1.0662353038787842,-4.285846710205078,0.1717248558998108
1772701728948521500,2.055521484375,-1.3886117935180664,-3.852532386779785,-0.4256865978240967
1772701728958569500,2.065569580078125,-1.6894017457962036,-3.4791147708892822,-0.9922674894332886
1772701728968618500,2.075618408203125,-1.8887097835540771,-3.4303150177001953,-1.3936151266098022
1772701728978666500,2.08566650390625,-1.9155040979385376,-3.665985345840454,-1.493068814277649
1772701728988714500,2.095714599609375,-1.6851199865341187,-4.000819206237793,-1.4739497900009155
1772701728998762500,2.105762451171875,-1.1295233964920044,-3.98555064201355,-1.4715328216552734
1772701729008811500,2.1158115234375,-0.4469236135482788,-2.7937474250793457,-1.5593196153640747
1772701729018859300,2.125859375,-0.6725431084632874,-0.6321545839309692,-1.9623123407363892
1772701729028907500,2.135907470703125,-2.1895060539245605,0.5877619981765747,-2.6093366146087646
1772701729038956300,2.145956298828125,-4.065213680267334,0.18894772231578827,-3.0631303787231445
1772701729049004500,2.156004638671875,-5.3367695808410645,-0.6136427521705627,-3.0983543395996094
1772701729059052500,2.166052490234375,-5.5844407081604,-0.8414310812950134,-2.9066948890686035
1772701729069101300,2.176101318359375,-5.113619327545166,-1.2232389450073242,-2.5966360569000244
1772701729079149600,2.186149658203125,-3.6021227836608887,-2.390860080718994,-1.720814824104309
1772701729089197300,2.196197265625,-2.195263385772705,-3.132053852081299,-0.9692489504814148
1772701729099245600,2.20624560546875,-0.8904187679290771,-2.193774700164795,-0.7726415395736694
1772701729109294300,2.21629443359375,0.7369553446769714,-1.0347737073898315,-0.6169725656509399
1772701729119342600,2.226342529296875,1.840859293937683,-0.09706880897283554,-0.24077492952346802
1772701729129390600,2.236390625,2.262831211090088,0.07317056506872177,0.22057564556598663
1772701729139439400,2.246439453125,2.3851094245910645,0.2471136748790741,0.39037296175956726
1772701729149487600,2.256487548828125,2.368824005126953,0.5576691031455994,0.42760130763053894
1772701729159535400,2.266535400390625,2.1614952087402344,0.7961465716362,0.5016347169876099
1772701729169583600,2.27658349609375,1.7515965700149536,0.8264868855476379,0.632090151309967
1772701729179632400,2.28663232421875,1.1349669694900513,0.5435446500778198,0.895024836063385
1772701729189680400,2.296680419921875,0.5128663182258606,0.22569024562835693,1.078894853591919
1772701729199728000,2.30672802734375,0.09313672035932541,0.107759028673172,0.897826075553894
1772701729209777000,2.31677685546875,-0.18307888507843018,0.11347790062427521,0.4771459698677063
1772701729219825200,2.3268251953125,-0.41427063941955566,0.1840187907218933,0.07580539584159851
1772701729229873000,2.336872802734375,-0.5515331029891968,0.25288814306259155,-0.15827208757400513
1772701729239921000,2.3469208984375,-0.6181201934814453,0.4030287563800812,-0.2711823284626007
1772701729249970000,2.356969970703125,-0.6137499213218689,0.5448287725448608,-0.2998850643634796
1772701729260018000,2.367017822265625,-0.5098133683204651,0.6328468918800354,-0.2295197695493698
1772701729270066000,2.37706591796875,-0.35564881563186646,0.6478830575942993,-0.11580465734004974
1772701729280115000,2.387114990234375,-0.21094250679016113,0.5572401881217957,-0.025212090462446213
1772701729290163000,2.397162841796875,-0.10248447209596634,0.44548115134239197,0.015059697441756725
1772701729300211000,2.4072109375,-0.012903389520943165,0.41686806082725525,0.04166556894779205
1772701729310259000,2.417259033203125,0.07819829136133194,0.4162917733192444,0.12969635426998138
1772701729320308000,2.427307861328125,0.0706009715795517,0.5226864814758301,0.13240748643875122
1772701729330356000,2.43735595703125,0.1041506752371788,0.6271321773529053,0.04458122327923775
1772701729340404000,2.447404052734375,0.1711086928844452,0.6263538599014282,0.021239355206489563
1772701729350453000,2.457452880859375,0.27304357290267944,0.5388647317886353,0.06050340458750725
1772701729360501000,2.4675009765625,0.39189091324806213,0.43877607583999634,0.150138258934021
1772701729370549000,2.477549072265625,0.5082625150680542,0.426886647939682,0.23708781599998474
1772701729380598000,2.487597900390625,0.5496895909309387,0.6841991543769836,0.19732576608657837
1772701729390646000,2.49764599609375,0.581723690032959,1.065675973892212,0.01868118904531002
1772701729400694000,2.507694091796875,0.6581100821495056,1.334391713142395,-0.15809616446495056
1772701729410742000,2.517741943359375,0.6965147256851196,1.3332343101501465,-0.2696778178215027
1772701729420790800,2.527790771484375,0.6561324000358582,1.0747268199920654,-0.27283596992492676
1772701729430839000,2.537839111328125,0.48331505060195923,0.6540775895118713,-0.2199258804321289
1772701729440887000,2.547886962890625,0.3573957681655884,0.1944940984249115,-0.2067546397447586
1772701729450935800,2.557935791015625,0.2605019807815552,-0.17085325717926025,-0.27605435252189636
1772701729460984000,2.567984130859375,0.20651276409626007,-0.3494890630245209,-0.45364779233932495
1772701729471031800,2.57803173828125,0.21364976465702057,-0.44586485624313354,-0.649246335029602
1772701729481080000,2.588080078125,0.22290506958961487,-0.5787439346313477,-0.7013356685638428
1772701729491128800,2.59812890625,0.2457701712846756,-0.6867734789848328,-0.6015105247497559
1772701729501176800,2.6081767578125,0.2308913916349411,-0.8227514624595642,-0.3571273982524872
1772701729511225000,2.61822509765625,0.11094288527965546,-0.9428954720497131,-0.015627330169081688
1772701729521273900,2.62827392578125,-0.12842771410942078,-1.0128777027130127,0.2236860692501068
1772701729531322000,2.638322021484375,-0.43793123960494995,-1.2258751392364502,0.30783504247665405
1772701729541369900,2.648369873046875,-0.7553672194480896,-1.5047283172607422,0.22139379382133484
1772701729551418000,2.658418212890625,-1.0234804153442383,-1.5835267305374146,-0.02350756525993347
1772701729561467000,2.668466796875,-1.0991127490997314,-1.4387989044189453,-0.2440803498029709
1772701729571515000,2.678514892578125,-0.9825718998908997,-1.3010380268096924,-0.3869948983192444
1772701729581563000,2.68856298828125,-0.8568429350852966,-1.3415100574493408,-0.5444916486740112
1772701729591612000,2.69861181640625,-0.9300415515899658,-1.3840851783752441,-0.8880156874656677
1772701729601660000,2.708659912109375,-1.0683553218841553,-1.504088282585144,-1.4586423635482788
1772701729611708000,2.7187080078125,-0.9856674671173096,-2.4286065101623535,-1.6050363779067993
1772701729621756000,2.728755859375,-0.396002858877182,-4.511042594909668,-0.646950364112854
1772701729631805000,2.738804931640625,0.5711674690246582,-5.938242435455322,0.7684864401817322
1772701729641853000,2.74885302734375,1.5575379133224487,-5.635695457458496,1.911902904510498
1772701729651901000,2.75890087890625,2.256697416305542,-2.878586769104004,2.1754226684570312
1772701729661950000,2.768949951171875,2.3687851428985596,0.7453402280807495,1.9120115041732788
1772701729671998000,2.778998046875,1.9383600950241089,2.9576361179351807,1.9245814085006714
1772701729682046000,2.7890458984375,1.4910415410995483,3.7244601249694824,2.2065482139587402
1772701729692094000,2.799093994140625,1.2189477682113647,3.857731580734253,2.6231637001037598
1772701729702143000,2.80914306640625,1.0501561164855957,4.124517440795898,2.949504852294922
1772701729712191000,2.81919091796875,0.9718523025512695,4.627482891082764,3.0065157413482666
1772701729722239000,2.829239013671875,1.04531991481781,5.2668375968933105,2.710439443588257
1772701729732288000,2.8392880859375,1.2154775857925415,5.87238073348999,2.042844772338867
1772701729742336000,2.8493359375,1.334585428237915,6.23356819152832,1.1877833604812622
1772701729752384000,2.859384033203125,1.3605437278747559,5.789597988128662,0.5602601170539856
1772701729762433000,2.86943310546875,1.3368350267410278,4.979342937469482,0.13757935166358948
1772701729772481000,2.87948095703125,1.3741464614868164,4.1063995361328125,-0.012760622426867485
1772701729782528800,2.88952880859375,1.471091389656067,3.1804146766662598,-0.04117976874113083
1772701729792577000,2.899576904296875,1.5261437892913818,2.286749839782715,-0.049708541482686996
1772701729802625800,2.909625732421875,1.5453003644943237,1.2728939056396484,-0.02126704901456833
1772701729812674000,2.919674072265625,1.466746211051941,-0.0684322863817215,0.054816532880067825
1772701729822722000,2.92972216796875,1.2684876918792725,-1.3361440896987915,0.12745746970176697
1772701729832771000,2.93977099609375,1.0967220067977905,-2.2456564903259277,0.19875481724739075
1772701729842819000,2.949819091796875,1.0276894569396973,-2.6959681510925293,0.1964404135942459
1772701729852866800,2.95986669921875,0.980797290802002,-2.9291419982910156,0.14575938880443573
1772701729862915000,2.9699150390625,0.8721213340759277,-3.030673027038574,0.062155257910490036
1772701729872963800,2.9799638671875,0.6060041785240173,-3.0657262802124023,-0.026649177074432373
1772701729883012000,2.99001220703125,0.19069094955921173,-3.147919178009033,-0.18720151484012604
1772701729893060000,3.00006005859375,-0.21940895915031433,-3.115579843521118,-0.3963315486907959
1772701729903108900,3.01010888671875,-0.5424509644508362,-2.938478946685791,-0.6167085766792297
1772701729913156900,3.020156982421875,-0.7649833559989929,-2.827476978302002,-0.7851500511169434
1772701729923204900,3.030204833984375,-0.8446143269538879,-2.587526559829712,-0.869778037071228
1772701729933253000,3.040253173828125,-0.5601661205291748,-1.7860625982284546,-0.9738189578056335
1772701729943302000,3.050302001953125,-0.22729721665382385,-0.9083474278450012,-0.8433758020401001
1772701729953350100,3.06035009765625,-0.36901333928108215,-0.8239140510559082,-0.5447028279304504
1772701729963398000,3.07039794921875,-0.9205005168914795,-1.3416496515274048,-0.3028997778892517
1772701729973447000,3.080447021484375,-1.6229757070541382,-2.220608711242676,-0.18923021852970123
1772701729983495000,3.090494873046875,-2.280074119567871,-3.1785190105438232,-0.44131937623023987
1772701729993543000,3.10054296875,-2.870934247970581,-3.8715455532073975,-1.119948148727417
1772701730003592000,3.110592041015625,-3.564279556274414,-4.303922653198242,-2.130244255065918
1772701730013640000,3.120639892578125,-4.024425506591797,-4.4526753425598145,-3.322620391845703
1772701730023688000,3.13068798828125,-3.967776298522949,-4.354025363922119,-4.6547932624816895
1772701730033736000,3.14073583984375,-3.605712890625,-4.040234565734863,-6.2541117668151855
1772701730043785000,3.150784912109375,-3.3423912525177,-4.411137104034424,-8.30141544342041
1772701730053833000,3.1608330078125,-3.4311256408691406,-5.493374347686768,-10.035770416259766
1772701730063881000,3.170880859375,-3.3459906578063965,-7.442043304443359,-9.794116973876953
1772701730073930000,3.180929931640625,-2.655186891555786,-8.22356128692627,-6.688007354736328
1772701730083978000,3.19097802734375,-0.7461859583854675,-8.640111923217773,-3.297163724899292
1772701730094025700,3.201025634765625,0.39514684677124023,-8.005675315856934,0.4868347644805908
1772701730104074000,3.211073974609375,0.9472447037696838,-4.551590442657471,2.499523639678955
1772701730114122800,3.221122802734375,1.7557533979415894,-1.1153407096862793,2.483706474304199
1772701730124171000,3.2311708984375,1.6301127672195435,1.3687057495117188,1.8843474388122559
1772701730134219000,3.241218994140625,0.9454146027565002,1.8814646005630493,1.9691838026046753
1772701730144268000,3.25126806640625,0.666684627532959,1.499695897102356,2.3609817028045654
1772701730154316000,3.26131591796875,0.9078503847122192,1.2331616878509521,2.7392351627349854
1772701730164363800,3.27136376953125,1.4053051471710205,1.3847615718841553,3.0124568939208984
1772701730174412000,3.281412109375,1.763586401939392,1.4234986305236816,3.1201303005218506
1772701730184460800,3.291460693359375,1.712945818901062,1.3025647401809692,2.9559061527252197
1772701730194509000,3.301509033203125,1.4447681903839111,1.0449039936065674,2.5488944053649902
1772701730204557000,3.31155712890625,1.0460374355316162,0.6798266172409058,1.9408882856369019
1772701730214606000,3.321606201171875,0.6033549308776855,0.2569834589958191,1.2307358980178833
1772701730224654000,3.331654052734375,0.24953016638755798,-0.053556397557258606,0.5575556755065918
1772701730234701800,3.341701904296875,0.17821070551872253,-0.15347473323345184,0.10466410219669342
1772701730244750000,3.35175,0.355033814907074,0.03728977590799332,-0.10771051049232483
1772701730254798800,3.361798828125,0.5385298728942871,0.3386642634868622,-0.2063601315021515
1772701730264847000,3.37184716796875,0.6158800721168518,0.6093650460243225,-0.16806423664093018
1772701730274894800,3.381894775390625,0.6336116790771484,0.7093873023986816,0.026718031615018845
1772701730284944100,3.391944091796875,0.6549832224845886,0.7121913433074951,0.3767298460006714
1772701730294992000,3.401991943359375,0.7200852632522583,0.7368401885032654,0.8504793047904968
1772701730305040000,3.412039794921875,0.8100132942199707,0.8857272267341614,1.4317824840545654
1772701730315089000,3.4220888671875,0.921994149684906,1.1584112644195557,2.1154308319091797
1772701730325137000,3.432136962890625,1.0297110080718994,1.34872567653656,2.7561841011047363
1772701730335185200,3.44218505859375,1.1481430530548096,1.4327462911605835,3.189023971557617
1772701730345233000,3.45223291015625,1.3116968870162964,1.185716152191162,3.4346184730529785
1772701730355282200,3.4622822265625,1.5394954681396484,0.8112752437591553,3.5498571395874023
1772701730365330000,3.472329833984375,1.6769545078277588,0.7128394246101379,3.5132617950439453
1772701730375378000,3.4823779296875,1.7451319694519043,0.9577365517616272,3.3382060527801514
1772701730385427000,3.492427001953125,1.669325828552246,1.4172669649124146,2.679845094680786
1772701730395475000,3.502474853515625,1.192046880722046,1.7799692153930664,1.2977302074432373
1772701730405523000,3.51252294921875,0.2294599413871765,1.5315076112747192,-0.27474623918533325
1772701730415571000,3.522571044921875,-0.5263577103614807,0.8368875980377197,-0.7743446230888367
1772701730425620000,3.532619873046875,-0.5499517321586609,0.45279353857040405,-0.4611411392688751
1772701730435668000,3.54266796875,-0.37943515181541443,0.1854688674211502,-0.26270791888237
1772701730445716000,3.552716064453125,-0.31143689155578613,-0.09941417723894119,-0.27805888652801514
1772701730455765000,3.562764892578125,-0.41422104835510254,-0.5194745659828186,-0.4243852198123932
1772701730465813000,3.57281298828125,-0.6267156600952148,-1.103959321975708,-0.6599792242050171
1772701730475860700,3.58286083984375,-0.793688952922821,-1.7267554998397827,-0.9310802221298218
1772701730485909000,3.592908935546875,-0.834831953048706,-2.162163019180298,-1.0701401233673096
1772701730495957800,3.602957763671875,-0.8798452615737915,-2.492525100708008,-1.1041699647903442
1772701730506006000,3.613006103515625,-0.9441512823104858,-2.8388986587524414,-1.03927481174469
1772701730516054000,3.623053955078125,-0.957817018032074,-3.099323034286499,-0.6932585835456848
1772701730526103000,3.63310302734375,-0.9356003403663635,-3.0810601711273193,-0.18529348075389862
1772701730536151000,3.643151123046875,-0.8743466138839722,-2.4284143447875977,0.12096498906612396
1772701730546198800,3.65319873046875,-0.7751978635787964,-1.3209271430969238,0.045100998133420944
1772701730556248000,3.663248046875,-0.7818895578384399,-0.4160420596599579,-0.0199110247194767
1772701730566295800,3.6732958984375,-0.9373141527175903,-0.00581969041377306,-0.07554756104946136
1772701730576344000,3.683343994140625,-1.0937013626098633,-0.19706687331199646,-0.17053106427192688
1772701730586391800,3.693391845703125,-1.1597663164138794,-0.742268443107605,-0.26021715998649597
1772701730596441000,3.703441162109375,-1.1631014347076416,-1.0593278408050537,-0.37027496099472046
1772701730606488800,3.71348876953125,-1.052590250968933,-0.7081924080848694,-0.47977930307388306
1772701730616536800,3.723536865234375,-0.8182423114776611,-0.0803290605545044,-0.348951518535614
1772701730626585900,3.7335859375,-0.5240368843078613,0.2150915414094925,0.1683603674173355
1772701730636633900,3.7436337890625,-0.4117872714996338,0.8856770992279053,0.86191326379776
1772701730646682000,3.75368212890625,-0.22964856028556824,1.612043857574463,1.3778842687606812
1772701730656729900,3.763729736328125,-0.022720942273736,1.4694491624832153,1.6990453004837036
1772701730666779100,3.773779052734375,0.10694973915815353,1.3987902402877808,1.8705805540084839
1772701730676827000,3.783826904296875,0.16571345925331116,1.6690113544464111,1.767388939857483
1772701730686875000,3.793875,0.19256369769573212,1.7157648801803589,1.5105301141738892
1772701730696924000,3.803923828125,0.21811753511428833,1.3384379148483276,1.2282938957214355
1772701730706972000,3.813971923828125,0.3090498447418213,0.9882479906082153,1.0052555799484253
1772701730717020200,3.824020263671875,0.4912889003753662,0.7843428254127502,0.7756476998329163
1772701730727068000,3.83406787109375,0.7682483196258545,0.783957302570343,0.569271981716156
1772701730737117000,3.844116943359375,1.0190507173538208,0.9362989068031311,0.38811415433883667
1772701730747165000,3.8541650390625,1.274267554283142,1.160239815711975,0.2093198448419571
1772701730757213000,3.864212890625,1.4616392850875854,1.5543889999389648,-0.05897099897265434
1772701730767262000,3.874261962890625,1.5132031440734863,2.0641026496887207,-0.4015772342681885
1772701730777310000,3.88431005859375,1.4479432106018066,2.428166151046753,-0.7200194001197815
1772701730787358000,3.89435791015625,1.2962603569030762,2.5166454315185547,-0.9470515251159668
1772701730797407000,3.904406982421875,1.0860179662704468,2.335530996322632,-0.9761782288551331
1772701730807455000,3.914455078125,0.8378143906593323,1.8655325174331665,-0.7408767938613892
1772701730817503000,3.9245029296875,0.575213611125946,1.0761804580688477,-0.30964869260787964
1772701730827551000,3.934551025390625,0.3009447455406189,0.27732595801353455,0.0791127160191536
1772701730837600000,3.94460009765625,0.00030049256747588515,-0.17252694070339203,0.11652533710002899
1772701730847648000,3.95464794921875,-0.3215799927711487,-0.1117800623178482,-0.22365425527095795
1772701730857696000,3.964696044921875,-0.6320627331733704,0.43520766496658325,-0.8318512439727783
1772701730867745000,3.9747451171875,-0.8887484669685364,1.2288970947265625,-1.2960267066955566
1772701730877792800,3.984792724609375,-1.0708202123641968,1.9149314165115356,-1.343747854232788
1772701730887841000,3.994841064453125,-1.032180666923523,2.1463418006896973,-1.1083751916885376
1772701730897889000,4.004888916015625,-0.7752224206924438,1.8233615159988403,-0.7410624623298645
1772701730907938000,4.01493798828125,-0.40508565306663513,1.1614683866500854,-0.3620544970035553
1772701730917985800,4.02498583984375,-0.10471037030220032,0.3073447346687317,-0.08750549703836441
1772701730928034000,4.035033935546875,-0.007574457209557295,-0.35589033365249634,0.06353510916233063
1772701730938082800,4.045082763671875,-0.053497474640607834,-0.8322504758834839,0.09697029739618301
1772701730948130800,4.055130859375,-0.16278617084026337,-1.3407261371612549,0.04289736971259117
1772701730958179000,4.065178955078125,-0.2981855273246765,-1.910588264465332,-0.10366516560316086
1772701730968226800,4.075226806640625,-0.40631788969039917,-2.472696542739868,-0.3167704641819
1772701730978276000,4.085276123046875,-0.42580634355545044,-3.195110559463501,-0.37663671374320984
1772701730988323800,4.09532373046875,-0.27379947900772095,-4.210235595703125,-0.16923321783542633
1772701730998371800,4.105371826171875,0.13427431881427765,-5.740148067474365,0.4462265074253082
1772701731008420900,4.1154208984375,0.6844103932380676,-7.245956897735596,1.4152114391326904
1772701731018468900,4.12546875,1.061110496520996,-7.801177501678467,2.0690207481384277
1772701731028517000,4.13551708984375,1.143219232559204,-7.727849006652832,2.48148775100708
1772701731038566000,4.14556591796875,1.136803150177002,-6.28541898727417,2.612083911895752
1772701731048614100,4.1556142578125,1.3165799379348755,-2.2699735164642334,2.4084877967834473
1772701731058662000,4.165661865234375,1.3889095783233643,4.238015174865723,1.7214324474334717
1772701731068710000,4.1757099609375,1.2889341115951538,9.276009559631348,0.8368721008300781
1772701731078759000,4.185759033203125,0.529044508934021,10.128705978393555,-0.14523087441921234
1772701731088807000,4.195806884765625,0.12773723900318146,7.366363048553467,-0.49150359630584717
1772701731098855000,4.20585498046875,0.26277148723602295,4.058274745941162,-0.39292001724243164
1772701731108904000,4.215904052734375,0.2863335907459259,1.5818148851394653,-0.19870521128177643
1772701731118952000,4.225951904296875,0.3819565176963806,0.4512210190296173,0.07952933758497238
1772701731129000000,4.236,0.38365134596824646,0.05491264909505844,0.23963023722171783
1772701731139048000,4.2460478515625,0.29566502571105957,-0.17252130806446075,0.38823622465133667
1772701731149097000,4.256096923828125,0.16352830827236176,-0.6566224694252014,0.5172322988510132
1772701731159145000,4.26614501953125,-0.022573379799723625,-1.4695295095443726,0.5019574761390686
1772701731169193000,4.27619287109375,-0.13032250106334686,-2.252002239227295,0.39450812339782715
1772701731179242000,4.286241943359375,-0.23906975984573364,-2.5762205123901367,0.19722700119018555
1772701731189290000,4.2962900390625,-0.20990844070911407,-2.6456334590911865,-0.05569832772016525
1772701731199338000,4.306337890625,-0.08652365952730179,-2.551636219024658,-0.28827086091041565
1772701731209386000,4.316385986328125,0.05255882814526558,-2.4147770404815674,-0.47463178634643555
1772701731219434800,4.326434814453125,0.17154832184314728,-2.3355085849761963,-0.6578559279441833
1772701731229483000,4.33648291015625,0.23184525966644287,-2.2667763233184814,-0.7946160435676575
1772701731239530800,4.34653076171875,0.2223854511976242,-2.1619253158569336,-0.8409231305122375
1772701731249580000,4.356580078125,0.1929415911436081,-1.9599311351776123,-0.7838883399963379
1772701731259627800,4.366627685546875,0.1424134373664856,-1.5770289897918701,-0.6111927032470703
1772701731269675800,4.37667578125,0.004928218200802803,-0.9666674733161926,-0.38022226095199585
1772701731279723800,4.386723876953125,-0.13138461112976074,-0.31679385900497437,-0.2092614322900772
1772701731289772800,4.396772705078125,-0.08419843018054962,0.2793467342853546,-0.10831259936094284
1772701731299820800,4.40682080078125,0.030471425503492355,0.9643236994743347,0.038628652691841125
1772701731309868800,4.416868896484375,0.12961849570274353,1.8569862842559814,0.24830304086208344
1772701731319917800,4.426917724609375,0.19734428822994232,2.872565746307373,0.5086339116096497
1772701731329965800,4.4369658203125,0.2906077206134796,3.6065714359283447,0.8437159657478333
1772701731340013800,4.447013916015625,0.2987481951713562,4.163126468658447,1.2026299238204956
1772701731350062800,4.457062744140625,0.23668265342712402,4.855102062225342,1.529929757118225
1772701731360110800,4.46711083984375,0.21663998067378998,5.576646327972412,1.8093140125274658
1772701731370158800,4.477158935546875,0.2923184037208557,5.928678035736084,1.965417504310608
1772701731380206800,4.487206787109375,0.5085886716842651,5.600680351257324,1.9135761260986328
1772701731390255900,4.497255859375,0.6632630228996277,4.729545593261719,1.5556350946426392
1772701731400303900,4.507303955078125,0.5867836475372314,3.656759738922119,0.9006742835044861
1772701731410351900,4.517351806640625,0.4228655993938446,2.2518255710601807,0.20711374282836914
1772701731420401000,4.52740087890625,0.4497206509113312,1.113281488418579,-0.23308122158050537
1772701731430449000,4.537448974609375,0.5845508575439453,0.6839678287506104,-0.4207068085670471
1772701731440497000,4.547496826171875,0.684904932975769,0.7058888673782349,-0.6344720721244812
1772701731450545000,4.557544921875,0.6569252014160156,0.8852900862693787,-0.8403593301773071
1772701731460594000,4.567593994140625,0.5491020679473877,1.1407079696655273,-0.986148476600647
1772701731470642000,4.577641845703125,0.4144107699394226,1.4312102794647217,-1.0334123373031616
1772701731480689700,4.587689697265625,0.24568915367126465,1.5841279029846191,-0.9524016380310059
1772701731490739000,4.597739013671875,0.06719084084033966,1.5465641021728516,-0.7426468133926392
1772701731500786700,4.60778662109375,-0.06537572294473648,1.3351794481277466,-0.5050579309463501
1772701731510835000,4.6178349609375,-0.17971187829971313,0.9573525190353394,-0.32698389887809753
1772701731520883700,4.6278837890625,-0.2519639730453491,0.6164417862892151,-0.19786959886550903
1772701731530931700,4.637931640625,-0.3238244950771332,0.4044651687145233,-0.029054811224341393
1772701731540980000,4.64797998046875,-0.4895828366279602,0.265809029340744,0.24962103366851807
1772701731551027700,4.65802783203125,-0.6820559501647949,0.0649603009223938,0.5953777432441711
1772701731561077000,4.668076904296875,-0.8707587718963623,-0.36370474100112915,0.7936127781867981
1772701731571124700,4.678124755859375,-0.9984786510467529,-1.1830604076385498,0.7240971326828003
1772701731581173000,4.688173095703125,-1.0754070281982422,-2.1717464923858643,0.3961019217967987
1772701731591221800,4.6982216796875,-1.1209089756011963,-3.0845136642456055,-0.30855265259742737
1772701731601269800,4.708269775390625,-1.0330039262771606,-3.7720634937286377,-1.2399722337722778
1772701731611317800,4.71831787109375,-0.7076971530914307,-4.196774959564209,-2.048884630203247
1772701731621365800,4.72836572265625,-0.5697773694992065,-4.077823638916016,-2.2077136039733887
1772701731631414800,4.738414794921875,-0.5434208512306213,-3.8302366733551025,-2.040355682373047
1772701731641462800,4.748462890625,-0.5007897615432739,-3.449364423751831,-1.70976984500885
1772701731651510800,4.7585107421875,-0.4752494692802429,-3.1676881313323975,-1.2079920768737793
1772701731661559800,4.768559814453125,-0.43755748867988586,-2.936243772506714,-0.6147319078445435
1772701731671607800,4.77860791015625,-0.371574342250824,-2.5411770343780518,-0.028701532632112503
1772701731681655800,4.78865576171875,-0.3100318908691406,-1.970920443534851,0.5215746760368347
1772701731691703800,4.798703857421875,-0.2990947961807251,-1.449602723121643,0.9579818844795227
1772701731701752800,4.8087529296875,-0.36126601696014404,-1.0450888872146606,1.2407888174057007
1772701731711800800,4.81880078125,-0.48478367924690247,-0.7131509184837341,1.4273649454116821
1772701731721848800,4.828848876953125,-0.6098078489303589,-0.2869143784046173,1.5170644521713257
1772701731731897900,4.83889794921875,-0.7086888551712036,0.2709629535675049,1.508662223815918
1772701731741945900,4.84894580078125,-0.6995470523834229,1.0105377435684204,1.4769994020462036
1772701731751993900,4.858993896484375,-0.5856047868728638,1.8493891954421997,1.3873361349105835
1772701731762043000,4.86904296875,-0.21941989660263062,2.527064800262451,1.3781367540359497
1772701731772091000,4.8790908203125,0.10837898403406143,3.3286473751068115,1.442361831665039
1772701731782139000,4.889138916015625,0.3382982015609741,4.237656116485596,1.5137395858764648
1772701731792186600,4.8991865234375,0.49099189043045044,5.235456466674805,1.5600917339324951
1772701731802236000,4.90923583984375,0.5772215723991394,6.215390682220459,1.4881861209869385
1772701731812283600,4.91928369140625,0.42152202129364014,7.148064136505127,0.9373509287834167
1772701731822332000,4.929331787109375,0.08000143617391586,7.498337745666504,-0.0490509495139122
1772701731832380700,4.939380615234375,-0.1718747466802597,5.787481307983398,-1.1129803657531738
1772701731842429000,4.949428955078125,-0.20116817951202393,3.4453623294830322,-1.3303453922271729
1772701731852477000,4.959476806640625,-0.14013466238975525,1.4616504907608032,-0.7717041969299316
1772701731862524700,4.969524658203125,-0.2316717654466629,-0.2953356206417084,-0.10279886424541473
1772701731872574000,4.979573974609375,-0.39879143238067627,-1.1300207376480103,0.351042240858078
1772701731882621700,4.98962158203125,-0.5098095536231995,-1.121497392654419,0.5000021457672119
1772701731892670000,4.999669921875,-0.5966217517852783,-0.7451435923576355,0.4471445083618164
1772701731902718700,5.00971875,-0.660891592502594,-0.3416621685028076,0.38205820322036743
1772701731912767000,5.01976708984375,-0.6775314807891846,0.019561173394322395,0.3282376527786255
1772701731922814700,5.029814697265625,-0.5711592435836792,0.37402498722076416,0.2784682512283325
1772701731932862700,5.03986279296875,-0.3691326975822449,0.62025386095047,0.1666022390127182
1772701731942911700,5.049911865234375,-0.12709902226924896,0.7448740601539612,-0.01528552919626236
1772701731952959700,5.059959716796875,-0.13598760962486267,0.7884446382522583,-0.19011755287647247
1772701731963008000,5.070008056640625,-0.27686724066734314,0.6398288011550903,-0.386528342962265
1772701731973056800,5.080056884765625,-0.39619794487953186,0.30803242325782776,-0.5463926196098328
1772701731983104800,5.090104736328125,-0.46603986620903015,-0.15356235206127167,-0.6337839365005493
1772701731993152800,5.10015283203125,-0.47989487648010254,-0.7121315002441406,-0.6420311331748962
1772701732003200800,5.11020068359375,-0.4405543804168701,-1.3494986295700073,-0.5764763951301575
1772701732013249800,5.120249755859375,-0.2929934561252594,-2.0087342262268066,-0.4566074013710022
1772701732023297800,5.1302978515625,-0.0122305229306221,-2.5963988304138184,-0.3590131998062134
1772701732033346000,5.140345947265625,0.3121912479400635,-3.046463966369629,-0.3344656825065613
1772701732043394800,5.150394775390625,0.6201106905937195,-3.5270726680755615,-0.3209189772605896
1772701732053442800,5.16044287109375,0.9075100421905518,-4.171543598175049,-0.42515408992767334
1772701732063490800,5.17049072265625,1.1271153688430786,-4.725157260894775,-0.7252574563026428
1772701732073539800,5.180539794921875,1.4554308652877808,-5.2221245765686035,-0.9201080799102783
1772701732083587800,5.190587890625,1.7397762537002563,-5.490373134613037,-1.0548696517944336
1772701732093635800,5.2006357421875,1.7877328395843506,-5.2520647048950195,-1.1060879230499268
1772701732103683600,5.21068359375,1.474100112915039,-4.2161946296691895,-0.8716333508491516
1772701732113732900,5.22073291015625,0.8039236664772034,-2.334200859069824,-0.3231772184371948
1772701732123780600,5.230780517578125,0.18291524052619934,0.18926270306110382,0.2607831656932831
1772701732133828900,5.240828857421875,0.20255741477012634,1.6691017150878906,0.7048804759979248
1772701732143877600,5.250877685546875,0.43290460109710693,1.7024197578430176,1.0298011302947998
1772701732153926000,5.26092578125,0.37996020913124084,1.8149665594100952,1.007107138633728
1772701732163974000,5.270973876953125,0.7314631342887878,1.94729745388031,0.6787276864051819
1772701732174023000,5.28102294921875,0.8065011501312256,2.199979305267334,0.3675565719604492
1772701732184071000,5.29107080078125,0.7053257822990417,2.2110021114349365,0.1306859850883484
1772701732194118700,5.30111865234375,0.5136678814888,1.4777789115905762,-0.054353345185518265
1772701732204167400,5.31116748046875,0.2005041092634201,0.5893635153770447,-0.1805189996957779
1772701732214216400,5.321216552734375,-0.13923105597496033,-0.3506077527999878,-0.2819006145000458
1772701732224264400,5.331264404296875,-0.3129921853542328,-1.470873475074768,-0.3461906611919403
1772701732234312200,5.341312255859375,-0.296456903219223,-2.5443663597106934,-0.3797522783279419
1772701732244361500,5.351361572265625,-0.1839977353811264,-3.4574904441833496,-0.4224992096424103
1772701732254409200,5.3614091796875,-0.08871329575777054,-4.310178756713867,-0.4779110550880432
1772701732264457500,5.37145751953125,-0.031940024346113205,-4.806136608123779,-0.5025359988212585
1772701732274505500,5.38150537109375,0.005350644700229168,-4.668421268463135,-0.4864702820777893
1772701732284554500,5.391554443359375,0.02012772671878338,-4.264142036437988,-0.44522562623023987
1772701732294602500,5.4016025390625,-0.029553333297371864,-3.582839012145996,-0.4351685047149658
1772701732304650200,5.411650146484375,-0.10685504227876663,-2.5527126789093018,-0.41400861740112305
1772701732314699500,5.421699462890625,-0.21939678490161896,-1.2867666482925415,-0.3432570695877075
1772701732324747300,5.431747314453125,-0.20817555487155914,-0.2492864727973938,-0.3243044316768646
1772701732334795500,5.44179541015625,-0.07084503024816513,0.7579590678215027,-0.3334418833255768
1772701732344843300,5.45184326171875,0.16213949024677277,1.834923267364502,-0.31726184487342834
1772701732354892500,5.461892578125,0.42488107085227966,2.891822576522827,-0.22242332994937897
1772701732364940300,5.471940185546875,0.6465955972671509,3.8099985122680664,-0.040495868772268295
1772701732374988300,5.48198828125,0.7801821231842041,4.470771312713623,0.20607131719589233
1772701732385037300,5.492037353515625,0.7950095534324646,4.738737106323242,0.47559601068496704
1772701732395085300,5.502085205078125,0.7809179425239563,4.522294998168945,0.7271336317062378
1772701732405133600,5.512133544921875,0.7527965903282166,3.961291790008545,0.8620802164077759
1772701732415181300,5.522181396484375,0.7054905891418457,3.3596901893615723,0.8592519164085388
1772701732425230600,5.532230712890625,0.5868039131164551,2.6432108879089355,0.7733431458473206
1772701732435278300,5.5422783203125,0.4408062696456909,1.9664908647537231,0.7173229455947876
1772701732445326300,5.552326416015625,0.4092182219028473,1.6444824934005737,0.6664435267448425
1772701732455375400,5.562375244140625,0.4790138602256775,1.5977998971939087,0.47837507724761963
1772701732465423400,5.57242333984375,0.5752751231193542,1.4784317016601562,0.1776469647884369
1772701732475471600,5.5824716796875,0.7043395042419434,1.265450358390808,-0.15483656525611877
1772701732485520400,5.592520263671875,0.8329273462295532,1.0148415565490723,-0.40270549058914185
1772701732495568600,5.602568603515625,0.9592456817626953,0.7583211064338684,-0.5141357183456421
1772701732505616400,5.612616455078125,1.1180903911590576,0.5182594656944275,-0.5247308015823364
1772701732515664400,5.622664306640625,1.2018500566482544,0.4620959460735321,-0.5319189429283142
1772701732525713400,5.63271337890625,1.1459647417068481,0.4953599274158478,-0.5697222352027893
1772701732535761400,5.642761474609375,1.0130653381347656,0.4601362943649292,-0.6248713135719299
1772701732545809400,5.652809326171875,0.9146685600280762,0.40662458539009094,-0.8060408234596252
1772701732555858400,5.6628583984375,0.9139890074729919,0.39131203293800354,-1.0877548456192017
1772701732565906400,5.672906494140625,0.925649106502533,0.3521968424320221,-1.3717511892318726
1772701732575954400,5.682954345703125,0.880511999130249,0.25335031747817993,-1.5943959951400757
1772701732586002400,5.69300244140625,0.9576200842857361,0.2793925702571869,-1.6364326477050781
1772701732596051500,5.703051513671875,1.2262730598449707,0.48051080107688904,-1.5255635976791382
1772701732606099500,5.713099365234375,1.512111783027649,0.38865649700164795,-1.4484808444976807
1772701732616147500,5.7231474609375,1.4251697063446045,-0.24698089063167572,-1.4192248582839966
1772701732626196500,5.733196533203125,0.8385376334190369,-1.0263046026229858,-1.4002039432525635
1772701732636244200,5.743244140625,0.2046562284231186,-1.5996323823928833,-1.5820318460464478
1772701732646292500,5.75329248046875,-0.19504962861537933,-1.814844012260437,-1.8656710386276245
1772701732656341200,5.76334130859375,-0.29781675338745117,-1.9311237335205078,-1.8633216619491577
1772701732666389500,5.773389404296875,-0.49909287691116333,-1.4927475452423096,-1.6121299266815186
1772701732676437500,5.7834375,-0.6663106083869934,-0.9571631550788879,-1.0062345266342163
1772701732686485200,5.7934853515625,-0.670897364616394,-0.7802874445915222,-0.2450186312198639
1772701732696534300,5.8035341796875,-0.6882376670837402,-0.773695707321167,0.3588602840900421
1772701732706582300,5.813582275390625,-0.7217455506324768,-0.7080168128013611,0.8117444515228271
1772701732716630500,5.823630615234375,-0.7230492830276489,-0.6791015863418579,1.2093310356140137
1772701732726679300,5.83367919921875,-0.7037938237190247,-0.761656641960144,1.5403376817703247
1772701732736727600,5.8437275390625,-0.7057496309280396,-0.9274994134902954,1.79486083984375
1772701732746775300,5.853775390625,-0.7521426677703857,-1.0425934791564941,1.947810173034668
1772701732756824600,5.863824462890625,-0.7912434935569763,-0.9912760853767395,2.047584295272827
1772701732766872300,5.873872314453125,-0.8225577473640442,-0.8110682368278503,2.043384552001953
1772701732776920300,5.88392041015625,-0.8625323176383972,-0.659768283367157,1.955722451210022
1772701732786968600,5.893968505859375,-0.9097331166267395,-0.4387573301792145,1.8688403367996216
1772701732797017300,5.904017333984375,-0.8945451378822327,0.0014499025419354439,1.7759981155395508
1772701732807065600,5.914065673828125,-0.8407434225082397,0.5734279751777649,1.6064807176589966
1772701732817113300,5.92411328125,-0.8055164217948914,1.1560347080230713,1.3179973363876343
1772701732827162600,5.93416259765625,-0.6827265620231628,1.6621383428573608,0.923011839389801
1772701732837210400,5.94421044921875,-0.4272277057170868,1.9438409805297852,0.4734605848789215
1772701732847258400,5.95425830078125,-0.2614248991012573,1.8474355936050415,0.08420764654874802
1772701732857306400,5.964306396484375,-0.2948014736175537,1.2760109901428223,-0.17825832962989807
1772701732867355400,5.97435546875,-0.4415786862373352,0.49905019998550415,-0.33633825182914734
1772701732877403400,5.9844033203125,-0.37657254934310913,0.0971415713429451,-0.42124438285827637
1772701732887451400,5.994451416015625,-0.3124508261680603,-0.0933828353881836,-0.4939494729042053
1772701732897500400,6.00450048828125,-0.31266653537750244,-0.11351138353347778,-0.5709512829780579
1772701732907548400,6.01454833984375,-0.29785510897636414,-0.052073847502470016,-0.5490861535072327
1772701732917596400,6.024596435546875,-0.24880655109882355,0.025377782061696053,-0.5164485573768616
1772701732927645400,6.0346455078125,-0.15233060717582703,0.015518762171268463,-0.4311819076538086
1772701732937693400,6.044693359375,-0.07308780401945114,-0.17989583313465118,-0.391579270362854
1772701732947741400,6.054741455078125,-0.06471481919288635,-0.4520554542541504,-0.3573070466518402
1772701732957789400,6.06478955078125,-0.05023438110947609,-0.6846525073051453,-0.32450371980667114
1772701732967838500,6.07483837890625,-0.004202442243695259,-0.7918365001678467,-0.2532007694244385
1772701732977886500,6.084886474609375,0.0644032433629036,-0.7661499381065369,-0.13993529975414276
1772701732987934500,6.0949345703125,0.17514093220233917,-0.6698729395866394,-0.008336791768670082
1772701732997983500,6.1049833984375,0.3087812662124634,-0.5235418081283569,0.12864916026592255
1772701733008031500,6.115031494140625,0.402314156293869,-0.4467319846153259,0.24084360897541046
1772701733018079500,6.12507958984375,0.4514833092689514,-0.4503035247325897,0.35647064447402954
1772701733028128500,6.13512841796875,0.47938764095306396,-0.5607780814170837,0.4581402838230133
1772701733038176300,6.14517626953125,0.4849717319011688,-0.703739583492279,0.5373693108558655
1772701733048224500,6.155224609375,0.45298638939857483,-0.8750812411308289,0.5811710953712463
1772701733058272300,6.165272216796875,0.42584750056266785,-1.106357216835022,0.6041427850723267
1772701733068321500,6.175321533203125,0.42030972242355347,-1.2274689674377441,0.5552679300308228
1772701733078369300,6.185369384765625,0.3975314199924469,-1.2510260343551636,0.3755589723587036
1772701733088417300,6.195417236328125,0.3503308892250061,-1.2459309101104736,0.11426398158073425
1772701733098466300,6.20546630859375,0.27845829725265503,-1.2160495519638062,-0.19127577543258667
1772701733108514300,6.215514404296875,0.2034897804260254,-1.2501497268676758,-0.4843750298023224
1772701733118562600,6.2255625,0.10898717492818832,-1.402928113937378,-0.6004164218902588
1772701733128610300,6.2356103515625,-0.024267815053462982,-1.6695765256881714,-0.47691309452056885
1772701733138659600,6.24565966796875,-0.1854361742734909,-1.8066067695617676,0.027842415496706963
1772701733148707300,6.255707275390625,-0.04210883751511574,-0.9843863248825073,0.7771973013877869
1772701733158755300,6.26575537109375,0.5878866910934448,0.729511022567749,1.2742310762405396
1772701733168804400,6.275804443359375,1.2864516973495483,1.1878693103790283,1.8832250833511353
1772701733178852400,6.285852294921875,1.5600608587265015,0.3353559076786041,1.8656175136566162
1772701733188900400,6.295900390625,1.1135241985321045,0.30586299300193787,0.7796946167945862
1772701733198949400,6.305949462890625,0.7015413045883179,1.1896041631698608,-0.02655266970396042
1772701733208996600,6.31599658203125,0.5612038969993591,1.177314281463623,-0.36619386076927185
1772701733219044600,6.326044677734375,0.4769638478755951,1.3007516860961914,-0.6310926675796509
1772701733229092600,6.336092529296875,0.23512113094329834,1.682559847831726,-0.8948268294334412
1772701733239141400,6.346141357421875,-0.0709109827876091,1.8663084506988525,-1.1098588705062866
1772701733249189600,6.356189697265625,-0.22472290694713593,1.7714836597442627,-1.2035022974014282
1772701733259237600,6.366237548828125,-0.23550713062286377,1.5784422159194946,-1.1334892511367798
1772701733269286700,6.37628662109375,-0.18918651342391968,1.3332420587539673,-0.9433854222297668
1772701733279334700,6.386334716796875,-0.21145284175872803,0.979602038860321,-0.6783735156059265
1772701733289382400,6.39638232421875,-0.22537797689437866,0.6353468894958496,-0.4981776773929596
1772701733299431700,6.406431640625,-0.18498025834560394,0.2780487835407257,-0.48295581340789795
1772701733309479400,6.4164794921875,-0.13380202651023865,-0.1067151203751564,-0.5926585793495178
1772701733319527700,6.426527587890625,-0.11108951270580292,-0.45831334590911865,-0.7059963345527649
1772701733329575400,6.436575439453125,-0.10983675718307495,-0.7336002588272095,-0.7264441251754761
1772701733339624700,6.446624755859375,-0.09566687047481537,-0.8736080527305603,-0.6713740825653076
1772701733349672400,6.45667236328125,-0.019195526838302612,-0.842165470123291,-0.573606550693512
1772701733359720400,6.466720458984375,-0.025874733924865723,-0.6943163275718689,-0.4840411841869354
1772701733369769500,6.47676953125,-0.19871574640274048,-0.22533661127090454,-0.3690536320209503
1772701733379817500,6.4868173828125,-0.2180793434381485,0.34317678213119507,-0.15189726650714874
1772701733389865700,6.49686572265625,-0.008196943439543247,0.9982960820198059,0.08452114462852478
1772701733399914500,6.50691455078125,0.06770440936088562,1.8482208251953125,0.22754596173763275
1772701733409962800,6.516962646484375,0.046547457575798035,2.545869827270508,0.35879507660865784
1772701733420010500,6.527010498046875,0.1338229924440384,2.7521982192993164,0.5018407702445984
1772701733430058500,6.53705859375,0.32911044359207153,2.5716214179992676,0.6273614168167114
1772701733440107500,6.547107421875,0.44762730598449707,2.177227020263672,0.7375275492668152
1772701733450155500,6.557155517578125,0.5101969838142395,1.748572587966919,0.887266218662262
1772701733460203500,6.56720361328125,0.5301895141601562,1.25889253616333,1.1022887229919434
1772701733470252500,6.57725244140625,0.5725334882736206,0.7561824917793274,1.3881393671035767
1772701733480300500,6.587300537109375,0.5647040605545044,0.4564317762851715,1.4877668619155884
1772701733490348500,6.5973486328125,0.48413971066474915,0.5837393999099731,1.381625771522522
1772701733500397600,6.6073974609375,0.4809848964214325,0.8138678669929504,1.2954869270324707
1772701733510445600,6.617445556640625,0.5242851972579956,1.0828851461410522,1.140928030014038
1772701733520493600,6.62749365234375,0.45559337735176086,1.3491909503936768,0.835613489151001
1772701733530541600,6.63754150390625,0.20747248828411102,1.427699089050293,0.4257298707962036
1772701733540590600,6.647590576171875,-0.03357616439461708,1.4657340049743652,0.020804569125175476
1772701733550638600,6.657638671875,-0.3250940442085266,1.2739759683609009,-0.32011812925338745
1772701733560686600,6.6676865234375,-0.5529212355613708,1.1618064641952515,-0.5965568423271179
1772701733570735600,6.677735595703125,-0.6698081493377686,0.977527379989624,-0.7471200227737427
1772701733580783600,6.68778369140625,-0.6411097645759583,0.7927183508872986,-0.9143671989440918
1772701733590831600,6.69783154296875,-0.5221729874610901,0.7007415294647217,-1.0044689178466797
1772701733600879600,6.707879638671875,-0.4177091121673584,0.6671794056892395,-0.93351811170578
1772701733610928600,6.7179287109375,-0.34539762139320374,0.5899946093559265,-0.7707933783531189
1772701733620976600,6.7279765625,-0.3617710769176483,0.31539076566696167,-0.6194537878036499
1772701733631024600,6.738024658203125,-0.39653491973876953,-0.1028810665011406,-0.5210760831832886
1772701733641073400,6.748073486328125,-0.37316426634788513,-0.5955161452293396,-0.47371700406074524
1772701733651121700,6.75812158203125,-0.26897290349006653,-1.132163405418396,-0.45137014985084534
1772701733661169400,6.76816943359375,-0.12982642650604248,-1.5570262670516968,-0.391607403755188
1772701733671218700,6.77821875,0.053714122623205185,-1.8063814640045166,-0.38210415840148926
1772701733681266400,6.788266357421875,0.24933013319969177,-1.6741160154342651,-0.4910925030708313
1772701733691314400,6.798314453125,0.2943841516971588,-0.9824202060699463,-0.6822713017463684
1772701733701363500,6.808363525390625,0.24183255434036255,-0.17823044955730438,-0.868228554725647
1772701733711411500,6.818411376953125,0.08957270532846451,0.14221440255641937,-1.094163179397583
1772701733721459700,6.828459716796875,-0.05526808276772499,-0.3976554572582245,-1.2993738651275635
1772701733731507500,6.838507568359375,-0.18877820670604706,-1.206342101097107,-1.3264260292053223
1772701733741556700,6.848556640625,-0.2957081198692322,-1.6179847717285156,-1.1483756303787231
1772701733751604500,6.8586044921875,-0.3235275149345398,-1.5248867273330688,-0.8516350388526917
1772701733761652500,6.868652587890625,-0.3288325071334839,-1.1073068380355835,-0.4684724807739258
1772701733771701500,6.878701416015625,-0.3670893609523773,-0.6556325554847717,-0.06983081996440887
1772701733781749500,6.88874951171875,-0.4271894097328186,-0.43495306372642517,0.32933250069618225
1772701733791797800,6.8987978515625,-0.5284444093704224,-0.32581859827041626,0.7489281296730042
1772701733801845500,6.908845458984375,-0.5880929231643677,-0.4405769407749176,1.2859796285629272
1772701733811894500,6.91889453125,-0.6163011193275452,-0.9604318737983704,1.7884806394577026
1772701733821942500,6.928942626953125,-0.7116739749908447,-1.7411798238754272,2.0065958499908447
1772701733831990500,6.938990478515625,-0.8285247087478638,-2.182260274887085,1.9087923765182495
1772701733842039600,6.94903955078125,-0.8790891766548157,-1.9998230934143066,1.5825228691101074
1772701733852087600,6.959087646484375,-0.8909200429916382,-1.542288899421692,1.2390693426132202
1772701733862135600,6.969135498046875,-0.9069206118583679,-1.2545133829116821,0.9258719086647034
1772701733872184600,6.9791845703125,-0.886219322681427,-1.2945460081100464,0.5906553268432617
1772701733882232600,6.989232666015625,-0.8519660830497742,-1.2626601457595825,0.31085288524627686
1772701733892280600,6.999280517578125,-0.8419851064682007,-1.019184947013855,0.009286398068070412
1772701733902328600,7.00932861328125,-0.8837255835533142,-0.5614836812019348,-0.3421247899532318
1772701733912377600,7.019377685546875,-0.9631919264793396,-0.10783631354570389,-0.6439328789710999
1772701733922425600,7.029425537109375,-1.0146678686141968,0.23217378556728363,-0.9091900587081909
1772701733932473600,7.0394736328125,-1.0223557949066162,0.4123118817806244,-1.0849709510803223
1772701733942522600,7.049522705078125,-0.9859259128570557,0.4822376072406769,-1.133614182472229
1772701733952570600,7.059570556640625,-0.9177514314651489,0.38297441601753235,-1.1019651889801025
1772701733962618600,7.06961865234375,-0.8197258710861206,0.3319495618343353,-0.9812251329421997
1772701733972667400,7.07966748046875,-0.7549577951431274,0.1828674077987671,-0.7896413207054138
1772701733982715600,7.089715576171875,-0.6623836755752563,0.04063042998313904,-0.49506840109825134
1772701733992763400,7.099763427734375,-0.479546457529068,-0.09047139436006546,-0.11248798668384552
1772701734002811600,7.109811767578125,-0.23175841569900513,-0.23158276081085205,0.23513281345367432
1772701734012860400,7.1198603515625,-0.06435158103704453,-0.17328110337257385,0.4581962525844574
1772701734022908700,7.12990869140625,0.010717010125517845,-0.06041819602251053,0.5589866042137146
1772701734032956700,7.139956787109375,0.02940334565937519,0.004997828975319862,0.5892547965049744
1772701734043005400,7.15000537109375,0.029304802417755127,0.04100153595209122,0.5844547748565674
1772701734053053700,7.1600537109375,0.03183374181389809,0.010281974449753761,0.5641964077949524
1772701734063101400,7.170101318359375,0.01894799992442131,-0.06829481571912766,0.5494154691696167
1772701734073150700,7.180150634765625,-0.0015138656599447131,-0.10789495706558228,0.530633807182312
1772701734083198500,7.190198486328125,-0.012038656510412693,-0.13502614200115204,0.5082331895828247
1772701734093246500,7.20024658203125,-0.025090008974075317,-0.16486872732639313,0.46895474195480347
1772701734103294700,7.210294677734375,-0.07247238606214523,-0.19451478123664856,0.41323864459991455
1772701734113343500,7.220343505859375,-0.12691138684749603,-0.23997919261455536,0.3578989505767822
1772701734123391700,7.230391845703125,-0.18078720569610596,-0.3035084009170532,0.2958298325538635
1772701734133439500,7.240439453125,-0.22424547374248505,-0.370625376701355,0.2476830631494522
1772701734143488800,7.25048876953125,-0.26434701681137085,-0.48564550280570984,0.20900729298591614
1772701734153536500,7.26053662109375,-0.3029671013355255,-0.5625895261764526,0.21476291120052338
1772701734163584500,7.27058447265625,-0.3315031826496124,-0.5434489250183105,0.2529246509075165
1772701734173633500,7.280633544921875,-0.33818504214286804,-0.45536676049232483,0.2506215274333954
1772701734183681500,7.290681640625,-0.31436994671821594,-0.27763620018959045,0.16188272833824158
1772701734193729500,7.3007294921875,-0.3042062819004059,-0.00870353914797306,0.05950043722987175
1772701734203778000,7.310778076171875,-0.3115062713623047,0.09990742802619934,0.07566758245229721
1772701734213826800,7.320826904296875,-0.21570810675621033,0.2171107530593872,0.21206697821617126
1772701734223875000,7.330875,-0.03454098850488663,0.8278324604034424,0.3999481797218323
1772701734233923000,7.340923095703125,0.08482322096824646,1.6959388256072998,0.607079267501831
1772701734243972000,7.35097216796875,0.16565653681755066,1.8420798778533936,0.719101071357727
1772701734254020000,7.36102001953125,0.023029884323477745,1.6256532669067383,0.18562620878219604
1772701734264067800,7.37106787109375,-0.3062817454338074,1.87333345413208,-0.4887646734714508
1772701734274117000,7.3811171875,-0.044789157807826996,2.599313497543335,-0.6704388856887817
1772701734284164900,7.391164794921875,0.33906298875808716,2.5032966136932373,-0.7687530517578125
1772701734294213000,7.401213134765625,0.5724099278450012,2.021212339401245,-0.7498469948768616
1772701734304262000,7.411261962890625,0.7006158232688904,1.2933224439620972,-0.6005495190620422
1772701734314310000,7.421309814453125,0.7271262407302856,0.5433412790298462,-0.45233020186424255
1772701734324358000,7.43135791015625,0.716399610042572,0.053591128438711166,-0.2956826388835907
1772701734334406000,7.441406005859375,0.757049024105072,-0.2664875388145447,-0.19684819877147675
1772701734344455000,7.451454833984375,0.7547759413719177,-0.23703670501708984,-0.20431102812290192
1772701734354503000,7.4615029296875,0.6681236028671265,-0.008700997568666935,-0.2128738909959793
1772701734364551200,7.47155126953125,0.53375643491745,0.293918639421463,-0.294108510017395
1772701734374600000,7.481599853515625,0.3951535224914551,0.47803759574890137,-0.41003909707069397
1772701734384648000,7.49164794921875,0.23268751800060272,0.5591851472854614,-0.49640023708343506
1772701734394696000,7.501696044921875,0.08684056997299194,0.5238478779792786,-0.5723599791526794
1772701734404745000,7.511744873046875,-0.06412819027900696,0.35088050365448,-0.6514140367507935
1772701734414793000,7.52179296875,-0.23591166734695435,0.02099447138607502,-0.7461423873901367
1772701734424841000,7.531841064453125,-0.34485554695129395,-0.40624886751174927,-0.8285424709320068
1772701734434889000,7.541888916015625,-0.34791019558906555,-0.8450256586074829,-0.869774341583252
1772701734444938000,7.55193798828125,-0.3601961135864258,-1.0733416080474854,-0.8680382370948792
1772701734454986000,7.561986083984375,-0.3943604826927185,-1.0901187658309937,-0.840023398399353
1772701734465034000,7.572033935546875,-0.3955874443054199,-0.9033915996551514,-0.7427343726158142
1772701734475082800,7.582082763671875,-0.3726182281970978,-0.6724406480789185,-0.6136618852615356
1772701734485131000,7.592131103515625,-0.3502260148525238,-0.4540943503379822,-0.4597753882408142
1772701734495179000,7.602178955078125,-0.3081566095352173,-0.2695156931877136,-0.3684611916542053
1772701734505228000,7.61222802734375,-0.2845167815685272,-0.07125915586948395,-0.3442132771015167
1772701734515276000,7.622276123046875,-0.27150219678878784,0.1321118175983429,-0.3689814805984497
1772701734525323800,7.63232373046875,-0.21484236419200897,0.22512146830558777,-0.3864196538925171
1772701734535373000,7.642373046875,-0.13553395867347717,0.1800895482301712,-0.4387502372264862
1772701734545420800,7.6524208984375,-0.05815983936190605,0.15124650299549103,-0.5466320514678955
1772701734555469000,7.662468994140625,0.00013275956735014915,0.08271323889493942,-0.6712392568588257
1772701734565517000,7.67251708984375,0.047196611762046814,-0.013581053353846073,-0.8270705342292786
1772701734575566000,7.682566162109375,0.06722252070903778,-0.030458305031061172,-0.9502494931221008
1772701734585614000,7.692614013671875,0.07360006123781204,-0.0018012798391282558,-0.9633039236068726
1772701734595661800,7.702661865234375,0.09143338352441788,0.04772206395864487,-0.8194184303283691
1772701734605711000,7.712711181640625,0.14751820266246796,0.11511039733886719,-0.5462878346443176
1772701734615758800,7.7227587890625,0.20137745141983032,0.1843206286430359,-0.25607359409332275
1772701734625807000,7.73280712890625,0.24517124891281128,0.15618343651294708,0.004297896288335323
1772701734635856000,7.74285595703125,0.27917182445526123,0.10746783018112183,0.17068234086036682
1772701734645904100,7.752904052734375,0.2691121995449066,0.09653405100107193,0.2538830041885376
1772701734655952000,7.762951904296875,0.2183302491903305,0.010286778211593628,0.2900218367576599
1772701734666001000,7.7730009765625,0.12405437976121902,-0.16834799945354462,0.2674393951892853
1772701734676049000,7.783048828125,-0.016885697841644287,-0.3082917630672455,0.212411567568779
1772701734686097000,7.793096923828125,-0.18684832751750946,-0.2868325114250183,0.09966906905174255
1772701734696145200,7.803145263671875,-0.31707823276519775,-0.15305952727794647,-0.05543103069067001
1772701734706194000,7.81319384765625,-0.3438054025173187,0.07079235464334488,-0.13432402908802032
1772701734716242000,7.823241943359375,-0.31116783618927,0.2507791817188263,-0.15459175407886505
1772701734726290000,7.8332900390625,-0.24116753041744232,0.36868155002593994,-0.12483906000852585
1772701734736339000,7.8433388671875,-0.14854012429714203,0.3978767395019531,-0.042448319494724274
1772701734746387000,7.853386962890625,-0.06347212195396423,0.3131500780582428,0.0804687961935997
1772701734756435000,7.86343505859375,0.020793762058019638,0.2121816724538803,0.2080880105495453
1772701734766484000,7.87348388671875,0.11186887323856354,0.24244900047779083,0.30838143825531006
1772701734776532000,7.883531982421875,0.18883422017097473,0.35661765933036804,0.42754724621772766
1772701734786580000,7.893580078125,0.23411117494106293,0.2660236060619354,0.5065896511077881
1772701734796628000,7.9036279296875,0.2574330270290375,0.014954362995922565,0.5046396851539612
1772701734806677000,7.913677001953125,0.24663934111595154,-0.13115693628787994,0.38512274622917175
1772701734816725000,7.92372509765625,0.21625053882598877,-0.24033349752426147,0.0637495145201683
1772701734826773000,7.93377294921875,0.18757952749729156,-0.10126175731420517,-0.2045871913433075
1772701734836822000,7.943822021484375,0.16305872797966003,0.38437846302986145,-0.23149816691875458
1772701734846870000,7.9538701171875,0.11707619577646255,0.6527059674263,-0.13713161647319794
1772701734856917800,7.963917724609375,0.14691026508808136,0.5739621520042419,0.08298317342996597
1772701734866967000,7.973967041015625,0.17576977610588074,0.2169029414653778,0.21956945955753326
1772701734877014800,7.984014892578125,0.16446253657341003,-0.1115226000547409,0.26167935132980347
1772701734887063000,7.99406298828125,0.11910183727741241,-0.17773377895355225,0.2758733630180359
1772701734897111800,8.00411181640625,0.05875087529420853,-0.1200060322880745,0.23557470738887787
1772701734907160000,8.01416015625,-0.01755921170115471,-0.09876065701246262,0.09512782096862793
1772701734917208000,8.0242080078125,-0.1076587438583374,-0.06760700047016144,-0.03772104158997536
1772701734927257000,8.034257080078126,-0.1848376989364624,-0.10040615499019623,-0.13480642437934875
1772701734937305000,8.04430517578125,-0.2521943747997284,-0.09241214394569397,-0.18777908384799957
1772701734947352800,8.054352783203125,-0.25722330808639526,0.04670689254999161,-0.13143427670001984
1772701734957401000,8.064401123046874,-0.2528567910194397,0.16353444755077362,0.022318530827760696
1772701734967449900,8.074449951171875,-0.27385789155960083,0.022649873048067093,0.12680208683013916
1772701734977498000,8.084498046875,-0.30649334192276,-0.2332410216331482,0.13069775700569153
1772701734987545900,8.0945458984375,-0.35532569885253906,-0.21524649858474731,0.12008260190486908
1772701734997595000,8.104594970703126,-0.3226170241832733,-0.0033142624888569117,0.19283349812030792
1772701735007643000,8.114642822265624,-0.20707401633262634,0.06007462367415428,0.237019881606102
1772701735017691000,8.12469091796875,-0.12927721440792084,0.22120200097560883,0.3207874894142151
1772701735027740000,8.134739990234374,-0.10621527582406998,0.18052010238170624,0.3256238102912903
1772701735037788000,8.144787841796875,-0.12122511863708496,0.08150430768728256,0.27572014927864075
1772701735047836200,8.154836181640626,-0.12406013906002045,0.04225357249379158,0.21410486102104187
1772701735057885000,8.164885009765625,-0.11306634545326233,0.08270006626844406,0.1489040106534958
1772701735067933000,8.174932861328125,-0.09076493978500366,0.20712074637413025,0.08636072278022766
1772701735077981000,8.18498095703125,-0.0612184964120388,0.3524523675441742,0.028070786967873573
1772701735088029000,8.19502880859375,-0.032111506909132004,0.39357438683509827,-0.06721705198287964
1772701735098078000,8.205077880859376,-0.017260389402508736,0.386380672454834,-0.15067864954471588
1772701735108126000,8.2151259765625,-0.009225071407854557,0.4182758629322052,-0.18889613449573517
1772701735118174000,8.225174072265625,-0.0026563836727291346,0.41094550490379333,-0.1716013103723526
1772701735128223000,8.235222900390625,-0.014484387822449207,0.33237984776496887,-0.15525339543819427
1772701735138271000,8.24527099609375,-0.026587124913930893,0.2624196708202362,-0.15782307088375092
1772701735148319000,8.255319091796874,-0.028056511655449867,0.26716911792755127,-0.16441811621189117
1772701735158368000,8.265367919921875,-0.022439906373620033,0.2753349244594574,-0.18649758398532867
1772701735168416000,8.275416015625,-0.02452787570655346,0.26202747225761414,-0.22663404047489166
1772701735178464000,8.285464111328125,-0.030925853177905083,0.26386797428131104,-0.26682648062705994
1772701735188513000,8.295512939453126,-0.04170692339539528,0.2759776711463928,-0.3014114797115326
1772701735198561000,8.30556103515625,-0.060400448739528656,0.302977055311203,-0.30137819051742554
1772701735208609000,8.315609130859375,-0.08237016201019287,0.32186245918273926,-0.25462275743484497
1772701735218657300,8.3256572265625,-0.08163672685623169,0.29661330580711365,-0.19959276914596558
1772701735228706000,8.3357060546875,-0.07063516974449158,0.23050357401371002,-0.1812528669834137
1772701735238754300,8.34575439453125,-0.04400142654776573,0.1867731362581253,-0.19051747024059296
1772701735248802300,8.35580224609375,-0.028054943308234215,0.18938659131526947,-0.2131672203540802
1772701735258851300,8.365851318359375,-0.018625224009156227,0.19592784345149994,-0.23346289992332458
1772701735268899300,8.3758994140625,-0.017627106979489326,0.19219520688056946,-0.2556982636451721
1772701735278947000,8.385947021484375,-0.01830701157450676,0.2197413444519043,-0.29001471400260925
1772701735288996000,8.39599609375,-0.020245574414730072,0.25503724813461304,-0.31465989351272583
1772701735299044000,8.406044189453125,-0.026029959321022034,0.3009874224662781,-0.31518372893333435
1772701735309092400,8.41609228515625,-0.02923896349966526,0.29820019006729126,-0.29742082953453064
1772701735319141000,8.42614111328125,-0.01731492578983307,0.2267952561378479,-0.2488335818052292
1772701735329189400,8.436189453125,-0.0021680595818907022,0.1302417516708374,-0.1899145245552063
1772701735339237000,8.446237060546874,0.02272344008088112,0.037167467176914215,-0.13450771570205688
1772701735349286400,8.456286376953125,0.04400939494371414,-0.045414999127388,-0.09834741801023483
1772701735359334100,8.466334228515626,0.051434021443128586,-0.08491287380456924,-0.06807313859462738
1772701735369382100,8.476382080078125,0.05761146917939186,-0.08746261149644852,-0.0286937914788723
1772701735379430400,8.486430419921875,0.05416107922792435,-0.115120068192482,0.016152508556842804
1772701735389479200,8.496479248046874,0.033273614943027496,-0.14881494641304016,0.050779979676008224
1772701735399527400,8.50652734375,0.012642374262213707,-0.14312322437763214,0.07891494780778885
1772701735409575200,8.5165751953125,0.00041288696229457855,-0.10138997435569763,0.10025708377361298
1772701735419624200,8.526624267578125,-0.004281466826796532,-0.06553983688354492,0.11452443897724152
1772701735429672200,8.536672119140626,-0.0009711653110571206,-0.04890183359384537,0.11945535987615585
1772701735439720200,8.54672021484375,0.01165035367012024,-0.05275436118245125,0.11385286599397659
1772701735449769200,8.556769287109375,0.028881827369332314,-0.04871591925621033,0.09988514333963394
1772701735459817200,8.566817138671874,0.05040070042014122,-0.030394434928894043,0.0815439522266388
1772701735469865000,8.576864990234375,0.07238154113292694,-0.014513303525745869,0.06994262337684631
1772701735479914200,8.586914306640624,0.08319584280252457,-0.026378750801086426,0.0583253838121891
1772701735489962000,8.5969619140625,0.08920307457447052,-0.05171354115009308,0.04390735179185867
1772701735500010200,8.60701025390625,0.0995747521519661,-0.06501869112253189,0.026579493656754494
1772701735510058200,8.617058349609374,0.0998741164803505,-0.06708990782499313,0.00922670029103756
1772701735520107300,8.627107177734375,0.09446922689676285,-0.07205137610435486,-0.014926571398973465
1772701735530155300,8.6371552734375,0.09520745277404785,-0.0503452830016613,-0.043024253100156784
1772701735540203000,8.647203125,0.0976325273513794,-0.018076026812195778,-0.059635188430547714
1772701735550252300,8.657252197265626,0.10380685329437256,-0.0018415236845612526,-0.0595252551138401
1772701735560300000,8.667300048828125,0.1035890132188797,-0.03400025889277458,-0.07237181067466736
1772701735570348300,8.677348388671875,0.09894314408302307,-0.06670448184013367,-0.08623133599758148
1772701735580397000,8.68739697265625,0.11445658653974533,-0.1031985804438591,-0.026844440028071404
1772701735590445300,8.6974453125,0.1664811670780182,-0.4193987250328064,0.21174530684947968
1772701735600493300,8.707493408203124,0.15753427147865295,-0.49998411536216736,0.2638774812221527
1772701735610542300,8.717542236328125,0.14062930643558502,-0.35676613450050354,0.25641122460365295
1772701735620590300,8.72759033203125,0.14712423086166382,-0.20545093715190887,0.2175586223602295
1772701735630638000,8.73763818359375,0.13550300896167755,-0.15687121450901031,0.15225988626480103
1772701735640687000,8.74768701171875,0.11011403053998947,-0.10084204375743866,0.0730350986123085
1772701735650735000,8.757735107421874,0.08681831508874893,0.028040863573551178,-0.005734795704483986
1772701735660783400,8.767783447265625,0.0698731541633606,0.09934673458337784,-0.05310523882508278
1772701735670831000,8.7778310546875,0.0420883484184742,0.0656619593501091,-0.04361003637313843
1772701735680880400,8.78788037109375,0.01768980175256729,-0.08405216783285141,0.03435693308711052
