time,seconds_elapsed,z,y,x
1772697868984356600,0.075356689453125,-0.15255436798930166,0.07019318790584803,-0.23828502450585365
1772697868994405600,0.085405517578125,-0.23314240092039107,0.06039134033769369,-0.29700901615321634
1772697869004454700,0.09545458984375,-0.3322901728928089,0.05473053809702396,-0.40331951936185356
1772697869014503700,0.105503662109375,-0.43069443302154536,0.0567789950594306,-0.4820382512897253
1772697869024551700,0.1155517578125,-0.5296972435653209,0.0688590166926384,-0.4863514383137226
1772697869034600700,0.1256005859375,-0.5113987858086824,0.09780804780125617,-0.39818800169229507
1772697869044649700,0.135649658203125,-0.4192530015528202,0.10613163951039313,-0.2689081263065338
1772697869054697700,0.14569775390625,-0.30245909825265405,0.11782090826034546,-0.20914017856419084
1772697869064746500,0.15574658203125,-0.24327041170299052,0.1254261225670576,-0.24747487765550613
1772697869074795800,0.165795654296875,-0.34839608904123304,0.15167466254532336,-0.3149386405974626
1772697869084843500,0.175843505859375,-0.48933249995112416,0.1738049535498023,-0.3876607624590397
1772697869094892800,0.185892822265625,-0.5098790288954973,0.2176189608350396,-0.521364299505949
1772697869104941600,0.195941650390625,-0.45352702707648274,0.2941100798413157,-0.603389087241888
1772697869114990600,0.205990478515625,-0.48247079748809335,0.29032179347425696,-0.6359720909386873
1772697869125038600,0.21603857421875,-0.5242711268633604,0.24220015212297438,-0.6350918009728193
1772697869135087600,0.226087646484375,-0.5443845250874757,0.2172092109903693,-0.6781430071920156
1772697869145137000,0.236136962890625,-0.5495563747674227,0.22259324211627243,-0.6971528280884027
1772697869155184600,0.2461845703125,-0.5268079518646002,0.20841800176948308,-0.6326233650326728
1772697869165233700,0.256233642578125,-0.5394266104191542,0.2486865915328264,-0.5863754085987806
1772697869175282700,0.26628271484375,-0.4821031332194805,0.36179070040434597,-0.6011299101382493
1772697869185330700,0.27633056640625,-0.43329087925553317,0.42297815955579277,-0.6258300516307354
1772697869195379700,0.286379638671875,-0.5268798480570316,0.38764030419290063,-0.7103507478356361
1772697869205428700,0.2964287109375,-0.5974591126710176,0.398376510001719,-0.8352554768770932
1772697869215477800,0.306477783203125,-0.7139905656427145,0.4515647870928049,-1.0097288312077521
1772697869225525500,0.316525390625,-0.8891092321395874,0.4677756249204278,-1.1028490134537219
1772697869235574800,0.32657470703125,-0.9230798908025025,0.42033349026590583,-1.004068905749917
1772697869245623800,0.336623779296875,-0.7751713027924299,0.3387108535900712,-0.7261305007696152
1772697869255671800,0.346671875,-0.7003589306533337,0.3647039575025439,-0.5475847824335098
1772697869265720600,0.356720458984375,-0.6334919645607471,0.45993455603122707,-0.47694881919622417
1772697869275769600,0.36676953125,-0.6472814204603433,0.5360246930211782,-0.4570791666001081
1772697869285819000,0.37681884765625,-0.5968050326764583,0.5059469501435756,-0.3668593819707632
1772697869295866600,0.38686669921875,-0.5181313089340925,0.43947570537030695,-0.18820085090994834
1772697869305916000,0.396916015625,-0.46796121062040325,0.4685960013926029,-0.1170388179719448
1772697869315964700,0.406964599609375,-0.4649304646223783,0.5622697258681059,-0.03138122669160366
1772697869326012700,0.4170126953125,-0.4852946227371692,0.5765048797085881,0.050066053417325014
1772697869336061700,0.427061767578125,-0.526354947400093,0.5700295462146401,0.05301029017567634
1772697869346110700,0.43711083984375,-0.5061392578452826,0.5517138450622558,-0.02167933236658573
1772697869356159700,0.44715966796875,-0.3752542853504419,0.5422442981883883,-0.07841594958901404
1772697869366207700,0.457207763671875,-0.2181827321976423,0.5281427075996995,-0.05757248352468013
1772697869376256800,0.4672568359375,-0.09338321709632873,0.510149954791367,-0.020170681369304656
1772697869386305800,0.477305908203125,-0.030748189485073088,0.535715480941534,0.00024140754044055937
1772697869396353800,0.487353759765625,0.00843874252140522,0.5147802449405193,-0.011523264533281325
1772697869406402800,0.49740283203125,0.05869067389965057,0.4484533770740032,-0.03450549619197845
1772697869416451600,0.50745166015625,0.14175766416490077,0.4669219307005405,-0.05788578725755214
1772697869426499600,0.51749951171875,0.25894144356548787,0.45157384718209503,-0.08940262302756309
1772697869436548600,0.527548583984375,0.4107441164046526,0.49172553256750107,-0.15643500881493091
1772697869446598000,0.537597900390625,0.5688111103355884,0.5028679810896516,-0.14643383928239345
1772697869456646700,0.547646728515625,0.7370669053256511,0.4316431120485067,-0.2531885791271925
1772697869466695000,0.55769482421875,0.8867074316948652,0.3479498065784573,-0.33479309562444687
1772697869476743700,0.56774365234375,0.970789736482501,0.24123715230971574,-0.3769236798673868
1772697869486792700,0.577792724609375,1.0759680207908153,0.11974310849457978,-0.47929041388630866
1772697869496840700,0.5878408203125,1.0655179384469986,-0.0001423310801386833,-0.5813099419027566
1772697869506889700,0.5978896484375,1.0581436102867126,-0.14753946243673563,-0.6058084233433008
1772697869516938800,0.607938720703125,1.0141039775520562,-0.2857736286506057,-0.5552975487679243
1772697869526987800,0.61798779296875,0.9641653499066829,-0.47509997645914553,-0.5286410125106573
1772697869537035800,0.628035888671875,0.7192050854206085,-0.5723439606368541,-0.46247196555435655
1772697869547084800,0.638084716796875,0.4795511106491089,-0.5419976299509406,-0.3799737150877714
1772697869557133600,0.648133544921875,0.4378934046149254,-0.5160431044831871,-0.16886019062399862
1772697869567181800,0.658181884765625,0.2844832965791225,-0.4813955694720149,0.04743336682617664
1772697869577230600,0.668230712890625,0.09936170698404312,-0.34137978053838014,0.24897943699955938
1772697869587280000,0.67827978515625,-0.1041290675163269,-0.2857014401972294,0.4732236611932516
1772697869597328600,0.68832861328125,-0.48684477478861804,-0.2747179816290736,0.6183487559646368
1772697869607377000,0.698376953125,-0.8576274676829576,-0.1254921735405922,0.7575117274612188
1772697869617425700,0.70842578125,-1.0657529162466526,-0.19398089561611412,0.9050625880748033
1772697869627474700,0.718474609375,-1.2376958753168583,-0.1398702429831028,1.0732505785256623
1772697869637522700,0.728522705078125,-1.3527239379882812,-0.17668606194406747,1.184198678407073
1772697869647571700,0.73857177734375,-1.289172380053997,-0.19520225410461425,1.0443915637880563
1772697869657620700,0.748620849609375,-1.180427927696705,-0.3468950368285179,0.8432078971862792
1772697869667669800,0.758669677734375,-1.0600929907888172,-0.43790421826988457,0.6822942816525698
1772697869677717800,0.7687177734375,-0.9675976624429226,-0.4974930100530386,0.5851864910751581
1772697869687766800,0.778766845703125,-0.7766834609210491,-0.5266276268616319,0.40189503951668737
1772697869697815600,0.788815673828125,-0.6083510935634374,-0.5793357192203402,0.14863865585029123
1772697869707863800,0.79886376953125,-0.3270750685930252,-0.5800438674896955,-0.08019231161177158
1772697869717912600,0.80891259765625,-0.026761750197410582,-0.3776534554466605,-0.37770635467767716
1772697869727961900,0.8189619140625,0.19017828846275805,-0.3522466269895434,-0.4205810352861881
1772697869738009600,0.829009521484375,0.4415782306075096,-0.42616994133442637,-0.45779228330552574
1772697869748059000,0.839058837890625,0.647224137315154,-0.26577012054175136,-0.4930225866407156
1772697869758107600,0.849107666015625,0.729655752286315,-0.22539310196787118,-0.5180787019640207
1772697869768156700,0.85915673828125,0.6992337260156869,-0.16028233189284802,-0.6079670626819134
1772697869778204700,0.86920458984375,0.6217839911103248,-0.025578677892684934,-0.7678022353291512
1772697869788253700,0.879253662109375,0.5426005642801522,0.0666542001247406,-0.7879261549472808
1772697869798302700,0.889302734375,0.46783086223900316,0.10944178697168827,-0.7582651761770248
1772697869808350700,0.899350830078125,0.388139485886693,0.04414426215291023,-0.6941437094002961
1772697869818399700,0.909399658203125,0.25688100390434265,-0.12275631883591413,-0.49169046125411986
1772697869828448800,0.91944873046875,0.17810381978750228,-0.20991846946030854,-0.2166097837924957
1772697869838497500,0.92949755859375,0.17182605469226836,-0.32197102345228196,-0.030464111846685408
1772697869848545800,0.9395458984375,0.10024316599369049,-0.46127428020238875,0.0274362884581089
1772697869858594600,0.949594482421875,0.015063129097223281,-0.5040776491403579,-0.07309796943664551
1772697869868643800,0.959643798828125,-0.13114859186708927,-0.5724219943091273,-0.21090134301781654
1772697869878691600,0.969691650390625,-0.1835620851933956,-0.5806713517382741,-0.2772995225548744
1772697869888740900,0.979740966796875,-0.2971761894136667,-0.5222793685242534,-0.22853812199532986
1772697869898789600,0.98978955078125,-0.36334465184807774,-0.5054384160995483,-0.1640513290375471
1772697869908838700,0.999838623046875,-0.329348858743906,-0.5604661835774779,0.03561842586994171
1772697869918886700,1.00988671875,-0.2507861941605806,-0.5310998038396239,0.22568507065176963
1772697869928935700,1.019935791015625,-0.15690028823912142,-0.5552712452828884,0.34155309127867217
1772697869938984700,1.029984619140625,-0.24635844084620476,-0.5718409795507788,0.251110019287467
1772697869949032700,1.04003271484375,-0.5024246212363243,-0.5548579883068799,0.13779285218715667
1772697869959081700,1.050081787109375,-0.7771335427761077,-0.49368601898550984,-0.018705284991860388
1772697869969130800,1.060130859375,-0.990129812246561,-0.4797179916486144,-0.1394908882766962
1772697869979179500,1.070179443359375,-1.1878332355171441,-0.4718097027420997,-0.19027356553077696
1772697869989227800,1.080227783203125,-1.325267775785923,-0.39774844123125075,-0.17671441125571727
1772697869999276500,1.090276611328125,-1.3151152150839567,-0.36661534408181906,-0.12253449277877806
1772697870009325800,1.100325927734375,-1.2556833674281835,-0.36279520127177234,-0.019877835902571677
1772697870019373600,1.11037353515625,-1.0891185942649841,-0.300959799605608,-0.05008768072724342
1772697870029422800,1.1204228515625,-1.0730968492686748,-0.13494243119210003,-0.2527911042422056
1772697870039471600,1.1304716796875,-1.2217173849403857,-0.010389292067289353,-0.44760406676828857
1772697870049520600,1.140520751953125,-1.2156617381632326,0.05079787482321262,-0.5802385132789611
1772697870059568600,1.150568603515625,-1.1064444075971842,0.04324672879129648,-0.636119974976778
1772697870069617700,1.16061767578125,-0.9383417573422193,-0.02254208667576313,-0.6581020896822214
1772697870079666700,1.170666748046875,-0.8133224620103836,-0.004805938977003097,-0.6275549757272004
1772697870089714700,1.180714599609375,-0.8195815224051475,-0.1319946873024106,-0.614334844148159
1772697870099763700,1.190763671875,-0.7951450002849102,-0.2528460492998361,-0.6480465596139431
1772697870109812700,1.200812744140625,-0.8056792537808418,-0.3437500168010592,-0.6554904458791018
1772697870119860700,1.21086083984375,-0.8723758317425847,-0.4622536466285586,-0.6256862592458725
1772697870129909800,1.22090966796875,-0.9069052933320403,-0.572247222264111,-0.5317389785259962
1772697870139958500,1.23095849609375,-0.9302084275081753,-0.6646069415315985,-0.413816947978735
1772697870150007800,1.2410078125,-0.9773056942477821,-0.7106959080114961,-0.35195056665241714
1772697870160055600,1.2510556640625,-1.0203285511553286,-0.8030185101389884,-0.31416648718118667
1772697870170104800,1.261104736328125,-1.013011506140232,-0.8944535157769918,-0.2845668832093477
1772697870180153600,1.271153564453125,-1.0041364180281758,-0.9839107916012406,-0.2717144158989191
1772697870190201900,1.281201904296875,-0.9790727039203048,-1.0838590663015841,-0.28261633366346356
1772697870200250600,1.291250732421875,-0.9778495918661355,-1.1861033429846166,-0.19309154556095598
1772697870210299600,1.301299560546875,-0.9763333420842886,-1.2841393543228505,0.0473784217685461
1772697870220349000,1.311348876953125,-1.1136781582430004,-1.2267884045943618,0.5413695611804723
1772697870230396700,1.321396728515625,-1.3849801939487456,-1.017011973953247,1.1119260538786648
1772697870240445700,1.33144580078125,-1.5082701812699437,-0.8139563759997487,1.6417659207850694
1772697870250494700,1.34149462890625,-1.2343100322708487,-0.7819254532277584,2.057323574951291
1772697870260542700,1.351542724609375,-0.7051023257881402,-0.7472162511572241,2.248781381830573
1772697870270591700,1.361591796875,-0.28185119450986384,-0.5811132502868771,2.2812258538395165
1772697870280640800,1.371640869140625,-0.07359305947721004,-0.34417905586808917,2.0453993284016847
1772697870290689800,1.381689697265625,-0.09409048858284949,-0.18953502212315795,1.447240543028712
1772697870300737500,1.391737548828125,-0.16359540196359157,-0.08794833256602287,1.4255547809213398
1772697870310786800,1.401786865234375,-0.11371288841962814,0.05224602780491113,1.3530278893709182
1772697870320835800,1.4118359375,-0.0040296939074993135,0.018439327532052994,1.0380109228402377
1772697870330883800,1.4218837890625,0.2874783867418766,-0.1966506993472576,0.7758370732247829
1772697870340932600,1.4319326171875,0.4896472649887204,-0.3860027661189437,0.44208851821720596
1772697870350981600,1.441981689453125,0.5784761797815561,-0.573519141896069,0.2179652900546789
1772697870361031000,1.452031005859375,0.5997621289163828,-0.7653563034817576,0.06055646777153015
1772697870371078700,1.46207861328125,0.530872132563591,-0.79231065364182,0.026021160963177678
1772697870381128000,1.4721279296875,0.3256932588458061,-0.6638362494200468,0.05481120211780071
1772697870391176700,1.4821767578125,0.06835983499884606,-0.5050953017503023,0.03332125484347343
1772697870401224700,1.492224609375,-0.15886515857130287,-0.25047990469038484,-0.061010641279816626
1772697870411273700,1.502273681640625,-0.23346242665499448,-0.027396833230555057,-0.04277414284348487
1772697870421322800,1.51232275390625,-0.16057693092525005,0.09745616562366485,-0.046935938698053355
1772697870431370800,1.522370849609375,-0.007348024675250053,0.1820458354115486,-0.03931903395354747
1772697870441419800,1.532419677734375,0.1093704753011465,0.24447686488330364,-0.04660393026471138
1772697870451468800,1.54246875,0.16896949621737004,0.26391367902010676,-0.044054830303788185
1772697870461517800,1.552517822265625,0.2937733952328563,0.18290099093616008,-0.07784194909334183
1772697870471565800,1.56256591796875,0.40943887902498244,0.1400222186744213,-0.07174480126202105
1772697870481614800,1.57261474609375,0.41106268083453174,0.13478724063038824,-0.09378303006887435
1772697870491663600,1.58266357421875,0.4577621804282069,0.16106149957180022,-0.1361047529697418
1772697870501711600,1.592711669921875,0.6152046127200126,0.09348141677379608,-0.14525953480601309
1772697870511760600,1.6027607421875,0.8280579665884376,0.01939940473586321,-0.20801088227331638
1772697870521810000,1.612809814453125,0.997076854905486,-0.02184270623475313,-0.229599029225111
1772697870531858700,1.622858642578125,1.1686585794478654,-0.09536094691008329,-0.2853080569654703
1772697870541907000,1.632906982421875,1.2538333556473253,-0.053365971745550626,-0.3848497966915369
1772697870551955700,1.642955810546875,1.2911644306540488,0.04347790719866752,-0.462377857530117
1772697870562004700,1.653004638671875,1.241238077968359,0.10352730223089456,-0.4228548254370689
1772697870572052700,1.663052734375,1.1899556344985962,0.19757745880335567,-0.36985330308973785
1772697870582101800,1.673101806640625,1.1371867518633603,0.2961939003780484,-0.32594811038970944
1772697870592150800,1.68315087890625,0.9651999536514282,0.45033378399312496,-0.15238427211940286
1772697870602199800,1.69319970703125,0.7164829669803381,0.5861828086361288,-0.0407078579634428
1772697870612247800,1.703247802734375,0.44408232238292694,0.6267299230799078,0.008128361397981643
1772697870622296800,1.713296875,0.16194295858144758,0.766627346330881,0.07438157950639725
1772697870632345600,1.723345703125,-0.09483224686086177,0.838260503911972,0.07111410214304924
1772697870642393900,1.733393798828125,-0.36185470555126664,0.9237889158546924,0.020897826600074765
1772697870652442600,1.743442626953125,-0.6903045696288347,0.9571683306261897,0.08828852430582046
1772697870662492000,1.753491943359375,-0.8539467333436012,0.928028745381534,0.1856231093764305
1772697870672540700,1.763540771484375,-1.0106839399755,0.873212574827671,0.3446452120751142
1772697870682589000,1.7735888671875,-1.0168746113091707,0.8688841902345419,0.5287064789623022
1772697870692637700,1.7836376953125,-0.9244096781015395,0.8123501098468899,0.6327642348080873
1772697870702686700,1.793686767578125,-0.6978384722650051,0.896821706213057,0.5891781910598277
1772697870712734700,1.803734619140625,-0.33679625214040276,1.0358327020183205,0.46720717738270756
1772697870722783700,1.81378369140625,0.08114099063873291,1.0009864295646547,0.3179600342452526
1772697870732832800,1.823832763671875,0.40168110450506206,0.8938689938873052,0.1779284632205963
1772697870742881800,1.8338818359375,0.7412883224129676,0.825213098551333,0.030780922710895536
1772697870752929800,1.8439296875,1.0402899736881255,0.8051163592010736,-0.04281272128820419
1772697870762978800,1.853978759765625,1.3812977060437202,0.7587500370845198,-0.12443886509537697
1772697870773027600,1.864027587890625,1.5924270125985145,0.6796145410493016,-0.16682137827277183
1772697870783075800,1.874075927734375,1.7144447880268097,0.6205126560002565,-0.16349311063289643
1772697870793124600,1.88412451171875,1.8246271642327307,0.5993629004657268,-0.16872516606748103
1772697870803174000,1.894173828125,1.8683920716792344,0.6295546251118183,-0.18036767306625842
1772697870813222700,1.90422265625,1.8716922822684048,0.679442107091844,-0.25304595578610894
1772697870823271000,1.91427099609375,1.7741963691562412,0.7005792954057455,-0.3244599176585674
1772697870833319700,1.924319580078125,1.6257190413475036,0.6872305690109729,-0.3786182088255882
1772697870843368700,1.93436865234375,1.4850678771197794,0.68425184546113,-0.34796821901798247
1772697870853416700,1.944416748046875,1.3458645736128092,0.7487053206712007,-0.24412206009626386
1772697870863465700,1.9544658203125,1.0946996092677115,0.6800871269971132,-0.16323124482631682
1772697870873514800,1.9645146484375,0.9421709602415561,0.5094140417322516,-0.1492161634773016
1772697870883562800,1.974562744140625,0.7243354340463877,0.37440409826189275,-0.12185644738674163
1772697870893611800,1.98461181640625,0.44309681847691534,0.26526626267284154,-0.04027998794019222
1772697870903660800,1.994660888671875,0.2459673957020044,0.09291559958457946,0.001464227333664894
1772697870913709600,2.00470947265625,0.018407763350009917,-0.09440145422816276,0.05407236644923687
1772697870923757800,2.0147578125,-0.24603227763175964,-0.27368337788432834,0.05029986217319965
1772697870933806600,2.024806640625,-0.5065209506392478,-0.38743016857355833,-0.006434416961669922
1772697870943855900,2.03485595703125,-0.7583633758544921,-0.5401525866061448,-0.026788638204336166
1772697870953903600,2.044903564453125,-0.9037000675499439,-0.6506105648830532,-0.020571663385629654
1772697870963953000,2.054952880859375,-0.9632242696642875,-0.6644359688788652,-0.0433177482008934
1772697870974001700,2.065001708984375,-0.8522259009003639,-0.6800339355051517,0.005800795233249664
1772697870984050400,2.075050537109375,-0.7537935837209224,-0.7072659335628152,0.02651099030673504
1772697870994098400,2.085098388671875,-0.6908639570772648,-0.7533899713560939,0.02282616431415081
1772697871004147500,2.0951474609375,-0.6328478214383125,-0.8035860808938741,0.020661679756641387
1772697871014196500,2.105196533203125,-0.5954711537241936,-0.7909460872903465,-0.1268903499007225
1772697871024244500,2.115244384765625,-0.6015127719759941,-0.7945958419695496,-0.2229886711746454
1772697871034293500,2.12529345703125,-0.618932108810544,-0.7444371418327093,-0.3090846538722515
1772697871044342500,2.135342529296875,-0.5978378828555345,-0.7001441188588738,-0.39681554429531096
1772697871054391300,2.145391357421875,-0.5422749855875969,-0.6308212840467691,-0.5642354729831218
1772697871064439600,2.155439453125,-0.4976280346095562,-0.5758668740659952,-0.61009939853549
1772697871074488300,2.16548828125,-0.4931833301603794,-0.5286465654686093,-0.6399690516203641
1772697871084537600,2.17553759765625,-0.4615332233995199,-0.45685617149919266,-0.5961141278028488
1772697871094585300,2.18558544921875,-0.46975452377796173,-0.3490107138082385,-0.593373889183998
1772697871104634600,2.195634521484375,-0.4618611401796341,-0.22547902668565512,-0.586111789226532
1772697871114683400,2.205683349609375,-0.5160007266461849,-0.231932148347795,-0.500714894708991
1772697871124731600,2.215731689453125,-0.5482312636435032,-0.16133739390373228,-0.5543453626096249
1772697871134780400,2.225780517578125,-0.5953185935109854,-0.0673252312541008,-0.5923550675302743
1772697871144829400,2.235829345703125,-0.6207827051132917,0.05147241308391094,-0.6137567519992589
1772697871154878500,2.24587841796875,-0.6765221279919147,0.16487082872688769,-0.6463292343020439
1772697871164926500,2.255926513671875,-0.69631871535182,0.22396862212270496,-0.6286369257450103
1772697871174975500,2.2659755859375,-0.668960752826929,0.3080874595284462,-0.6247796657949686
1772697871185024500,2.2760244140625,-0.6296206760853529,0.37795448421984906,-0.5695516995698213
1772697871195072500,2.286072509765625,-0.7143032848536968,0.44364393096566196,-0.4990682965457439
1772697871205121500,2.29612158203125,-0.6241986510366201,0.43365299056619405,-0.49711190178096293
1772697871215170300,2.30617041015625,-0.65980187933743,0.3500140456318855,-0.5257365232408047
1772697871225219600,2.316219482421875,-0.7499567820370197,0.28616993449181316,-0.5581786571621894
1772697871235267300,2.326267333984375,-0.8906792579352855,0.22828970019221304,-0.5842237835228443
1772697871245316600,2.336316650390625,-1.0730734683930874,0.2551961195573211,-0.5968477027744055
1772697871255365400,2.346365478515625,-1.1636118174523113,0.15376929673701523,-0.6888415113389491
1772697871265413600,2.35641357421875,-1.2156903797358274,0.05280863012373447,-0.7526309696823358
1772697871275462400,2.36646240234375,-1.1870803713232279,0.02686287248432636,-0.7640151180058717
1772697871285511400,2.376511474609375,-1.177290798714757,-0.012856851224601269,-0.804237238278985
1772697871295560400,2.386560546875,-1.1635486890882254,-0.11163754345029592,-0.8465110303848982
1772697871305608400,2.3966083984375,-1.2153344059050082,-0.17561375653743744,-0.9373808033555745
1772697871315657500,2.406657470703125,-1.3098118479788303,-0.10297229869663714,-0.9150292708158493
1772697871325706500,2.41670654296875,-1.3588245929509402,-0.013265724286437033,-0.9336521382212638
1772697871335754500,2.42675439453125,-1.5347639281809329,0.34951690976470706,-0.6087444767951965
1772697871345803500,2.436803466796875,-1.786056318297982,0.9307499870389699,0.21468319964408875
1772697871355852300,2.446852294921875,-1.7897060729771852,1.2644558719485997,0.8891834664195776
1772697871365901600,2.456901611328125,-1.2210907774746418,1.4329796702250837,0.83580258936584
1772697871375949300,2.46694921875,-0.5963958673536777,1.7769506363004446,0.748031366932392
1772697871385998600,2.47699853515625,-0.32710721729695796,2.0279089721575376,0.7720119619786739
1772697871396047400,2.48704736328125,-0.16691081012189388,2.0546911806210875,0.807769504058361
1772697871406095600,2.497095703125,0.04848433718383312,1.9152870938450097,0.9063613957136869
1772697871416144400,2.507144287109375,0.4247591977536678,1.6654253210529684,0.9949521178364753
1772697871426193400,2.517193359375,0.5881774895846843,1.3996850111275911,1.0149527033358812
1772697871436242700,2.52724267578125,0.706122901007533,1.2794459358096122,0.8039794641256331
1772697871446290400,2.53729052734375,0.9107090695291757,1.2990452470317482,0.49117608199119567
1772697871456339500,2.54733935546875,1.1220058416053653,1.2335966233044862,0.04432546393871307
1772697871466388500,2.557388427734375,1.4402017304331063,1.1347288373172282,-0.3817243581473827
1772697871476436500,2.5674365234375,1.517497736081481,0.9941840560734272,-0.7743138091802596
1772697871486485500,2.577485595703125,1.5138210933953522,0.7275231241717934,-1.034951535269618
1772697871496534500,2.587534423828125,1.3947878867357968,0.49421588807851075,-1.1857441542834042
1772697871506583600,2.59758349609375,1.2318620545968413,0.2811222957134247,-1.3924299254328012
1772697871516631300,2.60763134765625,1.0480091697633265,0.06491290941536426,-1.550071971949935
1772697871526680600,2.6176806640625,0.8199526938050985,-0.14433891282975672,-1.5844184781879185
1772697871536729600,2.6277294921875,0.3513572769343853,-0.31786797204762696,-1.357312434822321
1772697871546777600,2.637777587890625,-0.018436697183549403,-0.3401724505752325,-0.9267775762766599
1772697871556826600,2.64782666015625,-0.25683716476261614,-0.3649523793056607,-0.6101642804652452
1772697871566875400,2.65787548828125,-0.6321425957784056,-0.4177671469092369,-0.33324060548543927
1772697871576923400,2.66792333984375,-0.862520500421524,-0.41749096031635996,-0.16737258241474628
1772697871586972400,2.677972412109375,-0.8145072878807783,-0.3067690704062581,0.0347474882543087
1772697871597021700,2.688021728515625,-0.6062509064137935,-0.14364566986858843,0.31472412106394765
1772697871607070500,2.698070556640625,-0.3637584933459759,0.08428630292713642,0.6312117446690797
1772697871617118500,2.708118408203125,-0.04422609521746635,0.28727701895087954,0.799240745165944
1772697871627167500,2.71816748046875,0.19368951145410537,0.4544637234047055,0.9889572613358497
1772697871637216500,2.728216552734375,0.4010398839920759,0.5398655863583087,1.0583493619918822
1772697871647264500,2.738264404296875,0.5859890396296977,0.610123656193912,0.9278741393417119
1772697871657313500,2.7483134765625,0.7972334969967603,0.730088298484683,0.8081213862359523
1772697871667362600,2.758362548828125,0.94386081302464,0.6629372547537088,0.6376952614694833
1772697871677411600,2.76841162109375,1.0423065742075444,0.4066910416215658,0.5719254429638385
1772697871687459600,2.77845947265625,1.0316098236262798,0.26430589320808645,0.40471068145930766
1772697871697508600,2.788508544921875,0.9574246434748173,0.17073650588989256,0.2931739680349827
1772697871707557400,2.798557373046875,0.8430378013163804,0.04678425526767969,0.20919453909993171
1772697871717605600,2.808605712890625,0.7651596118658781,-0.033758477216958994,0.18245441621243952
1772697871727654400,2.818654296875,0.7851683806717396,-0.09057605072110891,0.1789835252314806
1772697871737703700,2.82870361328125,0.8335247075617312,-0.2385682253614068,0.11201485233008861
1772697871747752400,2.83875244140625,0.910443696591258,-0.2558984226077795,0.1316524497359991
1772697871757800700,2.84880078125,0.991450247195363,-0.34869857911914587,0.25369360603988167
1772697871767849500,2.858849365234375,0.9850991246029734,-0.37126930736750363,0.342202495098114
1772697871777898500,2.8688984375,0.8292220419317483,-0.3139966835722327,0.40960663680732246
1772697871787946500,2.878946533203125,0.6341600730806589,-0.07389175016283989,0.4397697198808193
1772697871797995500,2.88899560546875,0.42046588447391986,-0.0017336919248104093,0.45973055789172645
1772697871808044500,2.89904443359375,0.31005379116535187,0.11098229441195726,0.4007061219930649
1772697871818093600,2.909093505859375,0.28145634997338054,0.21189678379595278,0.4553904828608036
1772697871828141600,2.9191416015625,0.2630576467126608,0.20598755975216626,0.4044125752955675
1772697871838190600,2.929190673828125,0.2821712202444672,0.22993103765845296,0.31128596330881114
1772697871848239400,2.9392392578125,0.1747568474471569,0.3249979700580239,0.2043272253245115
1772697871858287600,2.94928759765625,0.07281564536392689,0.3775485337674618,0.02266483627259731
1772697871868336400,2.95933642578125,-0.03135375416278839,0.3629933541923761,-0.09890168825685977
1772697871878385700,2.9693857421875,-0.13843699530959128,0.3546381983011961,-0.26003976019620895
1772697871888434400,2.979434326171875,-0.21846564079225061,0.269799229927361,-0.3939110550254583
1772697871898482700,2.989482666015625,-0.2872790647774935,0.14095014717429877,-0.4972282216370105
1772697871908531500,2.999531494140625,-0.24886428618729112,0.019874036510288715,-0.5613952811211347
1772697871918580500,3.00958056640625,-0.25937165167629717,0.007588263171911239,-0.635237931445241
1772697871928628500,3.01962841796875,-0.20786533632278442,0.015183248345553874,-0.6661901190698146
1772697871938677500,3.029677490234375,-0.08990238924324512,-0.013823358169198035,-0.6356085183233022
1772697871948726500,3.0397265625,-0.015333178210258484,-0.057663961200416086,-0.5694248583197593
1772697871958774500,3.0497744140625,0.052207741621136665,-0.0658110272988677,-0.4890875852793455
1772697871968823600,3.059823486328125,0.10148439822643995,-0.05803893199265003,-0.443791230481863
1772697871978872600,3.06987255859375,0.12615882075577975,-0.06012304479032755,-0.36256665321290493
1772697871988921900,3.079921875,0.2102624605923891,-0.041757659277319906,-0.2784954543411732
1772697871998970000,3.08997021484375,0.26017420023083687,0.006901449951529502,-0.21979367452561854
1772697872009019000,3.100018798828125,0.3757563896536827,0.08968786970973014,-0.15316168623268603
1772697872019068000,3.11006787109375,0.5248720153659582,0.0764160079434514,-0.1012011973708868
1772697872029116000,3.120115966796875,0.5244096585512161,0.095303663764894,0.06290799933373928
1772697872039165000,3.1301650390625,0.5212614236533641,0.14509323832839727,0.15621522858440876
1772697872049214000,3.1402138671875,0.46512627945542334,0.18993863448798656,0.1654156031280756
1772697872059263000,3.150262939453125,0.38488252991735933,0.19162118074744938,0.18672844026982782
1772697872069311000,3.16031103515625,0.2655854116246104,0.22178251025527715,0.242590612745285
1772697872079360000,3.170360107421875,0.0678822806149721,0.17377514293342827,0.21549977672398088
1772697872089408800,3.18040869140625,-0.10921031630337237,0.08343377775102853,0.07477905439138412
1772697872099457000,3.19045703125,-0.16376199070215225,0.04491057035028934,0.09035364014208316
1772697872109505800,3.200505859375,-0.37125001814514397,0.013591302978992461,0.06979600528180599
1772697872119555000,3.21055517578125,-0.5640089707508683,-0.03369271850436926,0.034625907701253886
1772697872129603800,3.220603759765625,-0.660596244585514,-0.0960685106575489,-0.015080080232024192
1772697872139652000,3.230652099609375,-0.7771843961805105,-0.1802487228617072,-0.0730851099550724
1772697872149700900,3.240700927734375,-0.8433364920020103,-0.25346651928573843,-0.13630758206546306
1772697872159750000,3.25075,-0.829543528971076,-0.33305881917774677,-0.22892624453008173
1772697872169798000,3.2607978515625,-0.9132441409647464,-0.3438438325643539,-0.32422727794647216
1772697872179847000,3.270846923828125,-0.9495967263281345,-0.3141536276996136,-0.43215515322387216
1772697872189896000,3.28089599609375,-0.9855886616855859,-0.3004997808784246,-0.5757715969979763
1772697872199945000,3.290945068359375,-0.9581588029682636,-0.3112006231129169,-0.6853326264351606
1772697872209993000,3.300992919921875,-0.928853213506937,-0.38964199940413236,-0.8269529279559851
1772697872220042000,3.3110419921875,-0.8541957396686076,-0.4181184445649385,-0.8886433681935071
1772697872230090800,3.3210908203125,-0.7585206122428179,-0.4095473078355193,-0.8787655327796936
1772697872240139000,3.331138916015625,-0.6696124947339296,-0.3720896838396787,-0.8198316977739334
1772697872250187800,3.341187744140625,-0.547258034697175,-0.30784634424895047,-0.8461948040425777
1772697872260237000,3.351237060546875,-0.4716472056567669,-0.28074469457268714,-0.8036737591773271
1772697872270286000,3.3612861328125,-0.35815175938010213,-0.20333646072149275,-0.8156944518387317
1772697872280334000,3.371333984375,-0.29639117651581764,-0.1817582506418228,-0.7490221315354109
1772697872290382800,3.3813828125,-0.2815367217332125,-0.20893355007618664,-0.6543178949683904
1772697872300432000,3.391431884765625,-0.2952536969184875,-0.15508184064030647,-0.6514917316317558
1772697872310480000,3.40147998046875,-0.3559463582903147,-0.1270645374238491,-0.606098930722475
1772697872320529000,3.41152880859375,-0.47065351844429965,-0.08525485569834709,-0.6076765553027391
1772697872330578200,3.421578125,-0.6053232701748609,0.008302256660163402,-0.5542050773561
1772697872340627000,3.431626953125,-0.6674345661729574,0.062065118768811225,-0.5017518365412951
1772697872350675000,3.441675048828125,-0.6801391494452953,0.07954758396744728,-0.4274181878298521
1772697872360724000,3.451723876953125,-0.6238251415491104,0.09828267957568168,-0.3036912703961134
1772697872370773000,3.46177294921875,-0.621710925874114,0.10371113436520099,-0.2614081259399652
1772697872380821000,3.471821044921875,-0.7493950565010309,0.07118629059642553,-0.23625088832974434
1772697872390869800,3.481869873046875,-0.7835252896398306,0.03053542351722717,-0.2236427511692047
1772697872400919000,3.4919189453125,-0.9364403076350688,0.0243254629611969,-0.2587549810826778
1772697872410966800,3.501966796875,-0.9837269594669341,-0.0018450433447957037,-0.2765817296743393
1772697872421016000,3.51201611328125,-0.9660755674421787,-0.029518939951062202,-0.2902010897040367
1772697872431065000,3.522065185546875,-1.098322475939989,-0.048691842454671855,-0.3272790667325258
1772697872441113900,3.53211376953125,-1.1921312249720095,-0.03207359286993742,-0.25151217034757134
1772697872451161900,3.542161865234375,-1.1703875951975584,-0.038137130692601204,-0.24139526548087595
1772697872461211000,3.5522109375,-1.2542401828825473,-0.06614595834165811,-0.16390519856512545
1772697872471260200,3.56226025390625,-1.1371177782803774,-0.18450141187012195,-0.21819851428866385
1772697872481308000,3.572307861328125,-1.1321394053459166,-0.2962491376966238,-0.3706669575601816
1772697872491357200,3.582357177734375,-1.20695703818202,-0.3745204181179404,-0.40015199524164197
1772697872501406000,3.592406005859375,-1.248363984325528,-0.4429346136525273,-0.4813227964967489
1772697872511455000,3.602455078125,-1.2651257340341806,-0.5122177009761333,-0.3304945216476917
1772697872521503000,3.6125029296875,-1.3655267209380864,-0.5086968333736062,0.24980127477645872
1772697872531552000,3.622552001953125,-1.473048938024044,-0.47609658628106116,0.765443104982376
1772697872541601000,3.63260107421875,-1.1554992381453513,-0.3397998178705573,1.2786428027331829
1772697872551648800,3.642648681640625,-0.775251382291317,-0.2849050291225314,1.71276545663774
1772697872561698000,3.652697998046875,-0.25433599559664727,-0.2897980618610978,1.9480068756639957
1772697872571747000,3.6627470703125,-0.05600070416331291,-0.2739063729852438,2.368217908594012
1772697872581795800,3.6727958984375,-0.017440964144468305,-0.05695961232334375,2.817335887056589
1772697872591844000,3.682843994140625,0.3990308822572231,0.24195260710269212,2.893387445601821
1772697872601892900,3.692892822265625,0.8817740669459104,0.24605858111679552,2.147860170444846
1772697872611942100,3.702942138671875,1.1279261715650557,-0.05954992107748985,1.519822964158654
1772697872621990000,3.712989990234375,1.3536299469172954,-0.3345733153939247,1.11381873575747
1772697872632039200,3.7230390625,1.6456319485634565,-0.5360346298933029,0.7195265724599361
1772697872642088000,3.733087890625,1.81060389957726,-0.7199722704008221,0.2858008089184761
1772697872652137000,3.743136962890625,1.8638783936470746,-0.8414084465488791,-0.17510697605907916
1772697872662185000,3.75318505859375,1.861343322211504,-1.130178918927908,-0.3696259240746498
1772697872672234000,3.76323388671875,1.7261182746857404,-1.415746503612399,-0.37163141867816446
1772697872682283000,3.773282958984375,1.4433470427215098,-1.4421853054657578,-0.6393412751108407
1772697872692331000,3.7833310546875,0.7764870615661144,-1.3250889120876788,-0.6187228499740361
1772697872702380000,3.793380126953125,-0.20046295111179352,-0.9589061142042279,-0.5537994191646576
1772697872712429000,3.803428955078125,-1.2024778469413517,-0.5478627225920558,-0.37056525075137614
1772697872722477800,3.813477783203125,-1.8340198464781046,-0.24954028575271367,-0.20532734227776525
1772697872732526000,3.823526123046875,-1.67774032048583,-0.11656301715373993,0.07653904980123043
1772697872742574800,3.833574951171875,-1.2164485046267508,0.06085778880566358,0.4969534963488578
1772697872752624000,3.8436240234375,-0.6749240451455116,0.13788374534100292,0.6455676022797823
1772697872762671900,3.853671875,-0.026021745485067367,0.21718641463667154,0.46364042481184004
1772697872772721200,3.86372119140625,0.4319961632698774,0.42173634280115363,0.3642448155581951
1772697872782770000,3.87377001953125,0.7129167989313602,0.5768731284990907,0.29437691408395766
1772697872792819000,3.88381884765625,1.0767138707220554,0.7627046199291944,0.22609248240888116
1772697872802867000,3.893866943359375,1.3487982889771462,0.7788496990442275,0.2569435477465391
1772697872812916000,3.903916015625,1.509009893721342,0.6349304729312658,0.2800011827290058
1772697872822965000,3.913965087890625,1.6557640509992837,0.4343427263960242,0.2273410211652517
1772697872833013000,3.924012939453125,1.8800328251123428,0.09078677086234092,0.2008113261580467
1772697872843062000,3.93406201171875,1.8941940369337795,-0.14086772958785296,0.2490484105825424
1772697872853111000,3.944111083984375,1.9272008190006016,-0.27218349471539255,0.24114801272153852
1772697872863159800,3.954159912109375,1.9650556256204843,-0.2771767729580402,0.22419980053007602
1772697872873208000,3.9642080078125,1.944462919446826,-0.22720482756495475,0.29880875905156135
1772697872883256800,3.9742568359375,1.9402397487938403,-0.21425240701138973,0.42121465701460836
1772697872893306000,3.98430615234375,1.7268600329637527,0.013324468736350535,0.4022083432495594
1772697872903353900,3.994353759765625,1.4260007711231708,0.31974194922596216,0.5205266796380281
1772697872913403100,4.004403076171875,1.1129577350139617,0.4974962249234318,0.6619494127601385
1772697872923452000,4.014451904296875,0.8210141855567693,0.607799889421463,0.8006020966470241
1772697872933501000,4.0245009765625,0.5114876331359147,0.7491694310516118,0.9297732509613037
1772697872943549000,4.034548828125,0.3056590633377433,0.9025058893293142,0.9500760342776775
1772697872953598000,4.044597900390625,0.12394552862048148,0.9601754034876823,0.9610030864834785
1772697872963647000,4.05464697265625,0.024154782569408416,0.9978495928436517,0.7102724219024181
1772697872973695000,4.064695068359375,-0.011452537384629249,0.986092227293551,0.5572364078760147
1772697872983744000,4.074743896484375,-0.16462620631605385,0.7296186351463199,0.3342249403476715
1772697872993793000,4.08479296875,-0.3436673069536686,0.45940556372106073,0.1458294436484575
1772697873003842000,4.094842041015625,-0.5087333659917116,0.2996294277846813,0.09617898529469966
1772697873013890000,4.10489013671875,-0.5108785613268614,0.1570189461827278,0.0064151277393102646
1772697873023939000,4.11493896484375,-0.3808662800133228,0.017738193525373935,-0.08897709109187125
1772697873033988000,4.124988037109375,-0.17327449993491173,-0.06091156481951475,-0.22501287047863006
1772697873044035800,4.135035888671875,0.08959580751210451,-0.15131664288789032,-0.28115444441735743
1772697873054085000,4.145085205078125,0.3318839301794767,-0.18892711935788392,-0.36757425224184986
1772697873064134100,4.155134033203125,0.5530284347921609,-0.08599018423557281,-0.49892333511710163
1772697873074182100,4.16518212890625,0.766577077448368,0.05893909570276737,-0.5689812062054872
1772697873084231000,4.17523095703125,0.9052841218709945,0.22519114965498446,-0.5760977602124214
1772697873094280000,4.185280029296875,1.0201643005043268,0.3688619539648294,-0.553638091123104
1772697873104329200,4.1953291015625,1.0743600010722876,0.46572921378463505,-0.5177338340491057
1772697873114377000,4.205376953125,1.0706675762951374,0.5065566064745187,-0.4020943614810705
1772697873124426200,4.21542626953125,0.9748165077805518,0.5284913749068975,-0.24628888274133204
1772697873134475000,4.22547509765625,0.8423854748874903,0.4965379012852907,-0.12169745743274687
1772697873144524000,4.23552392578125,0.75180270216465,0.3196571935519576,-0.026145079603791234
1772697873154572000,4.245572021484375,0.6535165154576301,0.21112784525007008,-0.008994038316607474
1772697873164621000,4.25562109375,0.47109892412424087,0.14347732756435871,-0.08646364696621894
1772697873174670000,4.265670166015625,0.26307985854446886,0.1340685709670186,-0.0471954664170742
1772697873184718000,4.275718017578125,0.06811433580517769,0.03774754685312509,-0.006491700106859207
1772697873194767000,4.28576708984375,-0.09763386027812958,0.000443067592382431,0.031498715591430665
1772697873204816100,4.295816162109375,-0.25686697537899017,-0.009959376217424869,0.10549217256307601
1772697873214864100,4.305864013671875,-0.3383504958450794,-0.06718436147868632,0.14883271711766718
1772697873224913200,4.3159130859375,-0.38568741655945776,-0.15164543645083903,0.15462357547879219
1772697873234962000,4.3259619140625,-0.3896773629784584,-0.15738398010283708,0.08264496546089649
1772697873245011200,4.33601123046875,-0.4088040882527828,-0.15935031173974273,-0.002236380749940872
1772697873255059000,4.346058837890625,-0.4177040185451507,-0.18988310490846633,-0.06502338405251502
1772697873265108200,4.356108154296875,-0.4451531664848327,-0.20233312889784574,-0.14770283630490302
1772697873275157000,4.366156982421875,-0.46263738524913783,-0.19065438154190778,-0.17026655029058455
1772697873285205200,4.376205322265625,-0.47913434654176235,-0.16997107447534798,-0.2148988882213831
1772697873295254000,4.38625390625,-0.4956102650463581,-0.14970307021141052,-0.25572189699709413
1772697873305303000,4.396302978515625,-0.5829921959012746,-0.09078618634045124,-0.33450960250794887
1772697873315352000,4.40635205078125,-0.6763759975194931,-0.04518120398521423,-0.41507659265100955
1772697873325400000,4.416400146484375,-0.6964858886122703,-0.06638999623060227,-0.4965513452887535
1772697873335449000,4.426448974609375,-0.6919196036100387,-0.035706688675284384,-0.5007119720995425
1772697873345498000,4.436498046875,-0.7169172667443752,0.052478667517006396,-0.5656815801382065
1772697873355547000,4.446546875,-0.714772655931115,0.04206920944452285,-0.5553028094649315
1772697873365595100,4.45659521484375,-0.6843535522699356,0.05804506947249174,-0.5518477005749941
1772697873375644000,4.466643798828125,-0.5937713640689849,0.07220803485959768,-0.5207540586531162
1772697873385693200,4.476693115234375,-0.44727264285683627,0.12381430345624685,-0.5200514633417129
1772697873395741000,4.486740966796875,-0.4093137913405895,0.11665040317624807,-0.5113660525828599
1772697873405790200,4.496790283203125,-0.31122225042283536,0.10458324102461337,-0.4660913250952959
1772697873415839000,4.5068388671875,-0.25351298877596856,0.09158552002459763,-0.39063714792132376
1772697873425887200,4.51688720703125,-0.24952538044452666,0.07326894208937883,-0.2780710914492607
1772697873435936000,4.52693603515625,-0.30524843671023844,0.049991526876389976,-0.24709084677398202
1772697873445985000,4.536985107421875,-0.30986674416065213,0.03831482534706592,-0.16831132456958292
1772697873456034000,4.547033935546875,-0.32566052561998365,0.0103261637032032,-0.11008300748467445
1772697873466082000,4.55708203125,-0.30699498811662196,-0.008653262054920195,-0.059092240437865255
1772697873476131000,4.567131103515625,-0.3060375412613153,-0.033115795399248596,0.010136194089055061
1772697873486180000,4.57718017578125,-0.2369137361526489,-0.0763444040119648,0.0002864157259464264
1772697873496228000,4.58722802734375,-0.1545709685087204,-0.11947715103477238,0.02088204450905323
1772697873506277000,4.597277099609375,-0.13005845854282377,-0.21512276010513304,0.07952537213563919
1772697873516326000,4.607325927734375,-0.08524667239189147,-0.28219693920761346,0.09934709393680095
1772697873526375200,4.617375244140625,-0.15175649560987947,-0.34726883857697244,0.07987666979134082
1772697873536423000,4.6274228515625,-0.19752280600667,-0.40412060661166904,-0.0063327101528644555
1772697873546472200,4.63747216796875,-0.2640799754977226,-0.4831386137470603,-0.09834171628654002
1772697873556521000,4.64752099609375,-0.43003859946131706,-0.6018126317054033,-0.20091303296685217
1772697873566569200,4.6575693359375,-0.6145125388026237,-0.44363019470125437,-0.19312837044000625
1772697873576618000,4.667617919921875,-0.7374024208903313,-0.4228381665632128,-0.2194721874862909
1772697873586667000,4.6776669921875,-0.8406307401746511,-0.4274830697596073,-0.28411270970106123
1772697873596716000,4.687716064453125,-0.8444295479357242,-0.2977171644225716,-0.32451135558485983
1772697873606764000,4.697763916015625,-0.8248369587153196,-0.16606997538357973,-0.3643342474073171
1772697873616813000,4.70781298828125,-0.7696019782274961,-0.03281125949472189,-0.48918929208815093
1772697873626862000,4.717862060546875,-0.7065881804317236,0.07971884888112545,-0.6590133593082428
1772697873636910000,4.72791015625,-0.6943599824994802,0.1647980557516217,-0.8177104678362608
1772697873646959000,4.737958984375,-0.703342330378294,0.2699532514452934,-0.9188725022405385
1772697873657007900,4.7480078125,-0.6784265003085136,0.42690351630598306,-0.887785874581337
1772697873667057200,4.75805712890625,-0.7641922281384468,0.902142608974874,-0.5827554645359516
1772697873677105000,4.76810498046875,-1.0335632957816123,1.4581158650472759,0.11105798999667167
1772697873687154200,4.778154296875,-1.322511170554161,1.81589119233042,0.8069459127157926
1772697873697203000,4.788202880859375,-1.1141308704465627,1.7986404900610447,0.8354916237205267
1772697873707251000,4.7982509765625,-0.4787988309770822,1.7220426958099007,0.4548924702107906
1772697873717300000,4.808300048828125,-0.08554828568696975,1.7198817183837294,0.1766045211404562
1772697873727349000,4.818348876953125,0.08130641033351421,1.8271026144355536,0.15920388900637625
1772697873737398000,4.82839794921875,0.13324410284161567,1.9052654660463333,0.3311491861641407
1772697873747446000,4.838446044921875,0.1272901628732681,1.777106411384046,0.6854390094190835
1772697873757495000,4.8484951171875,0.21998305961787698,1.4496777070477604,0.7730231848478317
1772697873767544000,4.8585439453125,0.4109142122745514,1.2133441088706254,0.515181811478734
1772697873777592000,4.868592041015625,0.515105239111185,1.0296727180838585,0.07330255209803581
1772697873787641000,4.87864111328125,0.7139502336323261,0.8501768594160676,-0.3318219708591699
1772697873797689900,4.88868994140625,0.8609802852421998,0.7513675256177783,-0.622876462522149
1772697873807739100,4.8987392578125,0.9343196622192859,0.5593646520763635,-0.919748116031289
1772697873817787000,4.908786865234375,1.0220300943762064,0.3222340583026409,-1.1702829657793044
1772697873827836200,4.918836181640625,1.0247130498498678,0.17041618789434432,-1.4588929868996143
1772697873837885000,4.928885009765625,0.9200362853229045,0.057223523956537244,-1.6051216589987276
1772697873847933000,4.938932861328125,0.7117430789768695,0.010375263541936873,-1.6333821233212946
1772697873857982000,4.94898193359375,0.35614743382036684,-0.08915390896350145,-1.5023615417480467
1772697873868031000,4.959031005859375,0.07106558682620524,-0.18162088799774645,-1.3017869469553232
1772697873878080300,4.969080322265625,-0.22262042238414287,-0.1843774932295084,-1.0362895058751105
1772697873888128000,4.9791279296875,-0.3265741333335638,-0.13711305322945117,-0.7642360672801732
1772697873898177000,4.989177001953125,-0.3257856133043766,-0.18746523011177776,-0.4614326856344938
1772697873908226000,4.99922607421875,-0.35046120487749577,-0.19148586392998695,-0.2681248669743538
1772697873918274000,5.009274169921875,-0.4423404471516609,-0.11719751566499471,-0.06099661275446414
1772697873928323000,5.019322998046875,-0.5145984586328268,0.09465835159868001,0.09494973576068877
1772697873938371800,5.029371826171875,-0.47540626592934127,0.2984256049528718,0.26154607310593125
1772697873948421000,5.039421142578125,-0.4208604367494583,0.5147358212769031,0.37599721267223357
1772697873958468900,5.04946875,-0.29416414811611175,0.6159624453499913,0.48393794743120666
1772697873968518100,5.05951806640625,-0.0057423430442810055,0.6202648187190294,0.5322656327486038
1772697873978567200,5.069567138671875,0.33334523490369317,0.5561386757671832,0.5031862532585859
1772697873988614400,5.079614501953125,0.5546949066996574,0.5082005742892622,0.5336059414416551
1772697873998663200,5.0896630859375,0.6679045217722654,0.42133623756766314,0.6337707815021276
1772697874008712200,5.099712158203125,0.7300573188245296,0.35113428183346984,0.7140776594042778
1772697874018761200,5.10976123046875,0.7211153029561043,0.22353666044622658,0.7744751372218132
1772697874028809200,5.119809326171875,0.8431120355963706,0.21601795537918805,0.7223422144025564
1772697874038858200,5.129858154296875,0.9582838906526565,0.19911358232945203,0.5603992558211088
1772697874048907300,5.1399072265625,1.081341530522704,0.16390899795740843,0.4251163406282663
1772697874058955300,5.149955322265625,1.1181202323436736,0.07676409072875977,0.3411947793602943
1772697874069004300,5.16000439453125,1.1110837578356265,-0.02802197939157486,0.2898468694388866
1772697874079053000,5.170052978515625,1.0695078848659991,-0.1286988606274128,0.27911680110991
1772697874089102300,5.180102294921875,1.048452237355709,-0.2105421543166041,0.20119594156146048
1772697874099150000,5.190150146484375,1.0227648383915424,-0.24075404496788977,0.2263572708249092
1772697874109199400,5.200199462890625,1.0151549479097128,-0.2894873884767294,0.27917992947399617
1772697874119248100,5.210248046875,0.9695464584231376,-0.269545547427237,0.3281336377352476
1772697874129296400,5.22029638671875,0.8241156587034464,-0.2593763278514147,0.3661784139692783
1772697874139345200,5.23034521484375,0.7629179704189301,-0.1661933095023036,0.41808512681722637
1772697874149394200,5.240394287109375,0.6021779578864574,-0.04106821570843458,0.47179918134808535
1772697874159443200,5.250443115234375,0.5600573105156421,0.01665478220283985,0.5802040264874696
1772697874169491200,5.2604912109375,0.47822599952518935,0.047749300907552236,0.6527823559641838
1772697874179540200,5.270540283203125,0.40077743366360663,0.13027297807633875,0.787120099261403
1772697874189589200,5.28058935546875,0.2803068876773119,0.08960311403572559,0.8677659998595714
1772697874199637200,5.29063720703125,0.24474691399633883,0.1295584000661969,0.8863830220460891
1772697874209686300,5.300686279296875,0.2696019537895918,0.14623802444934844,0.852990455532074
1772697874219735000,5.310735107421875,0.4896276835054159,0.19169103111326694,0.7849258040875196
1772697874229784300,5.320784423828125,0.7008855848759412,0.17005495336651802,0.5621089823484421
1772697874239832000,5.33083203125,0.8065192117363214,0.08957914863824844,0.2825806778281927
1772697874249881300,5.34088134765625,0.6810217774987221,-0.02783668595254421,0.04492401435375214
1772697874259930000,5.35093017578125,0.5361980037614703,-0.0426575307264924,-0.16919862879812717
1772697874269978400,5.360978271484375,0.41556379164606333,-0.035920915947854515,-0.3086129447072744
1772697874280027100,5.371027099609375,0.21093261493891477,0.025412673676013946,-0.3670645491540432
1772697874290076200,5.381076171875,0.002921440404653549,0.07423164964169264,-0.348120194709301
1772697874300124200,5.391124267578125,-0.027476620468497276,0.12122019530981779,-0.32825697185397146
1772697874310173200,5.401173095703125,-0.050376434540748596,0.14542378545701504,-0.3148731741458177
1772697874320222200,5.41122216796875,-0.05483925916850566,0.12265695011466742,-0.33709844995737076
1772697874330270200,5.421270263671875,-0.039327801781892775,0.13214958560317755,-0.438233596354723
1772697874340319200,5.4313193359375,-0.05932224980145692,0.10820756900161504,-0.5102075301975012
1772697874350368300,5.4413681640625,-0.09505027352571487,0.07558335651159286,-0.5444646045863628
1772697874360417000,5.4514169921875,-0.07685936779677867,0.09834639246165752,-0.4458692057996988
1772697874370465300,5.46146533203125,-0.052330198957026,0.10157353781461716,-0.29527883135974403
1772697874380514000,5.47151416015625,-0.021267828956246376,0.10653934352844953,-0.19013211123347282
1772697874390563300,5.481563232421875,-0.025496260306239128,0.09129267455786466,-0.12070610830783843
1772697874400612000,5.491612060546875,0.05387187544107437,0.09285159443765878,-0.12183540459871292
1772697874410660400,5.501660400390625,0.03412088078856468,0.03602963701933622,-0.16551321828365326
1772697874420709000,5.511709228515625,0.05105214184522629,-0.06282879661768674,-0.22093933742940425
1772697874430758100,5.521758056640625,0.04573299264907837,-0.13695172518789767,-0.23840309792757033
1772697874440806100,5.53180615234375,0.03983049060702323,-0.2292377946972847,-0.2579980252355337
1772697874450855200,5.541855224609375,0.02454232058227062,-0.2916805146068334,-0.27752456348240373
1772697874460904200,5.551904296875,0.014793664506077766,-0.3567214343160391,-0.2750684025019407
1772697874470953200,5.561953125,0.02965805616080761,-0.37041064471155405,-0.29254326891601085
1772697874481001200,5.572001220703125,-0.007285773093998432,-0.3687748602032661,-0.29168519078195093
1772697874491050200,5.58205029296875,-0.11462503482848405,-0.4053314437061548,-0.29635493615865705
1772697874501099000,5.59209912109375,-0.25568624116182326,-0.41768502158373594,-0.2962742721378803
1772697874511147300,5.602147216796875,-0.42886429498493667,-0.3640899172574282,-0.19580781878232956
1772697874521196000,5.612196044921875,-0.5536880677446723,-0.3035942397624254,-0.06380991660952567
1772697874531245300,5.622245361328125,-0.6155085641026496,-0.24598405457586048,0.0050648821741342545
1772697874541294300,5.63229443359375,-0.669861501058936,-0.23084347632825372,0.004217325434088707
1772697874551342300,5.64234228515625,-0.7050941424816847,-0.23970658174157142,0.05176408950686454
1772697874561391000,5.65239111328125,-0.7208057986155152,-0.2828492656365037,0.08265840946435928
1772697874571440000,5.662440185546875,-0.7353852358490228,-0.3126078595623374,0.15414076039791105
1772697874581488000,5.672488037109375,-0.7893558954894542,-0.3311278511151671,0.1697293746739626
1772697874591537200,5.682537109375,-0.8598036426782607,-0.2608110368296504,0.167863580802083
1772697874601586400,5.69258642578125,-0.9349585446447134,-0.2007876530215144,0.17291151184141634
1772697874611635200,5.70263525390625,-0.9416852225512266,-0.20625322495102882,0.09631459437310695
1772697874621684200,5.712684326171875,-1.0542360814541578,-0.10139993481338024,0.02855740144252777
1772697874631732200,5.722732177734375,-1.136444993585348,0.10202128158211707,-0.027733225578069686
1772697874641781200,5.73278125,-1.1913906357377766,0.24457740264832972,-0.1277910981327295
1772697874651830300,5.742830322265625,-1.1530679193452,0.32085663246959445,-0.26898411415219303
1772697874661878000,5.7528779296875,-1.0708481935590506,0.31738457244485613,-0.43716567486226554
1772697874671927300,5.76292724609375,-0.8990887743622064,0.2854775683134794,-0.6198790342718362
1772697874681976300,5.772976318359375,-0.6756035518422723,0.1864399787172675,-0.7574632121443748
1772697874692025000,5.783025146484375,-0.5944499939829111,0.019832535456120966,-0.9158096075385809
1772697874702073300,5.7930732421875,-0.5538000036865472,-0.11540303346365689,-0.9299749110132455
1772697874712122000,5.8031220703125,-0.5492962625265121,-0.19071283373087644,-1.0227923109203576
1772697874722171400,5.81317138671875,-0.6575052928328514,-0.253183902952075,-1.0012047484904527
1772697874732219100,5.82321923828125,-0.7937213972225785,-0.2961939003780484,-0.9737468327224253
1772697874742268400,5.833268310546875,-0.9277160261705517,-0.3485252683788538,-0.9363386008262634
1772697874752317200,5.843317138671875,-1.1006865747228265,-0.3928624227553606,-0.8358926057368516
1772697874762366200,5.8533662109375,-1.183935351295769,-0.41736470358818767,-0.7336275785267352
1772697874772414200,5.863414306640625,-1.2459019781261682,-0.500908955976367,-0.6655915686547755
1772697874782463200,5.873463134765625,-1.3017691190376877,-0.604996814699471,-0.5925017825245857
1772697874792512300,5.88351220703125,-1.3129869708836077,-0.694716540852189,-0.5523480513125658
1772697874802560300,5.893560302734375,-1.4045371273338794,-0.7958031719326972,-0.5010194306135177
1772697874812609300,5.903609375,-1.4225316337078808,-0.8691162454247474,-0.4867430679798126
1772697874822658300,5.913658203125,-1.406497613751888,-0.9255664469212294,-0.4648848719149828
1772697874832707000,5.92370703125,-1.3442045314460993,-1.0204948476329445,-0.5230196654975414
1772697874842755300,5.93375537109375,-1.357038294056058,-1.1312111845850943,-0.6054138710677623
1772697874852804000,5.94380419921875,-1.3139157761663198,-1.1607996826410294,-0.5946452242940664
1772697874862853400,5.953853271484375,-1.1470704324960708,-1.1778545700773595,-0.3976747914731502
1772697874872902100,5.963902099609375,-0.9507540796697139,-1.152032731078565,0.1845160249173641
1772697874882950400,5.973950439453125,-0.8086421952396631,-0.8315396712243557,1.3270751174688338
1772697874892999200,5.983999267578125,-0.9839484932631254,-0.04362666801959276,2.4086446115285156
1772697874903048200,5.994048095703125,-0.8824187945902348,0.551980094783008,2.8435230522364376
1772697874913096200,6.00409619140625,-0.4341887048780918,0.7166641687661409,3.0065093823909756
1772697874923145200,6.014145263671875,0.19578443790674208,0.4548626595944166,2.676044671359658
1772697874933194200,6.0241943359375,0.6011076983064413,0.28926439337581394,2.3370418490856886
1772697874943243300,6.0342431640625,0.8420961365520954,0.34533553242683407,2.0268927808523176
1772697874953291300,6.044291259765625,1.1969038462013006,0.49818888336271044,1.3915344378978014
1772697874963340300,6.05434033203125,1.432757259646058,0.5986182195782661,0.8915683157294988
1772697874973389000,6.06438916015625,1.6645388936072587,0.5198407432004809,0.6782260093003512
1772697874983437300,6.074437255859375,2.0566157189428806,0.05195113651156425,0.47497255068719385
1772697874993486300,6.084486328125,2.101184343987703,-0.582290185111761,0.33460546409785746
1772697875003535600,6.09453564453125,2.0601745804682374,-0.7714984594985842,0.03499707910120487
1772697875013584400,6.10458447265625,2.1466715451821683,-0.6867512610614299,-0.24887714566886424
1772697875023632600,6.114632568359375,2.066374896413088,-0.5806070543304085,-0.5145154565244913
1772697875033681400,6.124681396484375,1.8063503337860107,-0.5723311011552811,-0.7151543487250804
1772697875043730400,6.13473046875,1.4419678633227944,-0.47053924441486594,-0.7258446695655584
1772697875053778400,6.1447783203125,1.0122419830724596,-0.2616337513893843,-0.5830804587066173
1772697875063827500,6.154827392578125,0.5745546224236489,-0.04849485857784748,-0.4971569099664688
1772697875073876500,6.16487646484375,0.10379209064692259,0.20650515388548374,-0.4818436055004596
1772697875083925500,6.174925537109375,-0.34300475139170883,0.487751368239522,-0.3720265554755926
1772697875093973500,6.184973388671875,-0.5799690486878156,0.6103712012141943,-0.2092728650331497
1772697875104022500,6.1950224609375,-0.6056394965171814,0.5321469748049974,-0.10174655629396438
1772697875114071300,6.2050712890625,-0.6494239854469895,0.42969051667600866,0.02026595843732357
1772697875124119600,6.21511962890625,-0.4961053550869226,0.3114601508319378,0.08954933802187443
1772697875134168300,6.225168212890625,-0.3385509868532419,0.1551616278782487,0.03690788115859032
1772697875144217600,6.235217529296875,-0.24263562093079089,-0.0547287845313549,0.06256254689693451
1772697875154266400,6.245266357421875,-0.17808745317459104,-0.3138698423221707,0.17317688477933404
1772697875164314600,6.255314697265625,-0.2534609663277864,-0.33088907392323014,0.16796996378600595
1772697875174363400,6.26536328125,-0.2712731018722057,-0.10807079087942838,0.18976152435541152
1772697875184412400,6.275412353515625,-0.18785685977786779,0.14496288994699716,0.26662206119596954
1772697875194460400,6.28546044921875,0.019694003768265245,0.22191461220234632,0.3178431298673153
1772697875204509400,6.295509521484375,0.32558979847133157,0.12284867329448461,0.3352390858262777
1772697875214558500,6.305558349609375,0.7137570491477847,0.08514438106119632,0.30400165151953695
1772697875224607500,6.315607421875,1.083119061589241,0.18796616537123917,0.2345575284153223
1772697875234655500,6.325655517578125,1.2504597875609993,0.19004852460324764,0.17619710938334465
1772697875244704500,6.33570458984375,1.3597498911023138,0.16422931595295667,0.09968670115470886
1772697875254753500,6.34575341796875,1.4311077388733624,0.23649697204530237,0.04808510873317718
1772697875264801500,6.355801513671875,1.3476245690226554,0.30005028354525565,0.06815759042501449
1772697875274850300,6.365850341796875,1.0461945215567945,0.3292234787985682,0.17861761452853678
1772697875284899600,6.375899658203125,0.7505196766167879,0.55903556625247,0.15450667110085486
1772697875294948600,6.385948486328125,0.443037781766057,0.7978384771525859,0.2295592817366123
1772697875304996600,6.39599658203125,0.2015700355708599,0.8144029507234692,0.34933249310851094
1772697875315045400,6.40604541015625,0.0601490560144186,0.8476245445847511,0.35478725138306616
1772697875325094400,6.416094482421875,-0.006248539000749588,0.8993108926802873,0.32985271661281584
1772697875335143700,6.426143798828125,-0.07633943557590246,0.829325210045278,0.3825584708839655
1772697875345191400,6.43619140625,-0.027251287280023097,0.6261749195456504,0.2180442005097866
1772697875355240700,6.44624072265625,0.002353285127878189,0.5541837423071265,0.1888122608065605
1772697875365289500,6.45628955078125,0.02988835778534412,0.4733054942578077,0.17924597555994987
1772697875375337500,6.46633740234375,0.02109773308634758,0.4423790255963802,-0.02042787100076675
1772697875385386500,6.476386474609375,0.04135843082666397,0.4361474377304315,-0.13377134158611298
1772697875395435500,6.486435546875,0.06810586023777723,0.39578181733340023,-0.2069511440873146
1772697875405484500,6.496484619140625,-0.011225742891430855,0.37473610669523477,-0.2648725871801376
1772697875415532500,6.506532470703125,0.00033610008656978605,0.37705636633634565,-0.34464871920645235
1772697875425581600,6.51658154296875,0.1743564499527216,0.20416209789067505,-0.3856494226366281
1772697875435630600,6.526630615234375,0.2418985388278961,0.10419541075080632,-0.36472120089828963
1772697875445678600,6.5366787109375,0.2651864754348993,0.30878800901323555,-0.28496143548488617
1772697875455727600,6.5467275390625,0.4585650212436914,0.3710673550546169,-0.1278542264968157
1772697875465776400,6.5567763671875,0.42211598976850506,0.29914982757419345,0.07115092702209949
1772697875475825700,6.56682568359375,0.24891630863547323,0.11291472377926111,-0.034756256082653994
1772697875485873400,6.576873291015625,0.317541516572237,0.08370178103744984,-0.2935936547517776
1772697875495922700,6.586922607421875,0.44141281091272827,0.09981178883910179,-0.5555097302138805
1772697875505971500,6.596971435546875,0.4690232868939638,0.17735913890004157,-0.6935486661165953
1772697875516019500,6.60701953125,0.4650923771858215,0.30777620162218805,-0.6112491530925035
1772697875526068500,6.617068359375,0.3989753526777029,0.5065656665638089,-0.5156038362830877
1772697875536117500,6.627117431640625,0.2971709287166595,0.6636234834522009,-0.378417133295536
1772697875546166500,6.63716650390625,0.45089492500722406,0.711609807986021,-0.304960267418623
1772697875556214500,6.647214599609375,0.477560813614726,0.7669576011985539,-0.3290519216239452
1772697875566263600,6.657263671875,0.43040597146898507,0.9372057390496135,-0.3484188853949308
1772697875576312600,6.6673125,0.39719139187037944,1.040132445038855,-0.3533224395275116
1772697875586361300,6.677361328125,0.4041203143507242,1.0679445810720325,-0.39998949815630913
1772697875596409600,6.68740966796875,0.23043927944153547,0.9124731565922498,-0.20879706421494482
1772697875606458400,6.697458251953125,0.21226123319417237,0.6846896523565054,-0.034604280391335486
1772697875616507600,6.707507568359375,0.08639525790512562,0.4111299008518457,-0.07111410214304924
1772697875626555400,6.717555419921875,0.06661269907057285,0.24659400316774843,-0.3199164290100336
1772697875636604700,6.727604736328125,-0.08741291051506996,0.15613368778079748,-0.6622042643040418
1772697875646653400,6.7376533203125,-0.2761629197403788,0.16515899801850317,-0.8792670525610446
1772697875656702500,6.747702392578125,-0.49729368808865543,0.1760483485624194,-0.9424778342336416
1772697875666750500,6.75775048828125,-0.7040934410065413,0.2720133988454938,-1.0810539457529782
1772697875676799500,6.767799560546875,-1.0493734438538551,0.2730652459859848,-1.011198903760314
1772697875686848500,6.7778486328125,-1.0975164202541112,-0.02793137849867344,-0.8799030123770236
1772697875696896500,6.787896484375,-0.9495675002336501,-0.310792042312026,-0.5620686503380536
1772697875706945500,6.797945556640625,-0.7711831099390983,-0.41103287021815776,-0.1632674851834774
1772697875716994600,6.80799462890625,-0.6455985819399357,-0.4480164469614625,-0.21550854455232618
1772697875727043300,6.818043212890625,-0.7516045492440462,-0.39214550665765996,-0.4347989457309246
1772697875737091600,6.828091552734375,-0.9189946673154831,-0.29948271279037,-0.5761971289336681
1772697875747140400,6.838140380859375,-1.0458601750358938,-0.2389896656438708,-0.5918582239240407
1772697875757189600,6.848189697265625,-1.1458233550444246,-0.22815935181081293,-0.6002963819235563
1772697875767237400,6.8582373046875,-1.2288584888666867,-0.12987813353985547,-0.6619289544939995
1772697875777286700,6.86828662109375,-1.2301546661570668,-0.0663145929068327,-0.7584884635388851
1772697875787335400,6.87833544921875,-1.2206442027509212,-0.1286860011458397,-0.8336363512426614
1772697875797384400,6.888384521484375,-1.178446983012557,-0.17573212222009896,-0.8313999704927205
1772697875807432400,6.898432373046875,-1.1037257962882518,-0.12957096728682518,-0.7200923896491527
1772697875817481500,6.9084814453125,-0.9272019391685724,-0.3922802389532327,-0.7619657842606306
1772697875827530500,6.918530517578125,0.032391865038871766,-0.22311258981525897,-0.40195173813998697
1772697875837578500,6.92857861328125,-1.4943553454250096,-0.17164894455969332,0.22812778762876987
1772697875847627500,6.93862744140625,-1.7153788540065287,-0.44654052919000387,0.047564299729466436
1772697875857676500,6.948676513671875,-1.674837000259757,-0.041078737102448935,-0.6666951459825039
1772697875867725300,6.958725341796875,-1.4941992780804634,0.265241128231585,-1.0943190855175255
1772697875877773600,6.968773681640625,-1.406259128820896,0.17186521765887736,-1.065972111955285
1772697875887822300,6.978822265625,-1.5136895759701727,0.46163346890360113,-0.5723018750607967
1772697875897871600,6.98887158203125,-1.5687877783358095,0.875450416882336,0.37557401882410046
1772697875907920400,6.99892041015625,-1.3162591244220734,1.0752513969540596,1.3270973293006418
