time,seconds_elapsed,z,y,x
1772697868969283000,0.060282958984375,-0.5644683837890625,0.469329833984375,0.6756591796875
1772697868979332000,0.07033203125,-0.5659332275390625,0.467041015625,0.67254638671875
1772697868989382000,0.0803818359375,-0.5745086669921875,0.465972900390625,0.66632080078125
1772697868999429600,0.0904296875,-0.584869384765625,0.465362548828125,0.655303955078125
1772697869009479000,0.10047900390625,-0.595001220703125,0.465545654296875,0.647216796875
1772697869019527700,0.110527587890625,-0.60498046875,0.46673583984375,0.6468963623046875
1772697869029576700,0.12057666015625,-0.6028594970703125,0.4696044921875,0.6561431884765625
1772697869039624700,0.130624755859375,-0.593231201171875,0.4703369140625,0.669586181640625
1772697869049673700,0.140673828125,-0.5812530517578125,0.471435546875,0.6757965087890625
1772697869059722800,0.15072265625,-0.57537841796875,0.4721527099609375,0.6717987060546875
1772697869069770800,0.160770751953125,-0.586395263671875,0.4747314453125,0.6647491455078125
1772697869079819800,0.17081982421875,-0.600982666015625,0.4768218994140625,0.6572723388671875
1772697869089868800,0.180868896484375,-0.60321044921875,0.4810028076171875,0.6437225341796875
1772697869099916800,0.190916748046875,-0.597625732421875,0.488372802734375,0.6355133056640625
1772697869109965800,0.2009658203125,-0.600738525390625,0.4874267578125,0.6324310302734375
1772697869120014600,0.2110146484375,-0.605194091796875,0.481842041015625,0.6328125
1772697869130064000,0.22106396484375,-0.6074066162109375,0.478546142578125,0.6287841796875
1772697869140111600,0.231111572265625,-0.6080169677734375,0.478363037109375,0.62725830078125
1772697869150161000,0.241160888671875,-0.6056671142578125,0.47625732421875,0.6342926025390625
1772697869160209700,0.251209716796875,-0.6069183349609375,0.4797515869140625,0.639434814453125
1772697869170258000,0.2612578125,-0.6012725830078125,0.49072265625,0.6381378173828125
1772697869180306700,0.271306640625,-0.5968017578125,0.4964141845703125,0.6355743408203125
1772697869190355700,0.281355712890625,-0.6070404052734375,0.49224853515625,0.62677001953125
1772697869200404700,0.29140478515625,-0.615020751953125,0.4927215576171875,0.6138153076171875
1772697869210452700,0.30145263671875,-0.6274871826171875,0.497406005859375,0.596038818359375
1772697869220501800,0.311501708984375,-0.64556884765625,0.4981842041015625,0.5869293212890625
1772697869230550800,0.32155078125,-0.6490020751953125,0.492462158203125,0.59759521484375
1772697869240598800,0.331598876953125,-0.63385009765625,0.483306884765625,0.62652587890625
1772697869250647800,0.341647705078125,-0.626251220703125,0.485137939453125,0.645233154296875
1772697869260696600,0.351696533203125,-0.61944580078125,0.4939727783203125,0.652984619140625
1772697869270745900,0.361745849609375,-0.62078857421875,0.500701904296875,0.6557159423828125
1772697869280793600,0.371793701171875,-0.615631103515625,0.496490478515625,0.6656494140625
1772697869290843000,0.3818427734375,-0.6077117919921875,0.488494873046875,0.6845550537109375
1772697869300891600,0.3918916015625,-0.602874755859375,0.4902801513671875,0.6923370361328125
1772697869310940000,0.40193994140625,-0.60302734375,0.4988250732421875,0.7013397216796875
1772697869320988700,0.41198876953125,-0.6055908203125,0.49957275390625,0.7097015380859375
1772697869331037700,0.42203759765625,-0.6100921630859375,0.4984588623046875,0.7100372314453125
1772697869341085700,0.432085693359375,-0.608184814453125,0.496246337890625,0.7025146484375
1772697869351134700,0.442134765625,-0.5949859619140625,0.4949188232421875,0.69683837890625
1772697869361183700,0.452183837890625,-0.57928466796875,0.4929656982421875,0.69903564453125
1772697869371232800,0.462232666015625,-0.567138671875,0.49041748046875,0.7028350830078125
1772697869381280800,0.47228076171875,-0.56158447265625,0.492095947265625,0.704833984375
1772697869391329800,0.482329833984375,-0.55853271484375,0.488861083984375,0.7035675048828125
1772697869401378600,0.492378662109375,-0.5543060302734375,0.4808807373046875,0.701263427734375
1772697869411426800,0.5024267578125,-0.54669189453125,0.4814300537109375,0.6990203857421875
1772697869421475600,0.5124755859375,-0.5354766845703125,0.4785003662109375,0.6960601806640625
1772697869431524900,0.52252490234375,-0.52044677734375,0.48126220703125,0.6896820068359375
1772697869441573600,0.53257373046875,-0.504791259765625,0.4810638427734375,0.6911468505859375
1772697869451622000,0.542621826171875,-0.48822021484375,0.4725189208984375,0.680572509765625
1772697869461670700,0.552670654296875,-0.4736328125,0.462738037109375,0.6724700927734375
1772697869471719700,0.5627197265625,-0.4656829833984375,0.4506378173828125,0.6684112548828125
1772697869481767700,0.572767578125,-0.4554290771484375,0.4370880126953125,0.658294677734375
1772697869491816700,0.582816650390625,-0.45672607421875,0.4238739013671875,0.6483001708984375
1772697869501865700,0.59286572265625,-0.4574737548828125,0.4080657958984375,0.646270751953125
1772697869511914800,0.602914794921875,-0.461700439453125,0.39349365234375,0.65191650390625
1772697869521962800,0.612962646484375,-0.4662017822265625,0.373931884765625,0.6552581787109375
1772697869532011800,0.62301171875,-0.49005126953125,0.36370849609375,0.6630859375
1772697869542060500,0.633060546875,-0.51263427734375,0.366455078125,0.6731719970703125
1772697869552108800,0.64310888671875,-0.514251708984375,0.3688507080078125,0.6969146728515625
1772697869562157600,0.653157470703125,-0.5265960693359375,0.3721466064453125,0.7216796875
1772697869572206800,0.663206787109375,-0.5420074462890625,0.386138916015625,0.7450714111328125
1772697869582254600,0.673254638671875,-0.559417724609375,0.3914947509765625,0.7706756591796875
1772697869592303900,0.683303955078125,-0.59527587890625,0.392242431640625,0.7880859375
1772697869602352600,0.6933525390625,-0.630218505859375,0.406951904296875,0.804718017578125
1772697869612401700,0.703401611328125,-0.6489715576171875,0.3993682861328125,0.8219451904296875
1772697869622449700,0.71344970703125,-0.6645050048828125,0.404052734375,0.8410491943359375
1772697869632498700,0.723498779296875,-0.674774169921875,0.3990325927734375,0.854156494140625
1772697869642547700,0.733547607421875,-0.6676788330078125,0.395263671875,0.8414154052734375
1772697869652595700,0.743595703125,-0.656951904296875,0.3773345947265625,0.822021484375
1772697869662644700,0.753644775390625,-0.6458892822265625,0.3651275634765625,0.806365966796875
1772697869672693800,0.76369384765625,-0.6382293701171875,0.355804443359375,0.796966552734375
1772697869682742800,0.77374267578125,-0.620849609375,0.3493804931640625,0.7786407470703125
1772697869692790800,0.783790771484375,-0.6057281494140625,0.3404998779296875,0.7532196044921875
1772697869702839600,0.793839599609375,-0.578826904296875,0.3370208740234375,0.73040771484375
1772697869712888800,0.803888916015625,-0.54949951171875,0.354400634765625,0.7008514404296875
1772697869722936600,0.8139365234375,-0.528106689453125,0.353851318359375,0.697601318359375
1772697869732985900,0.82398583984375,-0.5027618408203125,0.3436126708984375,0.69500732421875
1772697869743035000,0.834034912109375,-0.4816436767578125,0.357818603515625,0.6926422119140625
1772697869753083600,0.844083740234375,-0.4725799560546875,0.36029052734375,0.6914215087890625
1772697869763131600,0.854131591796875,-0.474578857421875,0.365692138671875,0.6837005615234375
1772697869773180700,0.8641806640625,-0.4808807373046875,0.37847900390625,0.6690521240234375
1772697869783230000,0.87422998046875,-0.486907958984375,0.3872222900390625,0.6688232421875
1772697869793277700,0.884277587890625,-0.4922027587890625,0.39117431640625,0.673736572265625
1772697869803326700,0.89432666015625,-0.497833251953125,0.3844757080078125,0.6820831298828125
1772697869813375700,0.904375732421875,-0.508636474609375,0.36785888671875,0.7043609619140625
1772697869823424800,0.9144248046875,-0.51416015625,0.35992431640625,0.73370361328125
1772697869833472800,0.92447265625,-0.512542724609375,0.349945068359375,0.7535400390625
1772697869843521800,0.934521728515625,-0.517913818359375,0.3375244140625,0.7598876953125
1772697869853570800,0.94457080078125,-0.5247802734375,0.3350830078125,0.7499237060546875
1772697869863618600,0.95461865234375,-0.5379791259765625,0.330078125,0.736053466796875
1772697869873667800,0.964667724609375,-0.5416107177734375,0.3312225341796875,0.7294464111328125
1772697869883716900,0.974716796875,-0.551300048828125,0.339080810546875,0.7347412109375
1772697869893764600,0.9847646484375,-0.5559234619140625,0.3425750732421875,0.741851806640625
1772697869903814000,0.99481396484375,-0.550201416015625,0.3386993408203125,0.762847900390625
1772697869913862700,1.004862548828125,-0.54022216796875,0.34332275390625,0.78271484375
1772697869923912000,1.014911865234375,-0.5291748046875,0.3423614501953125,0.79473876953125
1772697869933959700,1.024959716796875,-0.537109375,0.34197998046875,0.7856292724609375
1772697869944008700,1.0350087890625,-0.5619964599609375,0.3448028564453125,0.774322509765625
1772697869954057700,1.0450576171875,-0.5885162353515625,0.3519287109375,0.7588958740234375
1772697869964105700,1.055105712890625,-0.60845947265625,0.35400390625,0.7474212646484375
1772697869974154800,1.06515478515625,-0.6267242431640625,0.355133056640625,0.7433319091796875
1772697869984203800,1.075203857421875,-0.6388092041015625,0.3627777099609375,0.745941162109375
1772697869994252800,1.085252685546875,-0.63604736328125,0.365966796875,0.752593994140625
1772697870004300800,1.09530078125,-0.628814697265625,0.366424560546875,0.7637939453125
1772697870014349800,1.105349853515625,-0.611419677734375,0.372894287109375,0.760894775390625
1772697870024398800,1.11539892578125,-0.6098480224609375,0.39007568359375,0.74005126953125
1772697870034446600,1.125446533203125,-0.6249847412109375,0.4030914306640625,0.72003173828125
1772697870044496000,1.135495849609375,-0.6241302490234375,0.40972900390625,0.706451416015625
1772697870054544600,1.145544677734375,-0.6126861572265625,0.4094696044921875,0.70068359375
1772697870064593700,1.15559375,-0.5952606201171875,0.4034881591796875,0.6982421875
1772697870074641700,1.1656416015625,-0.5822296142578125,0.406280517578125,0.701019287109375
1772697870084690700,1.175690673828125,-0.5824737548828125,0.3945770263671875,0.7019500732421875
1772697870094739700,1.18573974609375,-0.5794830322265625,0.383880615234375,0.697967529296875
1772697870104787700,1.19578759765625,-0.5801544189453125,0.37652587890625,0.696441650390625
1772697870114836700,1.205836669921875,-0.586639404296875,0.3665771484375,0.6985321044921875
1772697870124885800,1.2158857421875,-0.5899505615234375,0.3576812744140625,0.7069854736328125
1772697870134934800,1.225934814453125,-0.59222412109375,0.3507232666015625,0.7177276611328125
1772697870144982800,1.235982666015625,-0.5969696044921875,0.34844970703125,0.7227325439453125
1772697870155031800,1.24603173828125,-0.6012115478515625,0.3413848876953125,0.725372314453125
1772697870165080800,1.256080810546875,-0.600128173828125,0.3342742919921875,0.7273712158203125
1772697870175128600,1.266128662109375,-0.59857177734375,0.327178955078125,0.72796630859375
1772697870185177900,1.276177734375,-0.5949554443359375,0.318756103515625,0.7265472412109375
1772697870195226600,1.2862265625,-0.5934295654296875,0.309814453125,0.735748291015625
1772697870205275600,1.296275634765625,-0.591583251953125,0.3009490966796875,0.7607269287109375
1772697870215323600,1.30632373046875,-0.60357666015625,0.3075408935546875,0.811981201171875
1772697870225372700,1.31637255859375,-0.6287689208984375,0.3292388916015625,0.87158203125
1772697870235421700,1.326421630859375,-0.6384429931640625,0.3499298095703125,0.9274749755859375
1772697870245469700,1.3364697265625,-0.607635498046875,0.352996826171875,0.9717864990234375
1772697870255518700,1.346518798828125,-0.5512237548828125,0.3563079833984375,0.99298095703125
1772697870265567700,1.356567626953125,-0.506317138671875,0.373016357421875,0.9975128173828125
1772697870275615700,1.36661572265625,-0.48394775390625,0.3972930908203125,0.9741058349609375
1772697870285664800,1.376664794921875,-0.4857940673828125,0.413482666015625,0.91302490234375
1772697870295713500,1.386713623046875,-0.49310302734375,0.4243011474609375,0.9104156494140625
1772697870305762800,1.3967626953125,-0.4881134033203125,0.4390106201171875,0.9027252197265625
1772697870315810600,1.406810546875,-0.4770355224609375,0.4358978271484375,0.8703460693359375
1772697870325859800,1.41685986328125,-0.447601318359375,0.4142608642578125,0.84326171875
1772697870335908600,1.42690869140625,-0.4273529052734375,0.395263671875,0.8088226318359375
1772697870345956900,1.436956787109375,-0.4186553955078125,0.376556396484375,0.7855072021484375
1772697870356005600,1.447005615234375,-0.4169464111328125,0.3575592041015625,0.7688446044921875
1772697870366054700,1.4570546875,-0.4243316650390625,0.355621337890625,0.7646331787109375
1772697870376103700,1.467103759765625,-0.445159912109375,0.369873046875,0.7669677734375
1772697870386151700,1.477151611328125,-0.4709625244140625,0.38763427734375,0.7641448974609375
1772697870396200700,1.48720068359375,-0.4934234619140625,0.4153594970703125,0.7539520263671875
1772697870406249700,1.497249755859375,-0.5004425048828125,0.439788818359375,0.7552032470703125
1772697870416297700,1.507297607421875,-0.4929656982421875,0.454010009765625,0.753936767578125
1772697870426346800,1.5173466796875,-0.478057861328125,0.4638671875,0.7535400390625
1772697870436395500,1.5273955078125,-0.4675750732421875,0.4712066650390625,0.7513275146484375
1772697870446444800,1.53744482421875,-0.46343994140625,0.4740447998046875,0.749847412109375
1772697870456492500,1.547492431640625,-0.452972412109375,0.4665679931640625,0.7444915771484375
1772697870466541800,1.557541748046875,-0.4435882568359375,0.4629364013671875,0.7431182861328125
1772697870476590600,1.567590576171875,-0.44580078125,0.4631805419921875,0.738861083984375
1772697870486638800,1.577638916015625,-0.4433441162109375,0.466705322265625,0.7325286865234375
1772697870496687600,1.5876875,-0.4296875,0.4606781005859375,0.7294921875
1772697870506736600,1.597736572265625,-0.4105682373046875,0.4539794921875,0.720855712890625
1772697870516785700,1.60778564453125,-0.39605712890625,0.4505767822265625,0.716339111328125
1772697870526833700,1.617833740234375,-0.381317138671875,0.443817138671875,0.708343505859375
1772697870536882700,1.627882568359375,-0.3751220703125,0.4488067626953125,0.6960601806640625
1772697870546931700,1.637931640625,-0.3733062744140625,0.459381103515625,0.6863555908203125
1772697870556979700,1.647979736328125,-0.3798370361328125,0.466217041015625,0.6889495849609375
1772697870567028700,1.65802880859375,-0.3860321044921875,0.47662353515625,0.69317626953125
1772697870577077500,1.668077392578125,-0.3919677734375,0.48760986328125,0.696685791015625
1772697870587126800,1.678126708984375,-0.4097747802734375,0.504241943359375,0.713623046875
1772697870597174500,1.688174560546875,-0.435333251953125,0.518951416015625,0.724334716796875
1772697870607223800,1.698223876953125,-0.4634552001953125,0.5238494873046875,0.7285919189453125
1772697870617272600,1.7082724609375,-0.492828369140625,0.5386962890625,0.73455810546875
1772697870627320800,1.71832080078125,-0.5199737548828125,0.5464324951171875,0.7332763671875
1772697870637369600,1.72836962890625,-0.5485076904296875,0.5553741455078125,0.7270965576171875
1772697870647418600,1.738418701171875,-0.5836639404296875,0.558807373046875,0.7327728271484375
1772697870657466600,1.748466552734375,-0.602447509765625,0.5557098388671875,0.7412872314453125
1772697870667515600,1.758515625,-0.62109375,0.5498504638671875,0.755767822265625
1772697870677564700,1.768564697265625,-0.625030517578125,0.549041748046875,0.7723846435546875
1772697870687613700,1.77861376953125,-0.6196441650390625,0.542755126953125,0.7803802490234375
1772697870697661700,1.78866162109375,-0.601287841796875,0.5505828857421875,0.7729339599609375
1772697870707710700,1.798710693359375,-0.5697479248046875,0.563690185546875,0.757232666015625
1772697870717759500,1.808759521484375,-0.53271484375,0.5588226318359375,0.738616943359375
1772697870727807700,1.818807861328125,-0.505645751953125,0.5464630126953125,0.7209320068359375
1772697870737856500,1.8288564453125,-0.4764251708984375,0.5380706787109375,0.7025909423828125
1772697870747905800,1.83890576171875,-0.450958251953125,0.5347442626953125,0.691925048828125
1772697870757954800,1.848954833984375,-0.4207305908203125,0.5289306640625,0.6806488037109375
1772697870768002800,1.8590029296875,-0.4031982421875,0.51995849609375,0.6736602783203125
1772697870778051600,1.869051513671875,-0.3940582275390625,0.5133056640625,0.67169189453125
1772697870788100600,1.8791005859375,-0.3852996826171875,0.51092529296875,0.66925048828125
1772697870798148600,1.889148681640625,-0.3824310302734375,0.514190673828125,0.6666107177734375
1772697870808197600,1.89919775390625,-0.3828582763671875,0.5199127197265625,0.65814208984375
1772697870818247000,1.909246826171875,-0.3928070068359375,0.5231170654296875,0.6501617431640625
1772697870828295700,1.919295654296875,-0.407257080078125,0.5232086181640625,0.644256591796875
1772697870838343700,1.92934375,-0.4201812744140625,0.5247344970703125,0.6473541259765625
1772697870848392700,1.939392822265625,-0.432403564453125,0.53338623046875,0.658203125
1772697870858441700,1.949441650390625,-0.4557037353515625,0.528656005859375,0.6668548583984375
1772697870868489700,1.95948974609375,-0.468841552734375,0.513580322265625,0.6687164306640625
1772697870878538500,1.96953857421875,-0.488861083984375,0.5021209716796875,0.6717529296875
1772697870888587800,1.979587890625,-0.5157928466796875,0.4932403564453125,0.6799774169921875
1772697870898636800,1.98963671875,-0.534698486328125,0.477813720703125,0.683746337890625
1772697870908684800,1.999684814453125,-0.557281494140625,0.46075439453125,0.6882171630859375
1772697870918733800,2.00973388671875,-0.58404541015625,0.4444732666015625,0.686614990234375
1772697870928782600,2.019782470703125,-0.61053466796875,0.434844970703125,0.6795196533203125
1772697870938830600,2.02983056640625,-0.6360321044921875,0.4211883544921875,0.6762542724609375
1772697870948879600,2.039879638671875,-0.6503448486328125,0.4117889404296875,0.675994873046875
1772697870958929000,2.049928955078125,-0.6555938720703125,0.4121551513671875,0.673095703125
1772697870968977700,2.059977783203125,-0.6432037353515625,0.4121551513671875,0.6778564453125
1772697870979026000,2.07002587890625,-0.6320037841796875,0.41070556640625,0.6799774169921875
1772697870989074400,2.080074462890625,-0.624481201171875,0.40704345703125,0.6797637939453125
1772697870999123500,2.09012353515625,-0.6176910400390625,0.4025726318359375,0.6797943115234375
1772697871009171500,2.10017138671875,-0.613189697265625,0.40411376953125,0.665130615234375
1772697871019220500,2.110220458984375,-0.6132049560546875,0.4036102294921875,0.655914306640625
1772697871029269500,2.12026953125,-0.6142730712890625,0.4082183837890625,0.6480712890625
1772697871039317200,2.130317138671875,-0.6112060546875,0.41192626953125,0.64044189453125
1772697871049366500,2.140366455078125,-0.604522705078125,0.417938232421875,0.62493896484375
1772697871059415600,2.15041552734375,-0.598846435546875,0.4222564697265625,0.6220703125
1772697871069464300,2.16046435546875,-0.5971527099609375,0.42559814453125,0.6210479736328125
1772697871079512300,2.17051220703125,-0.592498779296875,0.431304931640625,0.627777099609375
1772697871089561300,2.180561279296875,-0.5917816162109375,0.440643310546875,0.63043212890625
1772697871099610600,2.190610595703125,-0.589202880859375,0.4515228271484375,0.6337432861328125
1772697871109658400,2.200658447265625,-0.5928497314453125,0.4490814208984375,0.6451263427734375
1772697871119707600,2.210707763671875,-0.594207763671875,0.454437255859375,0.64239501953125
1772697871129756400,2.22075634765625,-0.5970611572265625,0.462158203125,0.641265869140625
1772697871139805400,2.230805419921875,-0.59771728515625,0.4724578857421875,0.6417694091796875
1772697871149853400,2.240853515625,-0.60150146484375,0.4822998046875,0.641021728515625
1772697871159902500,2.25090234375,-0.6016998291015625,0.4867401123046875,0.645233154296875
1772697871169951500,2.260951416015625,-0.5971527099609375,0.49383544921875,0.6479034423828125
1772697871179999500,2.27099951171875,-0.591552734375,0.499481201171875,0.655670166015625
1772697871190048500,2.281048583984375,-0.5988311767578125,0.50469970703125,0.6648101806640625
1772697871200097500,2.29109765625,-0.5885009765625,0.5022735595703125,0.666748046875
1772697871210146300,2.301146240234375,-0.5911865234375,0.492401123046875,0.665374755859375
1772697871220194600,2.311194580078125,-0.599456787109375,0.484619140625,0.663543701171875
1772697871230243300,2.321243408203125,-0.6129150390625,0.4774169921875,0.662353515625
1772697871240292600,2.331292724609375,-0.63067626953125,0.4788055419921875,0.6625213623046875
1772697871250340400,2.34134033203125,-0.639251708984375,0.4670257568359375,0.654510498046875
1772697871260389600,2.3513896484375,-0.6439666748046875,0.4552001953125,0.649383544921875
1772697871270438400,2.3614384765625,-0.6406097412109375,0.4509124755859375,0.6495513916015625
1772697871280486700,2.371486572265625,-0.639312744140625,0.4450531005859375,0.6467742919921875
1772697871290535400,2.381535400390625,-0.637725830078125,0.4330596923828125,0.643768310546875
1772697871300584400,2.39158447265625,-0.6428070068359375,0.42449951171875,0.6358795166015625
1772697871310633500,2.401633544921875,-0.6520538330078125,0.4297637939453125,0.6397247314453125
1772697871320681500,2.411681396484375,-0.6562957763671875,0.4367828369140625,0.6396331787109375
1772697871330730500,2.42173046875,-0.672454833984375,0.4719085693359375,0.6751251220703125
1772697871340779500,2.431779541015625,-0.6952667236328125,0.5297088623046875,0.7619171142578125
1772697871350827500,2.44182763671875,-0.6925048828125,0.5625457763671875,0.83355712890625
1772697871360876500,2.45187646484375,-0.632049560546875,0.57855224609375,0.8304901123046875
1772697871370925300,2.46192529296875,-0.5669097900390625,0.6121368408203125,0.8233795166015625
1772697871380974600,2.471974609375,-0.5387420654296875,0.6357269287109375,0.82745361328125
1772697871391022300,2.482022216796875,-0.5219268798828125,0.6360015869140625,0.83282470703125
1772697871401071600,2.492071533203125,-0.4993896484375,0.6193084716796875,0.84466552734375
1772697871411120400,2.502120361328125,-0.460296630859375,0.5915679931640625,0.8554534912109375
1772697871421168600,2.512168701171875,-0.4427337646484375,0.562469482421875,0.8592071533203125
1772697871431217400,2.522217529296875,-0.4295196533203125,0.548492431640625,0.8394317626953125
1772697871441266400,2.532266357421875,-0.407257080078125,0.5487213134765625,0.8094329833984375
1772697871451315500,2.5423154296875,-0.384490966796875,0.5399322509765625,0.7658233642578125
1772697871461363500,2.552363525390625,-0.3513946533203125,0.5273895263671875,0.7241363525390625
1772697871471412500,2.56241259765625,-0.3435211181640625,0.5103607177734375,0.685546875
1772697871481461500,2.57246142578125,-0.34423828125,0.48040771484375,0.66021728515625
1772697871491509500,2.582509521484375,-0.35650634765625,0.454010009765625,0.6461334228515625
1772697871501558500,2.59255859375,-0.3726348876953125,0.42999267578125,0.6265716552734375
1772697871511607300,2.602607177734375,-0.3900299072265625,0.405975341796875,0.612396240234375
1772697871521656600,2.612656494140625,-0.4111175537109375,0.3828277587890625,0.6112213134765625
1772697871531704300,2.622704345703125,-0.4561920166015625,0.363311767578125,0.6370391845703125
1772697871541753600,2.632753662109375,-0.490966796875,0.359344482421875,0.68365478515625
1772697871551802400,2.64280224609375,-0.5124359130859375,0.3553466796875,0.7184600830078125
1772697871561850600,2.6528505859375,-0.54833984375,0.3485260009765625,0.7488861083984375
1772697871571899400,2.6628994140625,-0.5699920654296875,0.34710693359375,0.7676544189453125
1772697871581948400,2.672948486328125,-0.56378173828125,0.35687255859375,0.789825439453125
1772697871591997400,2.68299755859375,-0.5416259765625,0.371826171875,0.81976318359375
1772697871602045400,2.69304541015625,-0.5160675048828125,0.3932952880859375,0.8534088134765625
1772697871612094500,2.703094482421875,-0.482452392578125,0.412200927734375,0.872039794921875
1772697871622143500,2.7131435546875,-0.4569549560546875,0.42718505859375,0.89312744140625
1772697871632191500,2.72319140625,-0.434478759765625,0.43341064453125,0.902191162109375
1772697871642240500,2.733240478515625,-0.4143829345703125,0.43756103515625,0.89105224609375
1772697871652289300,2.743289306640625,-0.39178466796875,0.4463043212890625,0.881103515625
1772697871662338600,2.753338623046875,-0.376220703125,0.4356231689453125,0.8658599853515625
1772697871672386300,2.76338623046875,-0.3662261962890625,0.4054412841796875,0.8609771728515625
1772697871682435600,2.773435546875,-0.368011474609375,0.3869171142578125,0.8453216552734375
1772697871692484400,2.783484375,-0.37677001953125,0.3735198974609375,0.8349609375
1772697871702532600,2.79353271484375,-0.3897247314453125,0.357269287109375,0.8272247314453125
1772697871712581400,2.803581298828125,-0.3987884521484375,0.3458251953125,0.8252410888671875
1772697871722630400,2.81363037109375,-0.3977203369140625,0.33709716796875,0.8255767822265625
1772697871732679400,2.823679443359375,-0.393524169921875,0.31939697265625,0.819427490234375
1772697871742727400,2.8337275390625,-0.3863067626953125,0.3153228759765625,0.8220367431640625
1772697871752776400,2.8437763671875,-0.37847900390625,0.30389404296875,0.835052490234375
1772697871762825500,2.853825439453125,-0.37939453125,0.2998809814453125,0.844635009765625
1772697871772873500,2.86387353515625,-0.3954620361328125,0.3042449951171875,0.852020263671875
1772697871782922500,2.873922607421875,-0.41558837890625,0.3272705078125,0.855560302734375
1772697871792971300,2.88397119140625,-0.4376678466796875,0.33319091796875,0.8580169677734375
1772697871803019500,2.89401953125,-0.4491729736328125,0.3433074951171875,0.8524169921875
1772697871813068300,2.904068359375,-0.4522247314453125,0.3523712158203125,0.8584136962890625
1772697871823117600,2.91411767578125,-0.4541473388671875,0.3506622314453125,0.8536376953125
1772697871833166300,2.924166259765625,-0.452301025390625,0.35211181640625,0.844482421875
1772697871843214600,2.934214599609375,-0.4635162353515625,0.36090087890625,0.8337860107421875
1772697871853263400,2.944263427734375,-0.474395751953125,0.3654327392578125,0.8153076171875
1772697871863312400,2.9543125,-0.4857940673828125,0.3632049560546875,0.8027496337890625
1772697871873360400,2.9643603515625,-0.4977569580078125,0.361724853515625,0.78594970703125
1772697871883409400,2.974409423828125,-0.5071868896484375,0.352569580078125,0.7717437744140625
1772697871893458400,2.98445849609375,-0.5156707763671875,0.33905029296875,0.7604827880859375
1772697871903507500,2.994507568359375,-0.5134429931640625,0.326385498046875,0.7530517578125
1772697871913555500,3.004555419921875,-0.5162353515625,0.3248443603515625,0.744598388671875
1772697871923604500,3.0146044921875,-0.5126953125,0.3253173828125,0.7405242919921875
1772697871933653200,3.0246533203125,-0.50238037109375,0.322052001953125,0.7427215576171875
1772697871943701500,3.034701416015625,-0.496429443359375,0.317352294921875,0.7485504150390625
1772697871953750300,3.044750244140625,-0.4910736083984375,0.3164520263671875,0.755828857421875
1772697871963799600,3.054799560546875,-0.48736572265625,0.3173370361328125,0.7595977783203125
1772697871973848600,3.0648486328125,-0.4858551025390625,0.317352294921875,0.7671661376953125
1772697871983897000,3.07489697265625,-0.4780426025390625,0.31951904296875,0.775146484375
1772697871993946000,3.084946044921875,-0.473480224609375,0.3248138427734375,0.780670166015625
1772697872003995000,3.094994873046875,-0.4618377685546875,0.3337249755859375,0.7871856689453125
1772697872014043000,3.10504296875,-0.446563720703125,0.3329010009765625,0.7923126220703125
1772697872024092000,3.115091796875,-0.446533203125,0.3353118896484375,0.80889892578125
1772697872034141200,3.12514111328125,-0.4467926025390625,0.3408050537109375,0.8182830810546875
1772697872044190000,3.13518994140625,-0.45245361328125,0.3457183837890625,0.819122314453125
1772697872054238200,3.14523828125,-0.460479736328125,0.3461456298828125,0.8212890625
1772697872064287000,3.155286865234375,-0.472259521484375,0.349334716796875,0.827178955078125
1772697872074336000,3.1653359375,-0.4918212890625,0.344451904296875,0.8247833251953125
1772697872084384000,3.175384033203125,-0.509429931640625,0.335235595703125,0.8107147216796875
1772697872094433000,3.18543310546875,-0.5148773193359375,0.331298828125,0.8123779296875
1772697872104482000,3.19548193359375,-0.536376953125,0.328094482421875,0.8100738525390625
1772697872114530000,3.205530029296875,-0.556793212890625,0.323272705078125,0.8060150146484375
1772697872124579000,3.2155791015625,-0.5676727294921875,0.3169403076171875,0.80029296875
1772697872134628000,3.225628173828125,-0.580780029296875,0.30841064453125,0.7935943603515625
1772697872144676900,3.2356767578125,-0.588958740234375,0.3010406494140625,0.7862091064453125
1772697872154725000,3.24572509765625,-0.589019775390625,0.2930908203125,0.7757720947265625
1772697872164774000,3.25577392578125,-0.5990447998046875,0.2921905517578125,0.7650299072265625
1772697872174823200,3.2658232421875,-0.6043548583984375,0.295440673828125,0.7529144287109375
1772697872184872000,3.275871826171875,-0.6098175048828125,0.297027587890625,0.7370452880859375
1772697872194920000,3.285919921875,-0.608917236328125,0.296234130859375,0.7245330810546875
1772697872204969000,3.295968994140625,-0.607879638671875,0.2886810302734375,0.708648681640625
1772697872215018000,3.30601806640625,-0.602142333984375,0.28643798828125,0.70086669921875
1772697872225066000,3.31606591796875,-0.5939483642578125,0.2883453369140625,0.7004241943359375
1772697872235115000,3.326114990234375,-0.5860137939453125,0.2935943603515625,0.7050933837890625
1772697872245164000,3.3361640625,-0.5742340087890625,0.301910400390625,0.701202392578125
1772697872255212000,3.3462119140625,-0.5669403076171875,0.3066558837890625,0.7044219970703125
1772697872265261000,3.356260986328125,-0.5557403564453125,0.3166351318359375,0.702056884765625
1772697872275310000,3.36631005859375,-0.5498504638671875,0.320953369140625,0.707672119140625
1772697872285358800,3.37635888671875,-0.54876708984375,0.3203277587890625,0.7161102294921875
1772697872295407000,3.386406982421875,-0.5507049560546875,0.3279571533203125,0.7151031494140625
1772697872305455900,3.396455810546875,-0.5575408935546875,0.332855224609375,0.7183990478515625
1772697872315505200,3.406505126953125,-0.5697784423828125,0.3390655517578125,0.717010498046875
1772697872325553000,3.416552978515625,-0.5839691162109375,0.3504180908203125,0.721343994140625
1772697872335602000,3.426601806640625,-0.5905609130859375,0.357666015625,0.7257232666015625
1772697872345651000,3.43665087890625,-0.5921173095703125,0.3612060546875,0.732330322265625
1772697872355700000,3.446699951171875,-0.5865631103515625,0.3650054931640625,0.74395751953125
1772697872365748000,3.456748046875,-0.5864105224609375,0.36767578125,0.74725341796875
1772697872375797000,3.466796875,-0.5994415283203125,0.3666534423828125,0.748748779296875
1772697872385846000,3.476845947265625,-0.6028594970703125,0.364959716796875,0.748931884765625
1772697872395894000,3.48689404296875,-0.618194580078125,0.366912841796875,0.7443084716796875
1772697872405943000,3.496943115234375,-0.622650146484375,0.366851806640625,0.7415008544921875
1772697872415992000,3.506991943359375,-0.6203460693359375,0.3665924072265625,0.739227294921875
1772697872426040800,3.517040771484375,-0.63330078125,0.367034912109375,0.734649658203125
1772697872436089000,3.527089111328125,-0.6422576904296875,0.3709716796875,0.74169921875
1772697872446137900,3.537137939453125,-0.639373779296875,0.3725128173828125,0.74212646484375
1772697872456187100,3.547187255859375,-0.6475372314453125,0.371734619140625,0.749267578125
1772697872466235000,3.55723486328125,-0.6355438232421875,0.3617401123046875,0.74273681640625
1772697872476284000,3.567283935546875,-0.6351776123046875,0.35235595703125,0.7260894775390625
1772697872486333000,3.5773330078125,-0.6429443359375,0.346221923828125,0.7220611572265625
1772697872496382000,3.5873818359375,-0.6472320556640625,0.3407745361328125,0.7129669189453125
1772697872506430000,3.597429931640625,-0.6489410400390625,0.3347015380859375,0.72784423828125
1772697872516479000,3.60747900390625,-0.6591796875,0.33551025390625,0.7867889404296875
1772697872526528000,3.617528076171875,-0.670135498046875,0.3392333984375,0.83917236328125
1772697872536576000,3.627575927734375,-0.6375885009765625,0.353851318359375,0.8912506103515625
1772697872546625000,3.637625,-0.5988311767578125,0.36053466796875,0.9349517822265625
1772697872556674000,3.647674072265625,-0.545745849609375,0.361419677734375,0.9582061767578125
1772697872566722800,3.657722900390625,-0.5253753662109375,0.3643341064453125,1.00048828125
1772697872576771000,3.66777099609375,-0.521209716796875,0.387542724609375,1.0458831787109375
1772697872586819800,3.67781982421875,-0.4785919189453125,0.41937255859375,1.05303955078125
1772697872596868900,3.687868896484375,-0.429443359375,0.4215240478515625,0.9760589599609375
1772697872606916900,3.697916748046875,-0.4047393798828125,0.391845703125,0.9109649658203125
1772697872616966000,3.7079658203125,-0.3825836181640625,0.3646392822265625,0.8685302734375
1772697872627015000,3.718014892578125,-0.354278564453125,0.3442230224609375,0.827239990234375
1772697872637064000,3.72806396484375,-0.339447021484375,0.3250885009765625,0.781829833984375
1772697872647112000,3.73811181640625,-0.3364105224609375,0.3121337890625,0.73345947265625
1772697872657161000,3.748160888671875,-0.338836669921875,0.2820892333984375,0.7124176025390625
1772697872667210000,3.7582099609375,-0.3535919189453125,0.2528228759765625,0.71160888671875
1772697872677258000,3.768258056640625,-0.381561279296875,0.250701904296875,0.6846160888671875
1772697872687307000,3.77830712890625,-0.446746826171875,0.26397705078125,0.68798828125
1772697872697356000,3.78835595703125,-0.5423126220703125,0.3032684326171875,0.6963958740234375
1772697872707403800,3.79840380859375,-0.6399078369140625,0.34765625,0.7169189453125
1772697872717453000,3.808453125,-0.7000885009765625,0.3810882568359375,0.7350311279296875
1772697872727501800,3.818501708984375,-0.6808319091796875,0.3981475830078125,0.764129638671875
1772697872737550800,3.82855078125,-0.63153076171875,0.4200286865234375,0.80645751953125
1772697872747598800,3.838598876953125,-0.5749664306640625,0.4319915771484375,0.82025146484375
1772697872757648000,3.84864794921875,-0.508270263671875,0.4444122314453125,0.7996368408203125
1772697872767697000,3.85869677734375,-0.461822509765625,0.4693603515625,0.787017822265625
1772697872777746000,3.868745849609375,-0.4341583251953125,0.48876953125,0.7771759033203125
1772697872787794000,3.8787939453125,-0.39862060546875,0.510833740234375,0.7673492431640625
1772697872797843000,3.888843017578125,-0.3727569580078125,0.515106201171875,0.767669677734375
1772697872807892000,3.89889208984375,-0.358184814453125,0.502685546875,0.7674713134765625
1772697872817940000,3.90893994140625,-0.344451904296875,0.4843597412109375,0.759979248046875
1772697872827988700,3.91898876953125,-0.322296142578125,0.4514923095703125,0.7554779052734375
1772697872838038000,3.9290380859375,-0.3210296630859375,0.4300994873046875,0.7589263916015625
1772697872848085800,3.939085693359375,-0.3172760009765625,0.4191436767578125,0.7569122314453125
1772697872858135000,3.949135009765625,-0.3125762939453125,0.421234130859375,0.754180908203125
1772697872868184000,3.95918408203125,-0.3132476806640625,0.4290313720703125,0.7611236572265625
1772697872878232800,3.96923291015625,-0.3115081787109375,0.4332122802734375,0.773345947265625
1772697872888280800,3.97928076171875,-0.3303070068359375,0.459442138671875,0.771575927734375
1772697872898329900,3.989329833984375,-0.35736083984375,0.49383544921875,0.7841644287109375
1772697872908379100,3.999379150390625,-0.38525390625,0.5152130126953125,0.799285888671875
1772697872918427000,4.009427001953125,-0.410888671875,0.529754638671875,0.8141326904296875
1772697872928476000,4.019475830078125,-0.43853759765625,0.5473785400390625,0.827880859375
1772697872938525000,4.02952490234375,-0.456024169921875,0.565826416015625,0.830474853515625
1772697872948574000,4.039573974609375,-0.4716949462890625,0.5738067626953125,0.832122802734375
1772697872958622000,4.0496220703125,-0.4801025390625,0.578887939453125,0.806915283203125
1772697872968671000,4.0596708984375,-0.483367919921875,0.5780181884765625,0.7913360595703125
1772697872978720000,4.069719970703125,-0.49981689453125,0.551605224609375,0.768218994140625
1772697872988768000,4.07976806640625,-0.519775390625,0.52349853515625,0.7482452392578125
1772697872998817000,4.089817138671875,-0.538909912109375,0.506622314453125,0.742034912109375
1772697873008866000,4.099865966796875,-0.5417633056640625,0.491607666015625,0.7314300537109375
1772697873018914800,4.109914794921875,-0.5314178466796875,0.4771728515625,0.7198944091796875
1772697873028963000,4.119963134765625,-0.51324462890625,0.46923828125,0.7039337158203125
1772697873039011800,4.13001171875,-0.489410400390625,0.46044921875,0.695892333984375
1772697873049061000,4.14006103515625,-0.467529296875,0.457366943359375,0.68463134765625
1772697873059108900,4.15010888671875,-0.4472808837890625,0.468902587890625,0.6689453125
1772697873069158100,4.160158203125,-0.4270477294921875,0.484893798828125,0.659912109375
1772697873079207000,4.17020703125,-0.4136962890625,0.5031890869140625,0.6577301025390625
1772697873089256000,4.180255859375,-0.402191162109375,0.519256591796875,0.6589202880859375
1772697873099304000,4.190303955078125,-0.396514892578125,0.5306243896484375,0.66168212890625
1772697873109353000,4.20035302734375,-0.39666748046875,0.5363006591796875,0.672607421875
1772697873119402000,4.210402099609375,-0.4061737060546875,0.5400543212890625,0.687652587890625
1772697873129450000,4.220449951171875,-0.41943359375,0.53826904296875,0.69952392578125
1772697873139499000,4.2304990234375,-0.4284515380859375,0.5215606689453125,0.7085113525390625
1772697873149548000,4.240548095703125,-0.4382476806640625,0.511627197265625,0.7096405029296875
1772697873159596800,4.2505966796875,-0.456573486328125,0.505615234375,0.701324462890625
1772697873169645000,4.26064501953125,-0.4775390625,0.5052490234375,0.7050933837890625
1772697873179693800,4.27069384765625,-0.497222900390625,0.495849609375,0.7090911865234375
1772697873189743000,4.2807431640625,-0.5140380859375,0.4922637939453125,0.7128753662109375
1772697873199790800,4.290790771484375,-0.5303192138671875,0.4912567138671875,0.7203521728515625
1772697873209840000,4.300840087890625,-0.538848876953125,0.4852752685546875,0.7247161865234375
1772697873219889000,4.310888916015625,-0.5440826416015625,0.476348876953125,0.7252349853515625
1772697873229938000,4.32093798828125,-0.545196533203125,0.4752349853515625,0.7177581787109375
1772697873239986000,4.33098583984375,-0.5481414794921875,0.474334716796875,0.7088775634765625
1772697873250035000,4.341034912109375,-0.5502471923828125,0.4703216552734375,0.702239990234375
1772697873260084000,4.351083984375,-0.5543365478515625,0.467987060546875,0.6936187744140625
1772697873270132000,4.361132080078125,-0.55743408203125,0.467987060546875,0.691192626953125
1772697873280181000,4.371180908203125,-0.560455322265625,0.4687957763671875,0.6865692138671875
1772697873290230000,4.38122998046875,-0.563568115234375,0.46942138671875,0.6823577880859375
1772697873300278800,4.39127880859375,-0.573944091796875,0.4738616943359375,0.6743316650390625
1772697873310327000,4.4013271484375,-0.58489990234375,0.476837158203125,0.6662139892578125
1772697873320375800,4.411375732421875,-0.5884857177734375,0.472900390625,0.657989501953125
1772697873330425000,4.421425048828125,-0.58966064453125,0.474212646484375,0.6575927734375
1772697873340472800,4.431472900390625,-0.5939178466796875,0.4813385009765625,0.650970458984375
1772697873350522000,4.441522216796875,-0.5955047607421875,0.4783477783203125,0.6519927978515625
1772697873360571000,4.45157080078125,-0.594207763671875,0.4780731201171875,0.65228271484375
1772697873370620000,4.461619873046875,-0.586700439453125,0.4776763916015625,0.6553955078125
1772697873380668000,4.47166796875,-0.57330322265625,0.4811553955078125,0.6555023193359375
1772697873390717000,4.481717041015625,-0.570709228515625,0.478729248046875,0.65655517578125
1772697873400766000,4.491765869140625,-0.5618133544921875,0.4759063720703125,0.6613922119140625
1772697873410814000,4.50181396484375,-0.55694580078125,0.4730987548828125,0.6692962646484375
1772697873420863000,4.511863037109375,-0.5575103759765625,0.469818115234375,0.68096923828125
1772697873430912000,4.521912109375,-0.56402587890625,0.466156005859375,0.6843414306640625
1772697873440961000,4.5319609375,-0.565155029296875,0.4637908935546875,0.6926422119140625
1772697873451009000,4.542009033203125,-0.56719970703125,0.459869384765625,0.698944091796875
1772697873461057800,4.552057861328125,-0.565582275390625,0.4569091796875,0.70458984375
1772697873471107000,4.562107177734375,-0.5656890869140625,0.4533843994140625,0.712158203125
1772697873481154800,4.57215478515625,-0.558807373046875,0.4479522705078125,0.7116851806640625
1772697873491204000,4.5822041015625,-0.5506591796875,0.4424896240234375,0.7142791748046875
1772697873501253000,4.592253173828125,-0.54833984375,0.431732177734375,0.72076416015625
1772697873511302000,4.602302001953125,-0.5438385009765625,0.4239349365234375,0.7233428955078125
1772697873521350000,4.612349853515625,-0.550537109375,0.4163360595703125,0.7220306396484375
1772697873531399000,4.62239892578125,-0.5549774169921875,0.4095001220703125,0.7140655517578125
1772697873541448200,4.6324482421875,-0.561553955078125,0.4001922607421875,0.70562744140625
1772697873551496000,4.642495849609375,-0.5782318115234375,0.3866424560546875,0.696258544921875
1772697873561545200,4.652545166015625,-0.5966796875,0.4010772705078125,0.6983795166015625
1772697873571594000,4.662593994140625,-0.60888671875,0.4012451171875,0.6971435546875
1772697873581643000,4.67264306640625,-0.619140625,0.39862060546875,0.69207763671875
1772697873591691000,4.68269091796875,-0.619354248046875,0.4095916748046875,0.6894683837890625
1772697873601740000,4.692739990234375,-0.6173095703125,0.4207305908203125,0.68682861328125
1772697873611789000,4.7027890625,-0.611724853515625,0.4320220947265625,0.675445556640625
1772697873621836800,4.7128369140625,-0.6053619384765625,0.4411773681640625,0.6594696044921875
1772697873631886000,4.722885986328125,-0.6040496826171875,0.4475555419921875,0.6446990966796875
1772697873641935000,4.73293505859375,-0.6045379638671875,0.45611572265625,0.6359710693359375
1772697873651984000,4.74298388671875,-0.6009063720703125,0.4702911376953125,0.6410064697265625
1772697873662032100,4.7530322265625,-0.607574462890625,0.517547607421875,0.67431640625
1772697873672081000,4.763080810546875,-0.6317291259765625,0.5736236572265625,0.747802734375
1772697873682130200,4.773130126953125,-0.65728759765625,0.6098785400390625,0.8216705322265625
1772697873692178000,4.783177978515625,-0.632781982421875,0.608062744140625,0.826904296875
1772697873702227200,4.793227294921875,-0.56610107421875,0.5999908447265625,0.7895660400390625
1772697873712276000,4.80327587890625,-0.5254974365234375,0.5988922119140625,0.7620391845703125
1772697873722325000,4.813324951171875,-0.5087432861328125,0.6083984375,0.760894775390625
1772697873732373000,4.823373046875,-0.503631591796875,0.6148223876953125,0.7791748046875
1772697873742422000,4.833422119140625,-0.504180908203125,0.600433349609375,0.8160858154296875
1772697873752471000,4.843470947265625,-0.4945526123046875,0.56610107421875,0.8256683349609375
1772697873762519000,4.85351904296875,-0.47479248046875,0.5414581298828125,0.7998809814453125
1772697873772568000,4.863568115234375,-0.46392822265625,0.5225067138671875,0.7551116943359375
1772697873782617000,4.8736171875,-0.443511962890625,0.504119873046875,0.7139434814453125
1772697873792665900,4.883665771484375,-0.428558349609375,0.4939117431640625,0.6843109130859375
1772697873802714000,4.893714111328125,-0.421417236328125,0.4739990234375,0.65399169921875
1772697873812763000,4.903762939453125,-0.4131317138671875,0.4492950439453125,0.6282806396484375
1772697873822812200,4.913812255859375,-0.413726806640625,0.43328857421875,0.598541259765625
1772697873832860000,4.92385986328125,-0.4249725341796875,0.4214935302734375,0.5833740234375
1772697873842909200,4.9339091796875,-0.446197509765625,0.4167938232421875,0.5804595947265625
1772697873852958000,4.9439580078125,-0.4818115234375,0.4070281982421875,0.59405517578125
1772697873863007000,4.954007080078125,-0.50958251953125,0.398101806640625,0.6151275634765625
1772697873873055000,4.964054931640625,-0.5377197265625,0.3983154296875,0.6431732177734375
1772697873883104000,4.97410400390625,-0.546478271484375,0.4034881591796875,0.6719818115234375
1772697873893153000,4.984153076171875,-0.5450592041015625,0.3984222412109375,0.7037353515625
1772697873903201000,4.994200927734375,-0.5469512939453125,0.397674560546875,0.72406005859375
1772697873913250000,5.00425,-0.55615234375,0.4045257568359375,0.745697021484375
1772697873923299000,5.014299072265625,-0.563446044921875,0.42523193359375,0.76214599609375
1772697873933347800,5.024347900390625,-0.559173583984375,0.4451141357421875,0.779815673828125
1772697873943396000,5.03439599609375,-0.5530242919921875,0.46630859375,0.7923583984375
1772697873953444900,5.04444482421875,-0.5393829345703125,0.4756927490234375,0.8043670654296875
1772697873963494100,5.054494140625,-0.5095672607421875,0.4748687744140625,0.8102569580078125
1772697873973542000,5.0645419921875,-0.4752655029296875,0.466461181640625,0.8081207275390625
1772697873983590100,5.074590087890625,-0.4536590576171875,0.459075927734375,0.811920166015625
1772697873993639200,5.08463916015625,-0.443389892578125,0.4473419189453125,0.82281494140625
1772697874003688400,5.0946884765625,-0.438323974609375,0.4371490478515625,0.831756591796875
1772697874013736200,5.104736083984375,-0.440277099609375,0.421051025390625,0.838836669921875
1772697874023785200,5.11478515625,-0.428497314453125,0.4172821044921875,0.8346405029296875
1772697874033834200,5.124834228515625,-0.4171600341796875,0.41265869140625,0.8193511962890625
1772697874043882200,5.13488232421875,-0.4049530029296875,0.4062652587890625,0.8067626953125
1772697874053931300,5.14493115234375,-0.4015960693359375,0.3947296142578125,0.799285888671875
1772697874063980300,5.154980224609375,-0.4027862548828125,0.381622314453125,0.794952392578125
1772697874074029300,5.165029296875,-0.4074554443359375,0.369232177734375,0.7946319580078125
1772697874084077000,5.1750771484375,-0.4098968505859375,0.3589935302734375,0.7874298095703125
1772697874094126300,5.185126220703125,-0.4125518798828125,0.3541412353515625,0.7908477783203125
1772697874104175400,5.19517529296875,-0.4129486083984375,0.3475189208984375,0.79730224609375
1772697874114223400,5.205223388671875,-0.4168853759765625,0.3479461669921875,0.803558349609375
1772697874124272000,5.215272216796875,-0.430694580078125,0.347412109375,0.8088836669921875
1772697874134321200,5.225321044921875,-0.4356842041015625,0.35528564453125,0.8157958984375
1772697874144370400,5.235370361328125,-0.450653076171875,0.3663177490234375,0.8230438232421875
1772697874154418200,5.245418212890625,-0.4534912109375,0.37042236328125,0.835906982421875
1772697874164467500,5.255467529296875,-0.4605255126953125,0.37176513671875,0.84503173828125
1772697874174516200,5.26551611328125,-0.467529296875,0.3782958984375,0.860198974609375
1772697874184564200,5.275564208984375,-0.4793548583984375,0.3722686767578125,0.869598388671875
1772697874194613200,5.28561328125,-0.482513427734375,0.374542236328125,0.8726348876953125
1772697874204662300,5.295662353515625,-0.47900390625,0.3745269775390625,0.8706512451171875
1772697874214711300,5.305711181640625,-0.454803466796875,0.3775482177734375,0.8655853271484375
1772697874224759300,5.31575927734375,-0.4308929443359375,0.37384033203125,0.845062255859375
1772697874234808300,5.325808349609375,-0.417694091796875,0.364044189453125,0.818817138671875
1772697874244856000,5.33585595703125,-0.4283905029296875,0.3503875732421875,0.796661376953125
1772697874254905300,5.3459052734375,-0.4415740966796875,0.347198486328125,0.7765655517578125
1772697874264954400,5.355954345703125,-0.45263671875,0.3463287353515625,0.7638092041015625
1772697874275003100,5.366003173828125,-0.472412109375,0.3511505126953125,0.7591552734375
1772697874285051100,5.376051025390625,-0.4925079345703125,0.3549346923828125,0.762298583984375
1772697874295100200,5.38610009765625,-0.4943084716796875,0.358856201171875,0.7655029296875
1772697874305149400,5.3961494140625,-0.49517822265625,0.360809326171875,0.7679901123046875
1772697874315197200,5.406197265625,-0.4940643310546875,0.3583221435546875,0.766754150390625
1772697874325246200,5.41624609375,-0.4909210205078125,0.359375,0.757354736328125
1772697874335295200,5.426295166015625,-0.491455078125,0.357208251953125,0.7508087158203125
1772697874345344300,5.43634423828125,-0.49359130859375,0.3542938232421875,0.748046875
1772697874355392300,5.446392333984375,-0.49017333984375,0.3570556640625,0.75885009765625
1772697874365441300,5.456441162109375,-0.4862213134765625,0.357818603515625,0.7748870849609375
1772697874375490300,5.466490234375,-0.48187255859375,0.358673095703125,0.786163330078125
1772697874385538300,5.476538330078125,-0.4814300537109375,0.3574371337890625,0.7936248779296875
1772697874395587300,5.48658740234375,-0.4728851318359375,0.357879638671875,0.7936553955078125
1772697874405636400,5.49663623046875,-0.4748077392578125,0.35235595703125,0.7891387939453125
1772697874415685000,5.50668505859375,-0.473175048828125,0.34259033203125,0.783294677734375
1772697874425733400,5.5167333984375,-0.4739532470703125,0.33538818359375,0.781219482421875
1772697874435782100,5.5267822265625,-0.4747161865234375,0.3264617919921875,0.7789154052734375
1772697874445831400,5.53683154296875,-0.476226806640625,0.32073974609375,0.77667236328125
1772697874455879200,5.546879150390625,-0.4770050048828125,0.31494140625,0.7766876220703125
1772697874465928200,5.55692822265625,-0.4750823974609375,0.3145599365234375,0.7747039794921875
1772697874475977200,5.566977294921875,-0.478302001953125,0.3158416748046875,0.774627685546875
1772697874486026200,5.577026123046875,-0.4886932373046875,0.3133392333984375,0.7739410400390625
1772697874496074200,5.58707421875,-0.50244140625,0.3134002685546875,0.77374267578125
1772697874506123300,5.597123291015625,-0.5193328857421875,0.320281982421875,0.7838134765625
1772697874516172300,5.60717236328125,-0.531158447265625,0.3279266357421875,0.797149658203125
1772697874526220300,5.61722021484375,-0.5364532470703125,0.3353118896484375,0.8040924072265625
1772697874536269300,5.627269287109375,-0.54095458984375,0.3383331298828125,0.803955078125
1772697874546318300,5.637318359375,-0.5435638427734375,0.338836669921875,0.808746337890625
1772697874556367000,5.6473671875,-0.54425048828125,0.3357391357421875,0.8118438720703125
1772697874566415400,5.657415283203125,-0.5449066162109375,0.333831787109375,0.8191070556640625
1772697874576464100,5.667464111328125,-0.54974365234375,0.3328704833984375,0.8206634521484375
1772697874586513400,5.677513427734375,-0.5565338134765625,0.340728759765625,0.8203887939453125
1772697874596561200,5.68756103515625,-0.5641326904296875,0.3472900390625,0.82073974609375
1772697874606610200,5.697610107421875,-0.565216064453125,0.34686279296875,0.8126373291015625
1772697874616659200,5.7076591796875,-0.57757568359375,0.3572998046875,0.805328369140625
1772697874626708200,5.717708251953125,-0.5872955322265625,0.3774566650390625,0.799072265625
1772697874636757200,5.72775732421875,-0.59454345703125,0.3912200927734375,0.7882537841796875
1772697874646805200,5.73780517578125,-0.59259033203125,0.3981170654296875,0.773101806640625
1772697874656854300,5.747854248046875,-0.5864715576171875,0.3968505859375,0.7550201416015625
1772697874666903300,5.7579033203125,-0.5714263916015625,0.39276123046875,0.73529052734375
1772697874676952000,5.7679521484375,-0.5512237548828125,0.3820037841796875,0.720001220703125
1772697874687000300,5.778000244140625,-0.5454254150390625,0.364654541015625,0.7025146484375
1772697874697049000,5.788049072265625,-0.54345703125,0.3509368896484375,0.69970703125
1772697874707098400,5.798098388671875,-0.5449371337890625,0.34381103515625,0.6887969970703125
1772697874717146000,5.80814599609375,-0.5576019287109375,0.33837890625,0.6895599365234375
1772697874727195100,5.818195068359375,-0.5728759765625,0.3351898193359375,0.690948486328125
1772697874737244200,5.828244140625,-0.587738037109375,0.331268310546875,0.693359375
1772697874747293200,5.838293212890625,-0.606475830078125,0.3283538818359375,0.7021636962890625
1772697874757341200,5.848341064453125,-0.615997314453125,0.327606201171875,0.71112060546875
1772697874767390200,5.85839013671875,-0.6233367919921875,0.3208770751953125,0.7165679931640625
1772697874777439200,5.868439208984375,-0.6301422119140625,0.312103271484375,0.722442626953125
1772697874787487200,5.8784873046875,-0.6325225830078125,0.3048248291015625,0.724853515625
1772697874797536300,5.888536376953125,-0.64324951171875,0.2963714599609375,0.728302001953125
1772697874807585300,5.898585205078125,-0.6466522216796875,0.2907257080078125,0.7278594970703125
1772697874817634000,5.908634033203125,-0.64678955078125,0.286773681640625,0.728057861328125
1772697874827682300,5.918682373046875,-0.6421966552734375,0.278839111328125,0.720123291015625
1772697874837731000,5.92873095703125,-0.645050048828125,0.2692413330078125,0.709869384765625
1772697874847780400,5.9387802734375,-0.64190673828125,0.2679290771484375,0.70928955078125
1772697874857828000,5.948828125,-0.6259307861328125,0.2678985595703125,0.7278289794921875
1772697874867877000,5.958877197265625,-0.606689453125,0.2720947265625,0.785888671875
1772697874877926100,5.968926025390625,-0.592132568359375,0.3060760498046875,0.9017791748046875
1772697874887975200,5.97897509765625,-0.6085205078125,0.387725830078125,1.01239013671875
1772697874898023200,5.989023193359375,-0.595458984375,0.4498748779296875,1.05780029296875
1772697874908072200,5.999072265625,-0.5464019775390625,0.4683074951171875,1.075775146484375
1772697874918121200,6.009121337890625,-0.478546142578125,0.4434967041015625,1.04345703125
1772697874928169200,6.019169189453125,-0.4336395263671875,0.4285736083984375,1.0101776123046875
1772697874938218200,6.02921826171875,-0.4058990478515625,0.4362030029296875,0.979583740234375
1772697874948267300,6.039267333984375,-0.3672332763671875,0.4534149169921875,0.91552734375
1772697874958316300,6.04931640625,-0.34173583984375,0.4645843505859375,0.8649749755859375
1772697874968364300,6.0593642578125,-0.31793212890625,0.4569091796875,0.8431396484375
1772697874978413000,6.0694130859375,-0.2790069580078125,0.4092864990234375,0.8217010498046875
1772697874988462300,6.07946240234375,-0.2764129638671875,0.3447265625,0.80609130859375
1772697874998511600,6.08951171875,-0.2828826904296875,0.3256988525390625,0.7739410400390625
1772697875008559400,6.099559326171875,-0.27581787109375,0.334808349609375,0.743621826171875
1772697875018608600,6.109608642578125,-0.2846527099609375,0.346282958984375,0.7157745361328125
1772697875028657400,6.119657470703125,-0.3104095458984375,0.348114013671875,0.695281982421875
1772697875038705700,6.12970556640625,-0.3453521728515625,0.359954833984375,0.6948394775390625
1772697875048754400,6.13975439453125,-0.385955810546875,0.3832244873046875,0.7104034423828125
1772697875058803500,6.149803466796875,-0.426910400390625,0.407379150390625,0.7201995849609375
1772697875068852500,6.1598525390625,-0.4712066650390625,0.4360198974609375,0.7226715087890625
1772697875078900500,6.169900390625,-0.51336669921875,0.467315673828125,0.7345733642578125
1772697875088949500,6.179949462890625,-0.5346832275390625,0.4823760986328125,0.7515411376953125
1772697875098998500,6.18999853515625,-0.535247802734375,0.47686767578125,0.762420654296875
1772697875109046500,6.200046630859375,-0.5384368896484375,0.46868896484375,0.7743988037109375
1772697875119095600,6.210095458984375,-0.5221099853515625,0.4587554931640625,0.7807159423828125
1772697875129144300,6.220144287109375,-0.5057220458984375,0.444854736328125,0.7744140625
1772697875139193600,6.230193603515625,-0.4956512451171875,0.42547607421875,0.7760772705078125
1772697875149241300,6.240241455078125,-0.488677978515625,0.401031494140625,0.7864837646484375
1772697875159290600,6.25029052734375,-0.496002197265625,0.4012603759765625,0.785064697265625
1772697875169339400,6.26033935546875,-0.497650146484375,0.4259796142578125,0.7862548828125
1772697875179387600,6.2703876953125,-0.48931884765625,0.453826904296875,0.792816162109375
1772697875189436400,6.2804365234375,-0.4687652587890625,0.4637603759765625,0.7964630126953125
1772697875199485400,6.2904853515625,-0.4385223388671875,0.4557342529296875,0.79644775390625
1772697875209534500,6.300534423828125,-0.399993896484375,0.453887939453125,0.79144287109375
1772697875219582500,6.31058251953125,-0.363311767578125,0.4661865234375,0.782684326171875
1772697875229631500,6.320631591796875,-0.347015380859375,0.4679107666015625,0.775360107421875
1772697875239680500,6.330680419921875,-0.33636474609375,0.466522216796875,0.766510009765625
1772697875249728500,6.340728515625,-0.3293609619140625,0.4749908447265625,0.7604217529296875
1772697875259777500,6.350777587890625,-0.338104248046875,0.482330322265625,0.761810302734375
1772697875269826300,6.360826416015625,-0.3690643310546875,0.4860687255859375,0.7724761962890625
1772697875279875600,6.37087548828125,-0.3997344970703125,0.5102996826171875,0.7692108154296875
1772697875289923300,6.38092333984375,-0.4321136474609375,0.5355377197265625,0.7756805419921875
1772697875299972600,6.39097265625,-0.4582977294921875,0.53826904296875,0.7862701416015625
1772697875310021400,6.401021484375,-0.4745635986328125,0.542938232421875,0.7848663330078125
1772697875320069600,6.411069580078125,-0.48333740234375,0.5495758056640625,0.7801971435546875
1772697875330118400,6.421118408203125,-0.4924468994140625,0.5438232421875,0.783447265625
1772697875340167400,6.43116748046875,-0.48931884765625,0.524444580078125,0.764617919921875
1772697875350216400,6.441216552734375,-0.488189697265625,0.5181884765625,0.7597198486328125
1772697875360264400,6.451264404296875,-0.4874114990234375,0.510650634765625,0.7569580078125
1772697875370313500,6.4613134765625,-0.49066162109375,0.5077362060546875,0.7348785400390625
1772697875380362500,6.471362548828125,-0.491302490234375,0.5068206787109375,0.7216796875
1772697875390411300,6.481411376953125,-0.4915924072265625,0.5019073486328125,0.712677001953125
1772697875400459500,6.49145947265625,-0.5029296875,0.498443603515625,0.70538330078125
1772697875410508300,6.50150830078125,-0.505157470703125,0.49700927734375,0.695953369140625
1772697875420557600,6.5115576171875,-0.4906463623046875,0.47760009765625,0.690643310546875
1772697875430605300,6.521605224609375,-0.48638916015625,0.4656829833984375,0.6920166015625
1772697875440654600,6.531654541015625,-0.4862060546875,0.4852752685546875,0.69940185546875
1772697875450703400,6.541703369140625,-0.4682769775390625,0.4910888671875,0.7144927978515625
1772697875460751600,6.551751708984375,-0.4732208251953125,0.48382568359375,0.7338714599609375
1772697875470800400,6.56180029296875,-0.491424560546875,0.4653472900390625,0.7223663330078125
1772697875480849400,6.571849365234375,-0.48419189453125,0.463226318359375,0.6956024169921875
1772697875490898400,6.5818984375,-0.4707489013671875,0.4659271240234375,0.6688079833984375
1772697875500946400,6.591946533203125,-0.46673583984375,0.474884033203125,0.6549224853515625
1772697875510995500,6.601995361328125,-0.4655609130859375,0.489105224609375,0.663848876953125
1772697875521044500,6.61204443359375,-0.4702606201171875,0.510162353515625,0.6745452880859375
1772697875531093200,6.62209326171875,-0.4780731201171875,0.5269927978515625,0.6898193359375
1772697875541141500,6.6321416015625,-0.4591522216796875,0.5329437255859375,0.6988983154296875
1772697875551190300,6.642190185546875,-0.4529266357421875,0.5397796630859375,0.6981048583984375
1772697875561239600,6.652239501953125,-0.4542999267578125,0.558258056640625,0.6977691650390625
1772697875571287300,6.662287353515625,-0.454498291015625,0.5696868896484375,0.6988372802734375
1772697875581336600,6.672336669921875,-0.4509429931640625,0.5733795166015625,0.6954498291015625
1772697875591385300,6.68238525390625,-0.46630859375,0.5584716796875,0.715911865234375
1772697875601434400,6.692434326171875,-0.4665374755859375,0.536468505859375,0.733978271484375
1772697875611482400,6.702482421875,-0.4786376953125,0.5100860595703125,0.7297821044921875
1772697875621531400,6.712531494140625,-0.4807281494140625,0.494964599609375,0.70330810546875
1772697875631580700,6.72258056640625,-0.4969635009765625,0.4873504638671875,0.667022705078125
1772697875641628400,6.73262841796875,-0.51690673828125,0.4896240234375,0.6435546875
1772697875651677400,6.742677490234375,-0.53985595703125,0.4917755126953125,0.63616943359375
1772697875661726500,6.7527265625,-0.5605926513671875,0.502227783203125,0.6218414306640625
1772697875671775500,6.762775390625,-0.5946044921875,0.50250244140625,0.6296539306640625
1772697875681823500,6.772823486328125,-0.59765625,0.4719085693359375,0.6442108154296875
1772697875691872300,6.782872314453125,-0.58074951171875,0.443389892578125,0.6776123046875
1772697875701921500,6.792921630859375,-0.5613555908203125,0.4336395263671875,0.7187652587890625
1772697875711969300,6.80296923828125,-0.5481109619140625,0.430145263671875,0.7135467529296875
1772697875722018600,6.8130185546875,-0.5589752197265625,0.4357757568359375,0.691192626953125
1772697875732067600,6.823067626953125,-0.5764007568359375,0.444793701171875,0.67681884765625
1772697875742116400,6.833116455078125,-0.5898590087890625,0.4501800537109375,0.675384521484375
1772697875752164400,6.843164306640625,-0.6006317138671875,0.4502105712890625,0.674835205078125
1772697875762213400,6.85321337890625,-0.6096954345703125,0.4588165283203125,0.6690673828125
1772697875772262700,6.8632626953125,-0.61053466796875,0.4633941650390625,0.65997314453125
1772697875782311400,6.8733115234375,-0.610565185546875,0.45452880859375,0.6532440185546875
1772697875792359700,6.883359619140625,-0.60772705078125,0.4467010498046875,0.6544189453125
1772697875802408400,6.893408447265625,-0.602874755859375,0.447235107421875,0.6665496826171875
1772697875812457500,6.90345751953125,-0.589935302734375,0.4152984619140625,0.6620941162109375
1772697875822505500,6.91350537109375,-0.4979095458984375,0.428131103515625,0.6975860595703125
1772697875832554500,6.923554443359375,-0.6595306396484375,0.429840087890625,0.7599334716796875
1772697875842603500,6.933603515625,-0.6878509521484375,0.398651123046875,0.7394256591796875
1772697875852652500,6.943652587890625,-0.6894378662109375,0.43658447265625,0.6646270751953125
1772697875862700500,6.953700439453125,-0.676727294921875,0.4640960693359375,0.6191864013671875
1772697875872749600,6.96374951171875,-0.6728057861328125,0.4508056640625,0.6206817626953125
1772697875882798300,6.97379833984375,-0.68695068359375,0.47705078125,0.670654296875
1772697875892846600,6.9838466796875,-0.69342041015625,0.516357421875,0.7683868408203125
1772697875902895400,6.993895263671875,-0.66680908203125,0.5340576171875,0.8675994873046875
