time,seconds_elapsed,z,y,x
1772702005011257600,0.066257568359375,-0.02084931128323078,-0.24343232426643371,-0.1751402938067913
1772702005021307000,0.076306884765625,0.051397594282031056,-0.2923477463439107,-0.18941198026537895
1772702005031356000,0.08635595703125,0.3957189812302589,-0.3664987319648266,-0.048127194309234615
1772702005041404700,0.09640478515625,0.5997609598726034,-0.4648498006016016,-0.1668400829732418
1772702005051454000,0.106453857421875,0.5282499673664569,-0.5800967667207122,-0.31688568301200865
1772702005061503700,0.116503662109375,0.34099838000535965,-0.32790801228582855,-0.25749533641040323
1772702005071552800,0.126552734375,0.09118307670354843,-0.06743541363030672,-0.17075521059036253
1772702005081601800,0.136601806640625,-0.05216974769830703,-0.013355740657448769,-0.22141280016005038
1772702005091650800,0.14665087890625,-0.1521177301377058,-0.05924158578068017,-0.2338993567675352
1772702005101699800,0.156699951171875,-0.12170505621731281,-0.12146890937387943,-0.21211305689513682
1772702005111748600,0.16674853515625,-0.04275076196789741,-0.17103753466308116,-0.09796645323336124
1772702005121798700,0.176798583984375,0.025381694015860556,-0.09001987814307212,0.10120411998033522
1772702005131848000,0.186847900390625,0.0702484252244234,0.028789456632733343,0.07626783164441585
1772702005141896700,0.196896728515625,0.05626841518878936,0.17496639854460955,-0.12046937694251536
1772702005151945700,0.20694580078125,-0.008773089042305946,0.2642486100628972,-0.23976971010565756
1772702005161994800,0.216994873046875,-0.07981061881780624,0.22575141388624906,-0.34457799205780026
1772702005172044800,0.227044921875,0.036488194441795345,0.19909750797748565,-0.34146482847332954
1772702005182093600,0.237093505859375,0.2804769835472107,0.16651888819485902,-0.26073534124493597
1772702005192142800,0.247142822265625,0.5393816022336483,0.08585895907133817,-0.12632570175528526
1772702005202192000,0.25719189453125,0.7603104182690381,-0.0671896221756935,-0.09273030614554882
1772702005212240600,0.26724072265625,0.8458066815078258,-0.18727263014912604,-0.01633504872918129
1772702005222290700,0.277290771484375,1.0155711274951695,-0.28444208778589963,0.03572247076630592
1772702005232339700,0.287339599609375,1.2612445086866617,-0.29805677164047956,-0.005496259328722953
1772702005242388700,0.297388671875,1.386721484658122,-0.2568605456382036,-0.1931862381070852
1772702005252437800,0.307437744140625,1.3913047207951545,-0.03648176470100879,-0.5192927539288997
1772702005262486800,0.31748681640625,1.3779916502356528,0.17615940772145985,-0.7771271130353212
1772702005272535800,0.327535888671875,1.461806828519702,0.19865999334305523,-0.8890846822202205
1772702005282585600,0.337585693359375,1.763520076841116,0.2422860768407583,-0.9304816914916038
1772702005292634600,0.347634521484375,2.0227455980449913,0.13488953196108341,-0.6922785000503063
1772702005302684000,0.357683837890625,2.1071353613466024,-0.18703209939152002,-0.36145372353494165
1772702005312732700,0.367732666015625,1.92617790569365,-0.8001347713962197,0.12334522463977336
1772702005322781700,0.37778173828125,1.8181120832502842,-1.573358447252214,0.8386153086990118
1772702005332831700,0.387831787109375,1.5751199039667845,-2.0075401378676294,1.526568931287527
1772702005342880800,0.397880859375,1.1428063453108073,-1.6798963294759393,1.7823925350934267
1772702005352929800,0.4079296875,0.7536310866355895,-0.7165703530028462,1.601529187464714
1772702005362978800,0.417978759765625,0.5482932229638099,0.24939649336785077,1.3724971444725989
1772702005373027800,0.42802783203125,0.5764993267506361,0.6825666688531636,0.9997346759378909
1772702005383076600,0.43807666015625,0.6725947254151106,0.4890133509993553,0.5426046559333801
1772702005393126700,0.448126708984375,0.8655114989310503,-0.13591478335559368,0.45384149985313416
1772702005403176000,0.458176025390625,1.2556348521113394,-0.9431608480617404,0.43471360553503036
1772702005413224700,0.468224609375,1.9088421554893253,-1.3712012594431637,0.16656477316319943
1772702005423273700,0.478273681640625,2.520790396761894,-1.3394707809224724,-0.07664835539460181
1772702005433323000,0.488322998046875,2.695694543725252,-1.0202978637561202,-0.6902186449110508
1772702005443373000,0.498373046875,2.69929753665328,-0.6260033623710274,-1.0920482179760933
1772702005453421800,0.508421875,2.5423329510062933,-0.1967538674607873,-1.3087141158699989
1772702005463470800,0.518470947265625,2.3992227031886575,0.2806520478531718,-1.5221025995284319
1772702005473519900,0.528519775390625,2.206473102933168,0.6067211542740464,-1.7182535326600075
1772702005483569000,0.53856884765625,1.785433802485466,0.9226292244255542,-2.0997885057151318
1772702005493619000,0.548618896484375,1.406415780687332,1.0014879493460058,-2.312139463019371
1772702005503667700,0.558667724609375,1.1853098545193672,0.7403270761653781,-2.7958856872707605
1772702005513717000,0.568717041015625,0.31212007604539393,0.6713938251927495,-4.131721034300327
1772702005523765800,0.578765869140625,-1.6872288643211126,-0.5539449651151895,-5.724184287256002
1772702005533814800,0.588814697265625,-3.0342361782282588,-2.160432067248225,-7.480009133419394
1772702005543864000,0.598864013671875,-2.90086757222414,-2.028241857373714,-8.061232566082477
1772702005553913900,0.608913818359375,-1.9795739803165195,-0.9678107206717133,-7.252889061528444
1772702005563963000,0.618962890625,1.0152075548797845,-0.1889364717081189,-5.49158490717113
1772702005574012000,0.629011962890625,3.308525997573137,0.4965405316337943,-3.29761005128324
1772702005584061000,0.63906103515625,2.4205367093741894,0.9945356459900736,-0.7102624850302934
1772702005594110000,0.64910986328125,-0.8164169208943843,1.153567393299937,2.3597236364930865
1772702005604159700,0.65915966796875,-2.7553496787428853,1.103063532987237,5.214778721091151
1772702005614209000,0.669208984375,-2.5553052453041074,1.8767679780974984,4.9870478238254785
1772702005624257800,0.6792578125,-3.9571471422046423,2.868153343363106,5.041564426910877
1772702005634306800,0.689306884765625,-7.9041388010978695,2.886241957761347,5.81324262689054
1772702005644356000,0.699356201171875,-9.85489643677473,2.7893562855020164,4.032823437696695
1772702005654406000,0.709406005859375,-10.496332053816317,3.3918875868707894,4.149119912868738
1772702005664455000,0.719454833984375,-11.6771749920547,4.6272561882838605,5.593949887624382
1772702005674503700,0.729503662109375,-11.964435936653613,4.992583246120811,6.622980800673365
1772702005684553000,0.739552978515625,-13.16356622673273,4.3392838805451985,7.249286653122305
1772702005694602000,0.74960205078125,-14.140748879122734,3.5386823684200643,8.561618374967574
1772702005704651800,0.75965185546875,-14.027839123779534,3.493284306813776,10.444420664793252
1772702005714701000,0.769701171875,-12.785907802850007,4.819332419322431,12.435306897240876
1772702005724749800,0.779749755859375,-12.105994278854132,5.878809031778574,13.38130296872854
1772702005734798800,0.789798828125,-12.599272301560639,6.062988372087478,14.25549052606821
1772702005744848100,0.79984814453125,-12.595178310245275,5.843826565724611,14.797265160918235
1772702005754897000,0.80989697265625,-11.30574055725336,5.9318070469945665,14.89854409970045
1772702005764947000,0.819947021484375,-8.566787302038072,6.055940207141638,13.635550116997956
1772702005774995700,0.82999560546875,-5.001363933947682,5.37121723703742,10.647066220641136
1772702005785045000,0.840044921875,-2.4169763865441083,3.891517901213467,6.630607642289996
1772702005795094000,0.850093994140625,-0.7887813104718923,2.0873960571318864,2.6844892590999603
1772702005805142800,0.860142822265625,0.8884902234584092,0.8521779701054095,-0.8531225574791431
1772702005815192800,0.87019287109375,2.4747370861172673,-0.31876784349679943,-3.1561610146760937
1772702005825241900,0.880241943359375,3.756742643281817,-2.660247967290878,-4.538357130864262
1772702005835291000,0.890290771484375,5.029004805067181,-4.554023778812587,-6.336050110942125
1772702005845340000,0.90033984375,6.612652298882603,-4.5953442157164215,-7.247832362660765
1772702005855389000,0.910388916015625,8.010632259657978,-4.186719575683773,-8.487029874712228
1772702005865439000,0.92043896484375,8.58639508882761,-4.420870861385763,-8.316413780331612
1772702005875487700,0.93048779296875,9.366240813171864,-4.926352824366092,-7.691755110567808
1772702005885537000,0.940537109375,10.448017812502384,-5.309826072007417,-7.670749147418141
1772702005895586000,0.9505859375,11.28490702806115,-5.437101037311554,-7.689598809316754
1772702005905634800,0.960634765625,11.8681897313416,-5.54639844737649,-7.850802347707748
1772702005915684000,0.97068408203125,12.214308523100614,-5.519133423832058,-7.7260694681018585
1772702005925734000,0.98073388671875,12.834973739314078,-5.5630701807141305,-7.813836598882078
1772702005935783000,0.990782958984375,13.27664432438016,-5.426978871747851,-7.984378458982706
1772702005945832000,1.00083203125,13.342228849446773,-5.223218048134446,-7.926194565561413
1772702005955881000,1.010880859375,12.8331418477118,-4.769839489617944,-7.664978747323155
1772702005965930000,1.020929931640625,11.65141978855133,-4.536896410661935,-6.803332691648602
1772702005975979800,1.030979736328125,10.531778630250692,-4.592831648373603,-6.479039362728595
1772702005986028800,1.04102880859375,9.547533784389495,-4.364673173345625,-6.421098045891523
1772702005996078000,1.051078125,8.395599545249343,-3.857516555151343,-6.102165367221832
1772702006006126800,1.061126953125,7.498654212656617,-3.4397339184120295,-5.915228837159276
1772702006016175900,1.07117578125,7.111638177841901,-3.247862854556739,-5.8785243696182965
1772702006026226000,1.081225830078125,7.054949491414427,-3.315268165309727,-5.866075222411752
1772702006036275000,1.09127490234375,6.968027579286694,-3.4217066788122055,-5.846759112045168
1772702006046324000,1.101323974609375,6.773259040424227,-3.4498552071928974,-5.84865763914287
1772702006056373000,1.111373046875,6.4517644023120395,-3.3952515103459358,-5.721597193372249
1772702006066422000,1.121422119140625,5.907225563445687,-3.4609859652772546,-5.220808064383268
1772702006076471800,1.131471923828125,5.147685545027255,-3.317127821701765,-4.300244540315866
1772702006086520800,1.141520751953125,4.413662245181203,-2.7588044953718778,-3.2620249431610104
1772702006096570000,1.151570068359375,4.007046022361517,-2.0312559444978833,-2.690558934402466
1772702006106619000,1.161618896484375,4.355574797871709,-1.9128259644284844,-2.6958932811677454
1772702006116668000,1.17166796875,4.659471235451102,-2.4736647807106373,-2.472656772711873
1772702006126717000,1.181717041015625,4.6226101160436865,-3.1427211028665303,-1.5123761552840471
1772702006136767000,1.19176708984375,3.953518430313468,-2.6162594802215695,-0.029547581523656843
1772702006146816000,1.20181591796875,1.930671125459671,-0.6271709448456764,1.6686738014549016
1772702006156864800,1.21186474609375,-1.306374859267473,2.400339724519849,3.633044951942563
1772702006166914000,1.2219140625,-3.189266580942273,5.408039193478226,5.055571909475327
1772702006176962800,1.231962890625,-3.5431004771232604,6.736971921512485,6.538708526271582
1772702006187012900,1.242012939453125,-6.5028235584199425,6.976247710621356,9.282560659444332
1772702006197062000,1.252061767578125,-13.354832310432196,7.123438505750894,11.93113221746683
1772702006207111000,1.26211083984375,-21.73770973675251,6.1203375682502985,14.094277050805092
1772702006217160000,1.272159912109375,-25.915568252849578,5.186370957252383,14.223575630891322
1772702006227209000,1.282208984375,-25.71798114943504,6.549166791921854,12.134818222278357
1772702006237259000,1.292259033203125,-20.509853702926634,7.096017414861917,9.543231703281402
1772702006247308000,1.30230810546875,-12.988766124665736,5.740650268888473,6.105142921727896
1772702006257356800,1.312356689453125,-8.444419397997855,4.424184808239341,3.0950159333616494
1772702006267406000,1.322406005859375,-6.890972396656871,3.077489044499397,1.4339929389208554
1772702006277454800,1.332454833984375,-5.401922756424546,0.8624401286616921,0.0411480029463768
1772702006287505000,1.3425048828125,-4.773173017954826,-0.2610857621178031,-1.0765408522427082
1772702006297554000,1.352553955078125,-3.3637276603132484,-0.28755232876092196,-1.2578063509315252
1772702006307603000,1.36260302734375,-1.3879478115826844,0.34890228499770165,-1.3713859683603047
1772702006317652000,1.37265185546875,-0.3948626566618681,0.835569365131855,-1.0767121171563863
1772702006327700700,1.38270068359375,0.5071387902766465,0.45120998230576514,-1.130173073709011
1772702006337750000,1.39275,1.612268023622036,0.12193009714484214,-1.7847534190058707
1772702006347800000,1.402800048828125,2.801585360217094,0.11956716740578412,-2.556272044509649
1772702006357848800,1.412848876953125,3.550795707800984,-0.052336044175922865,-3.113115069153905
1772702006367898000,1.422898193359375,3.8514416191518306,-0.5623574041515589,-3.2696956239193677
1772702006377947000,1.43294677734375,4.06153456839621,-1.3036103629902005,-3.2858038781553507
1772702006387996000,1.442995849609375,4.451406577163935,-1.9450638079494236,-3.167891199958324
1772702006398046000,1.4530458984375,4.564833049857616,-2.439047348576784,-2.9867069498121737
1772702006408095000,1.463094970703125,4.5821407430112355,-2.9272862080723048,-3.206726834309101
1772702006418143700,1.473143798828125,4.379949945193529,-3.1226492056965824,-3.5829198618143794
1772702006428192500,1.483192626953125,4.02738621507883,-3.08076587421298,-3.822279237553477
1772702006438241800,1.49324169921875,3.9677842715531586,-2.887642764469981,-4.158427254918218
1772702006448291600,1.50329150390625,4.087977754163742,-2.62468828587085,-4.602951475849747
1772702006458340600,1.513340576171875,4.224887978297471,-2.2629130752965807,-4.869447280317544
1772702006468389600,1.5233896484375,4.1614749520510435,-1.9484753699585795,-4.926041274198889
1772702006478438700,1.533438720703125,3.633118601700663,-1.7186007386624813,-4.7386523241937155
1772702006488487700,1.54348779296875,2.8010253882467744,-1.5241376124873756,-4.2673640149772165
1772702006498537500,1.553537353515625,2.298826976981759,-1.4426029463559389,-3.789199974772334
1772702006508586800,1.563586669921875,2.127229470348358,-1.413965757675469,-3.4817502286255357
1772702006518635800,1.5736357421875,2.0490736330002544,-1.424444773852825,-3.2564486043334004
1772702006528684500,1.5836845703125,1.9692904867112635,-1.3326166772440076,-2.777009137365222
1772702006538733800,1.59373388671875,1.4328238951414822,-0.8708294790834188,-2.0304180323690173
1772702006548783600,1.60378369140625,1.3037947796463965,-0.2814899599820375,-1.2891186040401459
1772702006558832600,1.61383251953125,1.0531523778706788,0.6452066600129008,-0.993738650393486
1772702006568881700,1.623881591796875,0.5998913082540035,1.3928227241426705,-0.7586550522774458
1772702006578930700,1.6339306640625,0.7676707179039717,1.9060373272016644,-1.0040952092349529
1772702006588979700,1.643979736328125,0.2712228329896927,2.152468541023135,-1.5800708043724299
1772702006599028500,1.654028564453125,-0.8079407689720391,2.2910452370643615,-1.7001321850359439
1772702006609078500,1.66407861328125,-2.075413942915201,1.8211314310714601,-1.5524468843877315
1772702006619127800,1.6741279296875,-2.74467280190587,1.1753072236821054,-1.0059925672888754
1772702006629176600,1.684176513671875,-3.2879806376725433,0.8030778391107917,0.1022206035465002
1772702006639225600,1.6942255859375,-3.655404083266854,0.45078269680440425,1.116472465136647
1772702006649274600,1.704274658203125,-4.838692661091685,0.5075377264663576,2.7943764517515897
1772702006659324700,1.71432470703125,-7.024203055495024,1.4054083572104572,4.442658038040995
1772702006669373700,1.724373779296875,-8.248150391444563,2.5586007797181605,5.260812157991528
1772702006679422700,1.734422607421875,-9.462747130724788,3.303573051340878,6.107461135542392
1772702006689471700,1.7444716796875,-11.160746395385265,4.072889198364317,7.652040939816832
1772702006699520500,1.7545205078125,-11.728607073128222,3.844351076368987,8.028042828664184
1772702006709570600,1.764570556640625,-11.321583438551425,2.9307661591425536,8.248390629941225
1772702006719619800,1.774619873046875,-10.136935262811184,2.3626459536805746,8.854099684563279
1772702006729668600,1.784668701171875,-9.585501988255977,1.9049222055666148,9.26684111226499
1772702006739717600,1.794717529296875,-9.094389034628868,1.234438334825635,10.410365250456332
1772702006749766700,1.8047666015625,-9.405053066647053,0.8408812078043818,11.532366708147524
1772702006759816700,1.814816650390625,-9.848547360008954,1.0301565560780466,12.552581862056254
1772702006769865700,1.82486572265625,-10.56846556213498,1.428694394121319,13.030304588234424
1772702006779914500,1.83491455078125,-11.51260753018856,1.732579579654336,13.083648055887222
1772702006789963800,1.8449638671875,-11.749563351917265,1.915606388927251,11.917307105731963
1772702006800012500,1.855012451171875,-11.395665742850303,1.8864571590714156,10.056713140583037
1772702006810062600,1.8650625,-10.127247397011518,1.7592990981452166,8.259581886041165
1772702006820112000,1.87511181640625,-8.334304826331138,1.522555311731994,6.413873355334997
1772702006830160600,1.88516064453125,-6.000863632085919,0.7343330964475869,4.35820163924396
1772702006840209700,1.895209716796875,-3.3998096120417114,-0.2449566112242639,2.425812019428611
1772702006850258700,1.9052587890625,-0.8183850060969591,-0.2659884394675493,0.8883779952555895
1772702006860307700,1.9153076171875,1.4476765963584184,0.21946809583306312,0.007817980274558068
1772702006870357800,1.925357666015625,3.271979935464263,0.6217217395290732,-0.3747966047108173
1772702006880406500,1.935406494140625,4.760581247407198,0.8410220775797963,-1.0283476069599389
1772702006890455800,1.945455810546875,6.155915077587962,0.8795943848192691,-1.9617004699736833
1772702006900504600,1.955504638671875,7.569018373215198,0.5833084222435951,-3.0437352434575558
1772702006910553600,1.9655537109375,8.722883872678876,0.2639173322819173,-4.498828838074207
1772702006920603600,1.975603759765625,9.738732063549756,-0.2136122094117105,-5.457711863663793
1772702006930652700,1.985652587890625,10.70615904560089,-1.4422684537045656,-5.969966389518976
1772702006940701700,1.99570166015625,11.735516121864318,-2.027429664207995,-7.045020802596211
1772702006950750500,2.00575048828125,12.367927889972924,-2.1889073433652517,-8.10134128910899
1772702006960799700,2.0157998046875,12.812677736353873,-2.0626213890984655,-8.52182763184905
1772702006970849800,2.025849853515625,13.410689222210644,-1.8783914876461028,-8.375268120360374
1772702006980898600,2.035898681640625,13.921167386043072,-1.7919158579811452,-8.211446508425473
1772702006990947800,2.04594775390625,14.251561369925737,-1.8911651906318963,-8.055171658608318
1772702007000996600,2.05599658203125,14.18589033561945,-1.962932788247615,-7.8217469336152075
1772702007011045600,2.066045654296875,13.682650890868901,-2.0445598088376222,-7.369528651049733
1772702007021095700,2.076095703125,13.109814762800932,-1.967808723720908,-6.537310349911451
1772702007031144700,2.086144775390625,12.885546573209762,-1.5712337101832032,-5.979702186113595
1772702007041193700,2.09619384765625,12.535420299375057,-1.0480888108707964,-5.67146333541572
1772702007051242500,2.106242431640625,12.014315527588128,-0.7483326879665255,-5.53196192574501
1772702007061291800,2.116291748046875,11.383154636323452,-0.7421465466775,-5.394961100718379
1772702007071341800,2.126341796875,10.554549264985322,-0.9330610404603182,-5.233422631284594
1772702007081390600,2.136390625,9.782868142396211,-1.0592295058272778,-5.291643934106826
1772702007091439600,2.146439697265625,9.232654765024781,-1.1684385069563985,-5.465377283725142
1772702007101488600,2.156488525390625,8.789760191121697,-1.3772225655592978,-5.4315328817904
1772702007111537700,2.16653759765625,8.347595100536942,-1.5565072656944394,-5.059066181331873
1772702007121586700,2.176586669921875,7.820935032710432,-1.6335757461972533,-4.002145975360274
1772702007131636700,2.18663671875,7.228970425802469,-1.7835386363886296,-2.611192552220821
1772702007141685800,2.196685791015625,6.305534561169147,-2.193472751584649,-1.1478899321854115
1772702007151734500,2.206734619140625,5.021545721232891,-2.4498982668064535,0.24572131198644637
1772702007161783800,2.21678369140625,3.5730876191079615,-2.405448299705237,1.1598299608260392
1772702007171832600,2.22683251953125,1.4850859972983599,-1.978231479666382,1.8807687381714582
1772702007181882600,2.236882568359375,-1.32887252227962,-1.7145888726726173,2.5110540156453847
1772702007191931600,2.246931640625,-3.607885960766673,-2.0937455722890794,3.6223107919603583
1772702007201980700,2.256980712890625,-4.989265499874949,-1.6583385776624082,5.207474535557627
1772702007212029700,2.26702978515625,-6.9976932342320675,-0.5116602132238447,7.601752183559537
1772702007222078500,2.277078369140625,-9.415092814624309,1.033707672688365,9.838274972319603
1772702007232128500,2.28712841796875,-11.694461642420292,4.149938535775244,10.525263549268246
1772702007242177800,2.297177734375,-13.456174377578495,6.936539969611167,12.097211252939701
1772702007252226600,2.3072265625,-16.35678943634629,8.328512214404345,14.705850613546371
1772702007262275600,2.317275634765625,-18.517838174188135,9.103684101718663,17.891305527245997
1772702007272324600,2.32732470703125,-17.862549388360975,7.32434510897696,17.153260132277012
1772702007282374700,2.337374755859375,-13.025951069200039,4.902529757969081,9.511721297252178
1772702007292423700,2.347423583984375,-8.919718111899495,3.9998791994720695,4.159567657124996
1772702007302472700,2.35747265625,-7.2174085828244685,2.644225637772679,1.5134247875541447
1772702007312521700,2.367521728515625,-5.122431861305237,1.7745216555878518,-0.05701543416380882
1772702007322570500,2.377570556640625,-3.067669661274552,1.4588652221098541,-0.8891466415405272
1772702007332620500,2.38762060546875,-1.6296639795809984,1.4932415389642117,-1.3247457977384327
1772702007342669800,2.397669921875,-0.4724374792516231,1.3588584952205418,-1.6455156287074089
1772702007352718600,2.407718505859375,0.48269759198129175,0.8938838991954922,-2.1099135938882827
1772702007362767600,2.417767578125,1.2004998248666525,0.447595883461833,-2.8756442836403844
1772702007372816600,2.427816650390625,1.6103051991164683,-0.16694383560866116,-3.98665614528358
1772702007382866700,2.43786669921875,1.8161328921318054,-1.0109610033512115,-4.965922618210316
1772702007392915700,2.447915771484375,2.0538217043101787,-1.8497063681706785,-5.591206726396083
1772702007402964500,2.457964599609375,2.2605068909376858,-2.2262816729918122,-5.565395408791304
1772702007413013800,2.468013671875,1.688867279177904,-2.3113699399515983,-5.4946618303984405
1772702007423062800,2.478062744140625,1.1211866341769694,-1.8722703744173048,-5.418891426882148
1772702007433111600,2.488111572265625,1.049772672304511,-1.4901633005626498,-5.331636921799182
1772702007443161600,2.49816162109375,1.2653484368741512,-1.037557772245258,-4.445832576423883
1772702007453211000,2.5082109375,1.4442659111320972,-0.46487990347892044,-3.0948043364375826
1772702007463259600,2.518259765625,0.6339180810183286,-0.4144606527097523,-2.1057401075959206
1772702007473309000,2.528308837890625,-0.629653993833065,-0.6444336298137903,-1.5561375555992125
1772702007483359000,2.53835888671875,-0.7749895164847374,-0.8556931386195122,-1.6273521955072878
1772702007493407700,2.54840771484375,-0.9103916741430759,-1.5762056533768771,-1.7165151645600796
1772702007503456800,2.558456787109375,-1.3534025679022073,-2.3871774606078864,-1.5436901619583367
1772702007513505800,2.568505859375,-1.3971429254293442,-2.4558166970700026,-1.598977749416232
1772702007523554800,2.578554931640625,-1.4896499442130327,-1.7848419740721582,-2.387754383713007
1772702007533603600,2.588603515625,-1.179700197944045,-1.1276268963575362,-2.490224578106403
1772702007543653600,2.598653564453125,-0.5212725295692682,-0.4515852453589439,-2.2832038759142157
1772702007553703000,2.608702880859375,0.24070319156348705,0.2852878909602761,-2.1484218959808348
1772702007563751700,2.618751708984375,0.9993749027147889,0.8243710947692394,-2.1283049906253813
1772702007573800700,2.62880078125,1.6064871021330356,0.9338628583624958,-2.4177689982265234
1772702007583849700,2.638849609375,1.5581588322937487,0.7550564432635903,-2.8205326372712847
1772702007593899800,2.648899658203125,1.048871924072504,0.47755409161299467,-2.929149079334736
1772702007603948800,2.65894873046875,0.7010843223184346,0.2845385338976979,-2.5642425849974155
1772702007613997800,2.668997802734375,0.6533215774074197,-0.08772884459644556,-2.1330600761979817
1772702007624046800,2.679046875,1.0483654358550905,-0.5751347603991628,-1.28717097710371
1772702007634095600,2.689095703125,1.2757567259028553,-0.39293987190574403,-0.7655331213533878
1772702007644145700,2.699145751953125,0.9263169730275869,0.4912056003466248,-0.8126841641068459
1772702007654195000,2.70919482421875,0.6025260406717657,1.2744571876116095,-0.7976081755280494
1772702007664243700,2.71924365234375,0.07848813804239034,1.643464687526971,-1.0985586227834223
1772702007674292700,2.729292724609375,-1.160660566431284,1.9525898195400833,-1.4137035996079443
1772702007684341800,2.739341796875,-2.7071733845949173,2.4394011304505168,-1.4012661428391933
1772702007694391800,2.749391845703125,-3.428785531157255,2.459784431657195,-1.6633377011239527
1772702007704440800,2.75944091796875,-4.005443847861886,1.9136526245109735,-1.897373251491785
1772702007714489600,2.769489501953125,-4.338534231221676,1.2932194634877145,-1.5930892758995294
1772702007724539000,2.779538818359375,-4.134861670413613,0.7805301994770765,-0.8376070084393024
1772702007734587600,2.789587646484375,-4.776288519626855,1.0656991402328013,-0.35790275305509567
1772702007744637700,2.7996376953125,-4.7602661901086565,1.4954918021090329,1.0155828179329633
1772702007754686700,2.809686767578125,-5.019751239031553,2.535246207615733,4.049818996161222
1772702007764735700,2.81973583984375,-7.2429153645247215,3.556879996150732,6.5581812885046
1772702007774784800,2.82978466796875,-9.075861444291473,3.666667235559225,8.118077904376387
1772702007784833800,2.839833740234375,-11.27090305262804,3.523964107237756,9.932653045672177
1772702007794883800,2.8498837890625,-12.667957130730152,3.197461577835679,11.660701996159553
1772702007804932900,2.859932861328125,-12.73099664748907,3.2862259029597043,13.039573936361073
1772702007814981600,2.869981689453125,-11.892233454751967,3.3189711114808915,13.093526475822925
1772702007825031000,2.880031005859375,-10.211187078458071,3.538750465220213,12.15911095201373
1772702007835079700,2.89007958984375,-8.611540636000036,3.49822848521769,11.657938376665115
1772702007845128700,2.900128662109375,-6.910515886038541,2.7108953277274965,11.36223225980401
1772702007855178800,2.9101787109375,-5.111014979755878,2.084578661623597,10.031113419902324
1772702007865227800,2.920227783203125,-4.0346658506929876,1.5256794351018965,8.703305896505713
1772702007875276800,2.93027685546875,-2.948580340513587,1.2734260909982025,7.443508664017915
1772702007885325600,2.94032568359375,-2.1319512381732464,1.440392869091034,6.399839569285511
1772702007895374800,2.950374755859375,-1.4846020131736992,1.7410459408350287,5.579572987225651
1772702007905425000,2.9604248046875,-0.6135200206339358,1.9849432522647081,4.675546756461262
1772702007915473700,2.9704736328125,0.28149229806959625,1.918418815999478,3.992670291006565
1772702007925522700,2.980522705078125,1.1446592797011137,1.602292719183117,3.2986540073782202
1772702007935571700,2.99057177734375,2.2560861518859863,1.052029219059646,2.1354133613258597
1772702007945620700,3.000620849609375,3.6343981201171873,0.5735074514582753,0.43591888967156406
1772702007955670800,3.0106708984375,5.137928121122718,0.16847689039483665,-1.2653256405204534
1772702007965719800,3.0207197265625,6.7995695397228,-0.2616232299953699,-2.7379923012286422
1772702007975768800,3.030768798828125,8.499285545173286,-0.6915098537653684,-3.740765321949124
1772702007985817600,3.040817626953125,10.632074403214453,-1.235767099211365,-5.02926900896132
1772702007995867000,3.050866943359375,12.529604306572676,-1.6711819848835467,-6.018795010095834
1772702008005917000,3.0609169921875,13.169654606735705,-2.3989584992945194,-6.635118982234597
1772702008015965700,3.070965576171875,13.465011179506778,-3.084097648984194,-7.559051690474152
1772702008026014700,3.0810146484375,13.598873706507682,-3.288363791771233,-8.347863396084309
1772702008036063700,3.091063720703125,13.181887480843066,-2.9633091230899096,-8.751542980930209
1772702008046112800,3.10111279296875,12.496088990461825,-2.213180637747794,-8.562759946218133
1772702008056162800,3.111162841796875,12.23790800987482,-1.8205944015853106,-7.950033121788501
1772702008066211600,3.121211669921875,12.174207983380555,-1.6441590995319186,-7.391470433744788
1772702008076260900,3.1312607421875,11.232565430927275,-1.6831863109320402,-7.036682013317942
1772702008086309600,3.1413095703125,9.981446594935655,-1.8884039092250167,-6.907879692316055
1772702008096358700,3.151358642578125,9.20126593954861,-2.0550031691797077,-6.862441298699379
1772702008106409000,3.161408935546875,8.613971078017354,-2.0511673904091117,-6.657927026370167
1772702008116457700,3.171457763671875,8.067693871051073,-1.9122398351036012,-6.385018432250619
1772702008126506800,3.1815068359375,7.427128022581338,-1.8461738101303575,-6.001624679586291
1772702008136555800,3.1915556640625,6.972688556835055,-1.9016351467199621,-5.5921004603654145
1772702008146604800,3.201604736328125,6.537734712803363,-1.8762911543659864,-5.106532865905762
1772702008156654800,3.21165478515625,6.289995046731829,-1.8009698097914457,-4.638211005279421
1772702008166703600,3.22170361328125,5.920694701349735,-1.6627442652754485,-4.419067319095134
1772702008176753000,3.2317529296875,5.5749780606508255,-1.5156049080722034,-4.281816903221607
1772702008186801700,3.2418017578125,5.254194785678386,-1.449388514842838,-4.145880492556095
1772702008196850700,3.2518505859375,5.079213481825589,-1.519587255706638,-3.96804204570651
1772702008206900700,3.261900634765625,4.954246208941936,-1.5953079748623071,-3.8881899258345363
1772702008216949800,3.27194970703125,4.686935580959916,-1.726369034576416,-3.6959558738857505
1772702008226998800,3.281998779296875,4.3755543405830855,-1.851234600651264,-3.385398224851489
1772702008237047600,3.292047607421875,4.199810820186138,-1.7745812768206,-2.8672984800994397
1772702008247096800,3.302096923828125,3.9191748466849323,-1.6328250739604233,-2.113865546384454
1772702008257145900,3.312145751953125,3.4373838481545445,-1.401160052116215,-0.9277180719971656
1772702008267195600,3.322195556640625,2.6831366754472254,-1.0879743926659227,0.7791998276561498
1772702008277245000,3.332244873046875,0.8758557828128337,-0.8623968740418553,3.320561303281784
1772702008287293700,3.342293701171875,-2.3357050475239753,-0.6882873845875263,7.007105790221691
1772702008297342700,3.3523427734375,-6.426780767703056,-0.5396311930805444,10.791641864836215
1772702008307392000,3.36239208984375,-9.94855671724677,0.5990174480289221,14.134443056976794
1772702008317441800,3.37244189453125,-12.64095455751419,2.884562041850388,16.653731232482194
1772702008327490800,3.38249072265625,-14.04091955462694,5.165583605289459,17.864454929721354
1772702008337539600,3.39253955078125,-14.208812946045398,6.450504757639766,17.622850989925862
1772702008347588900,3.4025888671875,-14.245460130441188,7.025517060703039,16.6502848914206
1772702008357638000,3.412637939453125,-13.013729885530472,7.5640043444454665,14.747272172737121
1772702008367687700,3.422687744140625,-9.451641214820743,7.653903226557373,11.423315966320038
1772702008377736700,3.43273681640625,-6.339550228017568,6.71956135250628,8.573611010578274
1772702008387785700,3.44278564453125,-4.9962330008000135,5.407507863080501,7.16684393223524
1772702008397834800,3.452834716796875,-3.9558971421435474,4.373405930377543,5.829875197261572
1772702008407883800,3.4628837890625,-2.277458902521431,3.579697684897482,3.996273283934593
1772702008417933800,3.472933837890625,-0.5986927461192012,2.6573791338562964,1.9742741203427314
1772702008427983600,3.482983642578125,0.7672846411958336,1.8289859439641236,0.2722714652597904
1772702008438032600,3.49303271484375,1.5532114390194416,1.1768965387001633,-1.0439502497613429
1772702008448081400,3.503081298828125,2.0256153082624078,0.3693511987864971,-2.191272611191869
1772702008458130700,3.513130615234375,2.3053455650955437,-0.3786518188342452,-3.1157506783545017
1772702008468180500,3.523180419921875,2.3271724892392753,-0.8744581909745931,-3.6822307153940197
1772702008478229500,3.5332294921875,1.9571137267053127,-1.0811518531695008,-3.884869256979227
1772702008488278500,3.543278564453125,1.249283437258005,-1.1896636658146977,-3.505284833469987
1772702008498327600,3.55332763671875,0.5863648872047662,-1.3764613719284533,-2.8934382990062235
1772702008508376600,3.56337646484375,0.218300805619359,-1.6338045865170656,-2.569285839861631
1772702008518426400,3.57342626953125,0.036873978888988496,-1.723264784950763,-2.8311750273168084
1772702008528475600,3.5834755859375,-0.09631780924350022,-1.4529445998892188,-3.253581524464488
1772702008538524700,3.593524658203125,-0.23942688801735637,-1.1833284714438022,-3.5879759761601684
1772702008548573400,3.603573486328125,-0.40143706661611794,-1.0809123453252016,-3.790253867739439
1772702008558622700,3.613622802734375,-0.6914063933908939,-1.0760793722108006,-3.8537767841011283
1772702008568672500,3.623672607421875,-0.9657190090894698,-1.0791685703977942,-3.5745664594888686
1772702008578721500,3.633721435546875,-1.298383568252623,-1.0078767736002803,-3.2269571369111536
1772702008588770600,3.6437705078125,-1.5206602917656302,-0.8594736800715327,-2.941172694605589
1772702008598819600,3.653819580078125,-1.5932427128955722,-0.6672273531630635,-2.674614346295595
1772702008608868600,3.66386865234375,-1.4816077997937798,-0.44514176830798385,-2.606497672402859
1772702008618918400,3.67391845703125,-1.1624454040214418,-0.3574056171879172,-2.813639955148101
1772702008628967400,3.683967529296875,-0.7477639481678605,-0.4622670906320214,-3.187261670860648
1772702008639016700,3.6940166015625,-0.4137561577022075,-0.6533177780151367,-3.4528543890088796
1772702008649065500,3.7040654296875,-0.19459405907839536,-0.8216580364182591,-3.698514326196909
1772702008659114500,3.714114501953125,0.0416685196891427,-1.0483414704576135,-3.9346524018019435
1772702008669164500,3.72416455078125,0.28012042519450187,-1.273998484058678,-4.14941451190114
1772702008679213600,3.734213623046875,0.6261655671954155,-1.4117095031812785,-4.239357817676663
1772702008689262600,3.7442626953125,0.7793781068325042,-1.4331611642718314,-4.289102384054661
1772702008699311600,3.7543115234375,0.874376357910037,-1.5127449885964392,-4.215197189888358
1772702008709360600,3.764360595703125,0.8550947343349456,-1.6145143412441014,-4.180608691588044
1772702008719410400,3.774410400390625,1.0232423927754164,-1.8532143762916324,-4.124377685800194
1772702008729459500,3.78445947265625,0.6825161077097058,-2.03957047611773,-3.7368349967628713
1772702008739508700,3.7945087890625,0.17656009747684,-1.8544041705980896,-3.3033179075360297
1772702008749557500,3.8045576171875,-0.30117081200778484,-1.331923726543784,-2.828139605143666
1772702008759606500,3.8146064453125,-1.2104974872678518,-0.5794830187365413,-2.0961258915543555
1772702008769655600,3.824655517578125,-2.2397551948100327,0.384148370423913,-0.9571195230484009
1772702008779705600,3.83470556640625,-3.3722111187592145,1.2165204008191823,0.14754501539468765
1772702008789754600,3.844754638671875,-4.5817128729879855,1.9106620643928647,1.0436381150722502
1772702008799803400,3.854803466796875,-5.2887388603150844,2.3355039719939232,1.7112538830310104
1772702008809852700,3.864852783203125,-5.686018514990806,2.4076678754508496,2.449619595995545
1772702008819901400,3.8749013671875,-6.614381899154186,2.8290374307662245,4.619889751169085
1772702008829951500,3.884951416015625,-7.594551458400487,3.0418647734105586,7.061639344441891
1772702008840000500,3.89500048828125,-7.979899267742037,3.4269890031293033,8.808026500174403
1772702008850049500,3.905049560546875,-9.766634215953946,5.462012191206217,11.922581831264495
1772702008860098600,3.9150986328125,-12.213879484033583,6.758117000871897,15.97235991089344
1772702008870147600,3.925147705078125,-13.977288501715659,7.585748558741807,18.65994012174606
1772702008880197600,3.93519775390625,-14.78585996980667,8.3345053173393,19.89394064967632
1772702008890246700,3.94524658203125,-14.887216065478324,8.286385137292742,20.395362231349942
1772702008900295400,3.95529541015625,-14.609348387646675,7.77489165893793,20.222175409698487
1772702008910344700,3.9653447265625,-14.13249543004036,7.281649876588583,19.14829179396629
1772702008920393500,3.9753935546875,-13.414022166025637,6.746254713642597,17.356058832859993
1772702008930443500,3.985443603515625,-12.443127800124882,6.115456225949526,15.605523325276375
1772702008940492500,3.995492431640625,-11.259741022622585,5.173181220811605,13.324789054346084
1772702008950541600,4.00554150390625,-9.470644605976343,4.266374711678922,10.90351467834711
1772702008960590600,4.015590576171875,-7.205212533596158,3.1201652799263595,8.424026598310471
1772702008970639400,4.025639404296875,-4.749132801675796,2.0917299946829675,5.776142438030242
1772702008980689400,4.035689453125,-2.1606308046907183,1.0989569744512437,3.37071795759201
1772702008990738700,4.04573876953125,0.9485931022435427,0.1593473891302943,1.0561229181140661
1772702009000787500,4.055787353515625,4.459297622674703,-0.6243059108033776,-1.103669682186842
1772702009010836500,4.06583642578125,8.256293365889787,-0.9532201775223016,-2.7987206184357403
1772702009020885500,4.075885498046875,11.188211909937857,-1.2808797680050135,-3.973697294989228
1772702009030935600,4.085935546875,12.501574143874645,-1.7353323854938147,-4.716834460139275
1772702009040984600,4.095984619140625,13.49990246014595,-2.0571727683037517,-6.175874746555089
1772702009051033600,4.10603369140625,14.523289229828118,-2.3402004592470824,-7.49801533023119
1772702009061082600,4.11608251953125,15.616462067919969,-2.6088515420526264,-7.608904977923631
1772702009071131400,4.12613134765625,16.46716236668825,-2.523403501869738,-7.559063380911946
1772702009081181400,4.136181396484375,16.612306166160106,-2.3634072934418917,-7.15354722828865
1772702009091230700,4.146230712890625,17.045676540392638,-2.2820073596060273,-6.500122482767701
1772702009101279500,4.156279541015625,17.241017910706997,-2.254802395685762,-5.706903482109308
1772702009111328500,4.16632861328125,17.511702983558177,-2.1465467497587203,-5.154481196516752
1772702009121377500,4.17637744140625,17.162970209908483,-1.9532628964960574,-4.596794999046623
1772702009131427600,4.186427490234375,16.328990744316577,-1.860552464094758,-4.050405856138467
1772702009141476600,4.1964765625,15.31410409195423,-2.081098710553348,-3.5961464231342073
1772702009151525400,4.206525390625,13.900737176954745,-2.2664751516923305,-3.584610299119353
1772702009161574700,4.21657470703125,12.285530177271365,-2.169758990781009,-3.7031098372936246
1772702009171623400,4.22662353515625,10.794824002003669,-1.8840318316206335,-3.8103105673402546
1772702009181673500,4.236673583984375,9.509573763829469,-1.9332237325519321,-3.881661400848627
1772702009191722800,4.24672265625,8.489888186752795,-2.203902375662327,-3.6740462398946283
1772702009201771500,4.256771484375,7.845828066426515,-2.4129729961216446,-3.5708272729605435
1772702009211820500,4.266820556640625,7.384087922278046,-2.568097799120843,-3.6166055660560725
1772702009221869600,4.27686962890625,6.896841580951214,-2.723285730484128,-3.6499016864582896
1772702009231919600,4.286919677734375,6.7071753336638205,-2.8559400507390498,-3.761359197166562
1772702009241968600,4.29696875,6.530378504821658,-3.0194027662336826,-3.9347681371361016
1772702009252017400,4.307017333984375,6.569358516079187,-3.1405621712669727,-4.196822452025115
1772702009262066700,4.317066650390625,7.055449842151999,-3.578952419488132,-4.590984851463139
1772702009272115500,4.327115478515625,7.130035419797897,-3.898057824376225,-4.771887069797516
1772702009282165500,4.33716552734375,7.192706103244423,-3.9952047779202458,-4.712404953259229
1772702009292214500,4.347214599609375,7.322309803757071,-3.941199631488323,-4.526523485207558
1772702009302263600,4.357263671875,7.727410945838689,-3.828814192280173,-4.361863084360957
1772702009312312600,4.3673125,8.193074400910735,-3.6752550311625,-3.977065894639492
1772702009322361300,4.377361328125,8.494295481801032,-3.5564942117035385,-3.493758061805367
1772702009332411600,4.38741162109375,8.405808804574608,-3.4151775693044066,-3.266617531648278
1772702009342460700,4.397460693359375,8.527967449778318,-3.257802357029915,-2.9286259322434662
1772702009352509400,4.407509521484375,7.826502603709697,-3.142913995090127,-3.020149785208702
1772702009362558700,4.417558837890625,6.874529211378097,-2.7081945443361994,-2.805578813767433
1772702009372607500,4.427607421875,5.909162668988109,-1.9356109199494123,-2.2371885591924188
1772702009382657500,4.437657470703125,4.130843082422018,-1.2230310978874563,-1.6060691689819098
1772702009392706600,4.44770654296875,1.6642057161301373,-0.7546025620162486,-0.4108358863413334
1772702009402755600,4.457755615234375,-1.045349010643363,0.18574264410287142,1.1549228995621204
1772702009412804600,4.4678046875,-3.913575126981735,1.5802397311985492,3.09143339869976
1772702009422853000,4.47785302734375,-7.38281249551475,2.973007802544534,5.406253479105234
1772702009432903200,4.487903076171875,-12.319628846228122,4.410204798203707,8.75417040682435
1772702009442952200,4.4979521484375,-18.201316063791513,6.6877019869089125,12.087827338522672
1772702009453001200,4.508001220703125,-19.75561471352577,7.745559765991568,16.257096889972686
1772702009463050200,4.51805029296875,-19.945273362028598,7.337929982215166,18.70749916077852
1772702009473099300,4.528099365234375,-18.733260209500788,6.756590229696035,15.185878694057463
1772702009483149300,4.5381494140625,-14.951801058113574,5.891607723075151,11.397936025869846
1772702009493198000,4.548197998046875,-10.88755138553977,5.557639387837052,8.306520747348666
1772702009503247400,4.558247314453125,-8.273903256860375,4.75709778920561,6.150629246139526
1772702009513296100,4.568296142578125,-7.2730942296892405,4.013755749133229,4.462504309761524
1772702009523345200,4.57834521484375,-7.311244804385304,3.8448783151134847,2.9249422752946614
1772702009533395200,4.588395263671875,-6.409572443270683,4.1824546117156745,2.7266075683832165
1772702009543444200,4.5984443359375,-5.761466846945882,4.616734209747612,2.549623692536354
1772702009553493200,4.6084931640625,-4.880466686981916,4.710937803316116,2.459609075090289
1772702009563542000,4.6185419921875,-3.5895717209190128,3.6755446617588396,2.2091209870934487
1772702009573591300,4.62859130859375,-2.302528754109144,2.093823752091825,1.6819740125328302
1772702009583641300,4.638641357421875,-0.7343091310501099,0.515709634745121,1.1555606129437683
1772702009593690000,4.648690185546875,0.5771808792740106,-0.9247598067134618,0.6478899077475071
1772702009603739100,4.6587392578125,1.4688327816337345,-1.8745880037099123,0.199430685454607
1772702009613788200,4.6687880859375,2.0151649336576463,-2.3178084485664963,-0.29911329495608807
1772702009623837200,4.678837158203125,1.8165473181515932,-2.4167411164835095,-0.7468640767186879
1772702009633887200,4.68888720703125,1.2192343359529971,-1.9428999079138038,-1.0675193413972854
1772702009643936300,4.698936279296875,0.714827016466856,-1.2738321875810623,-1.395630182778835
1772702009653985300,4.7089853515625,0.6031161155194044,-1.0065145453363658,-1.4936802226424217
1772702009664034000,4.719033935546875,0.4020055141538381,-0.7450801159113645,-1.4147849651038646
1772702009674083300,4.729083251953125,0.1828875469326973,-0.5469029376491904,-1.5854717866331338
1772702009684133400,4.73913330078125,0.39170506941378114,-0.6282821209579705,-1.8468623769164085
1772702009694182100,4.74918212890625,0.6387310342580079,-0.9168965259924531,-2.1568407647579906
1772702009704231200,4.759231201171875,0.8927274226367473,-1.1993939094513655,-2.486748426428437
1772702009714280200,4.7692802734375,1.2349766794860362,-1.4019626006707548,-2.8054344368606805
1772702009724329200,4.7793291015625,1.619341907531023,-1.5053887806147337,-3.0895027228981253
1772702009734379300,4.789379150390625,1.9181489130169151,-1.5925252122759819,-3.1463252648383375
1772702009744428000,4.799427978515625,2.1486860998749733,-1.5877788945317268,-3.1560166377693415
1772702009754477300,4.809477294921875,2.4526316372931003,-1.5632508947357535,-3.161414697420597
1772702009764526000,4.819526123046875,2.8017735762655733,-1.5551517594322561,-3.0550662002891302
1772702009774575400,4.829575439453125,3.0623680477350947,-1.3958219059586525,-2.9390473730146884
1772702009784625400,4.83962548828125,2.935302925789356,-0.9861489259168505,-2.919758150655031
1772702009794674200,4.849674072265625,3.4722523324400183,-0.5442766807988285,-2.3581214619934556
1772702009804723200,4.85972314453125,3.3301071302622556,-0.07614362074285745,-2.228669152650237
1772702009814772200,4.869772216796875,2.623586169847846,0.3953267670422792,-1.5026988108783959
1772702009824821200,4.8798212890625,1.6794915480673311,0.468261947132647,-0.5801169327259064
1772702009834871300,4.889871337890625,0.7313245622813701,0.1813815262839198,0.05095861834287643
1772702009844920000,4.899920166015625,-0.34553602343499656,-0.2324324990853667,0.9668015436291694
1772702009854969300,4.90996923828125,-1.472397780638933,-0.37567718693763014,1.428570329350233
1772702009865018000,4.92001806640625,-2.740990314000845,-0.05955255142599344,2.2151579291701315
1772702009875067100,4.930067138671875,-4.413955090647936,0.8593746036112307,4.2045547998428345
1772702009885117200,4.9401171875,-7.356258250588178,2.1207117590174076,6.744445618394017
1772702009895166200,4.950166259765625,-12.148868959462641,4.093858921156824,9.444006189897657
1772702009905215200,4.96021533203125,-17.731871336615086,6.1905059139758345,12.49052317302823
1772702009915264300,4.97026416015625,-23.14287230250835,7.196397358977794,14.903943912917375
1772702009925313300,4.980313232421875,-26.36596341164112,6.600328823882341,15.792399649584292
1772702009935363300,4.99036328125,-26.100223393976687,4.183098754838109,15.342724621760844
1772702009945412000,5.000412109375,-23.32553539303541,1.1641196208439766,14.704813671714067
1772702009955461400,5.01046142578125,-20.342226853489876,-1.6243403003402053,13.564195191836356
1772702009965510100,5.02051025390625,-18.313063789618013,-2.4188584008984266,10.619018522286414
1772702009975559200,5.03055908203125,-17.847730589413644,-0.4965324944578111,8.747732482731342
1772702009985609200,5.040609130859375,-16.417896523737905,0.48657604084983463,7.657868623057007
1772702009995658200,5.050658203125,-13.888141899275778,0.8020152513805776,6.203559456816316
1772702010005707300,5.060707275390625,-9.98336031960249,0.8945429476261139,4.9356882234662764
1772702010015756000,5.070756103515625,-5.2452410793721675,1.3712407146707177,3.652309916643798
1772702010025805300,5.080805419921875,-0.4837485623389482,2.140338250507414,2.437471185301244
1772702010035855400,5.09085546875,4.824727848625183,2.927168134650588,0.7679922049432992
1772702010045904100,5.100904052734375,10.699696571588516,2.623519534352422,-3.2187890280246734
1772702010055953200,5.110953125,13.86242059804201,1.4571487735807895,-5.559008922624588
1772702010066002200,5.121002197265625,16.012932744300365,0.6367333576347679,-5.146834481155872
1772702010076051200,5.13105126953125,16.805414662855863,1.0645802192054687,-3.435870520982146
1772702010086101200,5.141101318359375,16.782614802026746,2.1103752200506625,-1.2636949705787002
1772702010096150300,5.151150390625,15.510933654999732,3.553149577450752,0.2967323911689222
1772702010106199300,5.16119921875,14.019667507761715,4.098834663742781,1.5921026029497385
1772702010116248000,5.171248046875,18.02938128802776,4.079259610179067,3.654327393946051
1772702010126297300,5.18129736328125,23.683047685468196,2.852688647727668,3.5000182912439106
1772702010136347400,5.191347412109375,23.97144377157688,2.910116462084651,0.1363334471590817
1772702010146396200,5.201396240234375,21.826954538869856,2.725525033843517,-1.7077692557856439
1772702010156445200,5.211445068359375,20.89340293841362,-1.6960330791540443,-1.375451318103075
1772702010166494200,5.221494140625,20.197875665700433,-3.0034920803964136,-1.8239932502433656
1772702010176543200,5.231543212890625,15.83418010521531,-1.424288121986389,-2.890584078618884
1772702010186593300,5.24159326171875,12.527851909947394,0.09507248535752295,-1.5683622464001177
1772702010196642000,5.25164208984375,10.264961923265457,1.0696867485642432,-0.5387880202546715
1772702010206691300,5.26169140625,8.004469645375012,0.8817082351680845,0.25331863524764775
1772702010216740000,5.271739990234375,6.5663458902597425,0.4806868366807699,0.461312858647108
1772702010226789000,5.2817890625,6.388564726555347,0.23826398171782492,-0.22386399270445106
1772702010236839200,5.291839111328125,6.368257851585746,-0.046180444155633445,-1.3026289507374167
1772702010246888200,5.30188818359375,5.958315699213743,-0.1407210145935416,-2.1326687387928365
1772702010256937200,5.311937255859375,5.458285864159465,-0.18006328329220414,-2.8118387509450313
1772702010266986200,5.321986328125,5.1619999015837905,-0.4292985947489738,-3.4342627935245633
1772702010277035300,5.33203515625,4.892449385720491,-0.7811020080156624,-4.3974049378633495
1772702010287085300,5.342085205078125,5.091385565656423,-1.153468901361525,-5.34424915061295
1772702010297134000,5.352134033203125,5.911856730377674,-1.4812224537380039,-5.5586628856658935
1772702010307183400,5.362183349609375,6.602783231297135,-1.9593185432732103,-5.4355099687278265
1772702010317232000,5.372232177734375,6.9721151408612725,-2.3672246597729623,-4.752448794355988
1772702010327281200,5.38228125,7.3569327888488765,-2.326517386331409,-3.6720825386062264
1772702010337330400,5.392330322265625,7.773795095872878,-2.148169674785435,-3.2814208407655356
1772702010347380200,5.402380126953125,8.168304701313376,-2.08995363266021,-3.279471460263431
1772702010357429200,5.41242919921875,8.55339999719858,-2.1245352628283203,-3.3296018110886214
1772702010367478000,5.42247802734375,8.683269655171037,-2.035011205378175,-3.2476685010284183
1772702010377527300,5.43252734375,8.506112176322937,-1.8470571688361466,-3.1010040678605435
1772702010387577300,5.442577392578125,7.848853551727533,-1.5231062236130237,-2.9381366879105566
1772702010397626000,5.452626220703125,6.842572815147042,-1.212906594236195,-2.7270000748321412
1772702010407675400,5.46267529296875,5.590624542593956,-0.9516599424682557,-2.145515653145313
1772702010417724200,5.47272412109375,4.3809471395373345,-0.6683866062007844,-1.3743103313744067
1772702010427773000,5.48277294921875,3.2991321462839838,-0.11786825453341007,-0.6575649140655994
1772702010437822200,5.492822265625,1.7729197733491657,0.52554918397516,-0.026684008786082267
1772702010447872000,5.5028720703125,-0.741981565374136,1.1117295083932577,0.8819061688929796
1772702010457921000,5.512921142578125,-3.8372710549801585,1.5383030620925127,2.168063585039973
1772702010467969800,5.5229697265625,-6.677963852226734,2.123823315166682,3.5479847420334814
1772702010478019000,5.53301904296875,-9.49168622496128,3.2398651338011026,5.246307247298955
1772702010488069000,5.543069091796875,-12.056494627147913,4.335846015051007,7.039291903555393
1772702010498118000,5.553117919921875,-13.088698325014114,5.040475462630391,8.554756087982653
1772702010508167000,5.5631669921875,-12.043525255459546,5.419565965142846,9.4112677033782
1772702010518216000,5.5732158203125,-11.181910763967037,5.393643003857135,10.60438677034378
1772702010528265000,5.583264892578125,-11.874591415077447,6.095169809246062,12.936304116022587
1772702010538315000,5.59331494140625,-12.43641865787506,6.73004124546647,14.806602313584088
1772702010548364000,5.603364013671875,-12.12149463032484,7.248091305857896,14.13301682356596
1772702010558413000,5.6134130859375,-11.018407131940126,7.278425653845072,9.297746538138389
1772702010568461800,5.6234619140625,-9.582719664061068,6.757852796977758,6.140989895656705
1772702010578511000,5.633510986328125,-8.752412164980173,5.487719463914632,4.614868123614788
1772702010588561200,5.64356103515625,-7.266351185169816,4.38408836017251,3.1566607808917757
1772702010598610000,5.65360986328125,-5.346528785982728,3.8046763608455656,2.025277746871114
1772702010608659000,5.663658935546875,-3.4631028113007543,3.233754834227264,1.2506067948162556
1772702010618708000,5.6737080078125,-2.1120997057557105,2.342253738515079,0.9641747022569179
1772702010628757000,5.683757080078125,-0.9791536602020263,1.3564216234624384,0.9932926601916551
1772702010638807000,5.69380712890625,-0.1864911243826151,0.4348422003507614,1.004246015882492
1772702010648855800,5.703855712890625,0.12473054151833057,-0.15863456468582152,0.6905459771692752
1772702010658905000,5.713905029296875,0.3257353444218635,-0.2824889078915119,0.1927344026863575
1772702010668955100,5.723955078125,0.37912206669449805,-0.4136848460316658,-0.2558493227690458
1772702010679004000,5.73400390625,0.2557499540477991,-1.0407675280719995,-0.21612170801460742
1772702010689053200,5.74405322265625,0.09698270289301872,-1.7317025045588612,-0.2961410011470318
1772702010699102000,5.75410205078125,0.08404197277724743,-1.9509929057374595,-0.7453016497075557
1772702010709151000,5.76415087890625,0.1361924312531948,-1.4711197235271334,-1.1101906083881854
1772702010719201000,5.774200927734375,0.26691139953136445,-1.3158739244967699,-1.4423054247140883
1772702010729250000,5.78425,0.46494683123528957,-1.2378168713480233,-1.5304980874300003
1772702010739299000,5.794299072265625,0.5855208375960588,-1.0002797426000236,-1.4125041606903075
1772702010749347800,5.804347900390625,0.5520107821822167,-0.5770449779346585,-1.3610767557919026
1772702010759397000,5.814397216796875,0.3068734075635671,-0.3418029743865132,-1.3232318860441445
1772702010769447200,5.824447265625,0.13311901515722274,-0.18024667703509328,-1.385145613643527
1772702010779496000,5.834495849609375,0.243314250844717,-0.026489655257761476,-1.529773280286789
1772702010789545000,5.844544921875,0.633242373713851,0.07198825462907553,-1.5678057815611361
1772702010799594000,5.854593994140625,1.0031301635950802,0.01434387491196394,-1.3734475770652292
1772702010809643000,5.86464306640625,1.2457067478150128,-0.09971680403202772,-1.1555395701557398
1772702010819693000,5.874693115234375,1.3109341300070285,-0.08635024971961974,-1.0775731178998946
1772702010829742000,5.8847421875,1.2831021202296018,-0.020357728374004364,-1.1763631624758244
1772702010839791000,5.894791015625,1.2624994771838187,-0.01431289525181055,-1.3969278213739393
1772702010849839900,5.90483984375,1.2281933029562233,-0.02455810267329216,-1.5171423467725516
1772702010859889200,5.91488916015625,1.0573311248600483,0.05292173510938882,-1.5114870974898338
1772702010869939200,5.924939208984375,0.8492875093609095,0.22161124534159898,-1.4990817894250155
1772702010879988000,5.934988037109375,0.7648568295270204,0.3577373333603143,-1.4338655131489038
1772702010890037000,5.945037109375,0.5491127226531505,0.41869127601683137,-1.0623492452830074
1772702010900086000,5.9550859375,0.17727905940115452,0.3823851601436734,-0.5213900184690952
1772702010910135000,5.965135009765625,-0.3223088771045208,0.3090817312628031,0.05396422989964485
1772702010920185000,5.97518505859375,-1.145540738710761,0.35326135699003935,0.5199357280075549
1772702010930233900,5.98523388671875,-2.3280127394557,0.6206520644709468,1.0184434680610894
1772702010940283100,5.995283203125,-3.4341911895930766,1.067132095645368,1.828565672725439
1772702010950332000,6.005331787109375,-4.869639003497362,1.632689464882016,3.1029666001051663
1772702010960381000,6.015380859375,-6.851518922668695,2.2259119628965855,4.812992987167835
1772702010970431000,6.025430908203125,-8.586889009824395,2.6059298093870282,6.162077691870928
1772702010980480000,6.03547998046875,-10.049055903828144,2.744257206842303,7.201530045691132
1772702010990529000,6.045529052734375,-11.93307399918437,3.2933342736601827,8.579521111404896
1772702011000578000,6.055578125,-14.003690186429022,3.999772231966257,10.179218407267332
1772702011010628000,6.065628173828125,-16.084890896052123,4.538452992454171,11.58910975511074
1772702011020677000,6.075677001953125,-17.57462208880782,5.155016618567704,12.49712593229413
1772702011030726000,6.085725830078125,-18.532863893884418,5.30596121327281,12.966972810530661
1772702011040775200,6.095775146484375,-18.849459654039144,5.242397964900731,13.355744164580106
1772702011050824000,6.105823974609375,-18.390833257997034,5.690435162389278,13.470519713795184
1772702011060874000,6.1158740234375,-16.882710668504238,6.174931328225135,12.408982369416952
1772702011070923000,6.125923095703125,-14.171348600047827,6.150929690390825,10.306879157018662
1772702011080972000,6.135971923828125,-10.335544110488891,5.516583154827356,7.975465669208765
1772702011091021000,6.14602099609375,-5.391994652128219,4.819630817747115,5.561210816583037
1772702011101069800,6.15606982421875,-0.48616556035280223,4.054243826866149,3.44119726896286
1772702011111120000,6.166119873046875,3.721276777625084,3.1012726556688546,1.5753437758505344
1772702011121169200,6.176169189453125,7.125379702946543,1.600650651064515,-0.12497545619010925
1772702011131218000,6.186218017578125,9.778103119951487,-0.33109833275973793,-1.2125099961340426
1772702011141267000,6.196266845703125,11.935288168102502,-1.934635937437415,-2.529658762872219
1772702011151316000,6.20631591796875,14.504496851074695,-2.4319649891003965,-3.5905069559425113
1772702011161366000,6.216365966796875,16.932217334473133,-2.306060727627575,-4.346262195125222
1772702011171415000,6.2264150390625,18.567133243232963,-2.4529835194706915,-4.876373864710331
1772702011181464000,6.236464111328125,19.571249495255945,-3.5545714269474145,-5.479012425845861
1772702011191513000,6.24651318359375,19.727796147751807,-4.723624266409874,-5.747858592832088
1772702011201561900,6.256561767578125,19.036722931838035,-5.501148269808292,-5.211014984643459
1772702011211612000,6.26661181640625,18.693171360218525,-6.46707536869049,-4.618265072576701
1772702011221661200,6.2766611328125,17.79679652099013,-7.3410238565772765,-4.093057833907008
1772702011231710000,6.2867099609375,16.36138027126789,-7.564514047533273,-3.7574721266001463
1772702011241759000,6.296759033203125,15.264547157102822,-7.436006910085678,-4.15822647164911
1772702011251808000,6.30680810546875,14.313991814875601,-7.209482466000318,-4.852812079598009
1772702011261858000,6.316858154296875,12.960956911242008,-6.840501854091882,-5.382604892492294
1772702011271907000,6.326906982421875,12.181120539247988,-6.324609848517179,-5.284779309034347
1772702011281955800,6.336955810546875,11.557746648597716,-5.595902775257826,-4.795049334198236
1772702011292005000,6.347005126953125,10.676430262291431,-4.707202416180074,-4.4630742186039685
1772702011302054000,6.357053955078125,9.521032146432995,-3.8633880775332448,-4.206154343993962
1772702011312104000,6.36710400390625,8.404989889407158,-3.347529097445309,-3.903955357982218
1772702011322153200,6.3771533203125,7.58928608521819,-3.1041224921420216,-3.5746968078702688
1772702011332202000,6.387201904296875,7.00261257045567,-3.0363331505075095,-3.468165063126385
1772702011342251000,6.3972509765625,6.770142369708418,-3.1621403813466427,-3.405905590829253
1772702011352300800,6.40730078125,6.718705027937888,-3.22272139903754,-3.3682746560931203
1772702011362350000,6.41735009765625,6.495303684309125,-3.085575612582266,-3.4045284572571513
1772702011372399000,6.427399169921875,6.120273270842433,-2.711081497949362,-3.6900142088770864
1772702011382447900,6.43744775390625,5.632320827072858,-2.4170544202163815,-4.2063364225625985
1772702011392497200,6.4474970703125,5.257920528203249,-2.5113085749283433,-4.463613147786259
1772702011402547000,6.457546875,5.1327206156075,-2.9035210093423722,-4.203285802820325
1772702011412596000,6.467595947265625,5.155695833003521,-3.196138220277428,-3.9435429797440764
1772702011422644700,6.477644775390625,5.245278488773107,-3.3881250194668766,-3.6893478539228437
1772702011432694000,6.487694091796875,5.128571094712615,-3.3910125576019285,-3.2313661855250597
1772702011442742800,6.49774267578125,4.8588826316833496,-3.1676743423372504,-2.7547961365133524
1772702011452792800,6.507792724609375,4.4326317340672015,-2.7525542028054595,-2.4759715963482853
1772702011462842000,6.517842041015625,3.4237194799393413,-2.3743811073988677,-1.8247025675565003
1772702011472891000,6.527890869140625,1.9777204614043236,-1.944882021641731,-0.8402882103472947
1772702011482940000,6.53793994140625,0.6082943949401378,-1.1016919523730873,0.015010522127151489
1772702011492989000,6.547989013671875,-0.6496148318439722,-0.1589239030212164,0.26764380545914174
1772702011503039000,6.5580390625,-1.7620102568000553,0.6475707587957382,0.6044038172423839
1772702011513088000,6.568087890625,-2.9240315901905296,0.9273185512855648,1.2750070765793322
1772702011523136800,6.57813671875,-4.900067459508777,1.5742457514807582,2.4525953969359398
1772702011533186000,6.58818603515625,-8.648841900390385,2.604734462122619,4.439084271207451
1772702011543234800,6.59823486328125,-11.940519639015196,3.720590548926592,6.7827440771281715
1772702011553284900,6.608284912109375,-13.506558995425701,6.141746266981959,8.197692708361147
1772702011563334000,6.618333984375,-14.639191737246513,7.727852844387292,9.684498369058966
1772702011573383000,6.6283828125,-15.55647960064411,8.185085740244388,11.05767414344549
1772702011583432000,6.638431884765625,-16.33976465178728,7.559802801102399,10.880623632103203
1772702011593482000,6.64848193359375,-14.511417590248584,6.748071407675742,9.04345029003024
1772702011603531000,6.658531005859375,-12.155726570272446,5.7098401200830935,7.855667323395609
1772702011613580000,6.668580078125,-10.054631073611974,5.192069461154937,8.186451767900586
1772702011623628800,6.67862890625,-8.970764408525824,4.2274306485176085,10.127872835433482
1772702011633678000,6.688677978515625,-10.385783766907453,3.3664038937851783,7.073470067489147
1772702011643728100,6.69872802734375,-10.23063762885928,2.3558310129687188,3.262729292038083
1772702011653777000,6.70877685546875,-7.054444464501739,1.0077303508669138,2.2832775256723163
1772702011663826000,6.718825927734375,-4.4428445005238055,-1.6768889643535017,1.4427905778825283
1772702011673875000,6.728875,-2.8438392785787583,-1.797171878813207,0.4798422025501728
1772702011683924000,6.738924072265625,-0.3651894029319286,-1.7415733257099986,0.4948030403167009
1772702011693974000,6.74897412109375,1.5464894372880458,-1.847085079756379,0.4904349082350731
1772702011704022800,6.759022705078125,0.5269833084315061,-1.183249122597277,0.5533598587036133
1772702011714072000,6.769072021484375,-0.7731962033271789,-0.47903731590807436,0.6781102739661932
1772702011724120800,6.779120849609375,-0.8977046265274286,0.4716346384361386,1.0370061297118662
1772702011734169900,6.789169921875,-0.8161562241315842,1.859936962544918,1.6109703850269317
1772702011744220000,6.799219970703125,-0.2687035436451435,2.3037419292911885,2.2394588422119615
1772702011754269000,6.80926904296875,0.5510077426195145,1.8891613034635781,2.6942595424860714
1772702011764318000,6.81931787109375,0.7175333528161049,1.081733160188794,2.675216403841972
1772702011774367000,6.829366943359375,0.785756994214654,0.4577431834667921,2.598361712220311
1772702011784417000,6.8394169921875,1.1104296778410672,0.3708665717855096,2.3061633112192155
1772702011794466000,6.849466064453125,0.9204507113426923,0.38019671018868684,1.8283394627541303
1772702011804514800,6.859514892578125,0.8184703462928533,0.3422705918982625,1.2780208714425563
1772702011814564000,6.869564208984375,0.8584551506787538,0.12103402508795261,0.47028877678513525
1772702011824612900,6.87961279296875,0.88058105776906,-0.08640840964764356,-0.3135714438974857
1772702011834663000,6.889662841796875,0.9125766169667243,-0.15685440327078104,-0.8555804720252752
1772702011844712000,6.8997119140625,0.6241892986863851,-0.21967034040689468,-1.2899042014598845
1772702011854761000,6.909760986328125,0.3271118934720754,-0.17668518516123294,-1.1702701062977314
1772702011864810000,6.91981005859375,0.3103215021908283,-0.692618399529159,-0.9015601329118013
1772702011874858800,6.929858642578125,0.44074470239281655,-0.38793139609396454,-1.1303268029659985
1772702011884908800,6.93990869140625,0.6155050569713115,-0.23985388125777243,-1.5388818848937749
1772702011894958000,6.9499580078125,0.6775573162585496,-0.41644378935098647,-1.643998794403672
1772702011905006800,6.9600068359375,0.770383483994007,-0.7113084869518875,-1.5931611720919607
1772702011915055900,6.970055908203125,0.8705237741351127,-0.7873767043709754,-1.5375123501062393
1772702011925105000,6.98010498046875,0.7846300360113382,-0.7213850598081946,-1.5314192939281464
1772702011935155000,6.990155029296875,0.44333588792979717,-0.6758803229570388,-1.5078870271712541
1772702011945204000,7.000203857421875,0.09216624252200126,-0.6531131953537463,-1.4826882885068655
1772702011955253000,7.0102529296875,-0.06629530368447303,-0.5613181242316961,-1.4497078099250793
1772702011965302000,7.020302001953125,-0.10519581996500492,-0.603667027400434,-1.400854639428854
1772702011975350800,7.030350830078125,-0.23242928421497344,-0.6756485600277781,-1.4248971937954424
1772702011985400800,7.04040087890625,-0.202149881285429,-0.6345426426574587,-1.291557813885808
1772702011995450000,7.0504501953125,-0.29411504827737806,-0.5911296173885464,-1.0872411099553108
1772702012005499000,7.060498779296875,-0.20216332528889178,-0.5037997089818119,-0.9202870452135801
1772702012015548000,7.0705478515625,-0.10713058741986752,-0.3941822731822729,-0.6892261267423629
1772702012025597700,7.08059765625,0.013740940582752227,-0.16762421908825634,-0.4143587997704744
1772702012035647000,7.09064697265625,0.0644756870418787,0.02250935344994068,-0.3265396465420723
1772702012045696000,7.100696044921875,0.19108429739177227,0.010865677407383919,-0.24720307497680186
1772702012055744800,7.110744873046875,0.46853579563796516,0.10629852050989866,-0.28872166480123995
1772702012065794000,7.1207939453125,0.6744517514586448,0.09109832102954388,-0.22726912497282026
1772702012075843800,7.13084375,0.7208873394191264,-0.13470102365165948,0.06962941654324531
1772702012085892900,7.140892822265625,0.8377297580361366,-0.33331045585125685,0.28982582665085793
1772702012095942100,7.150942138671875,0.916909677734971,-0.43411826999038455,0.4023813617289066
1772702012105991000,7.160990966796875,1.032972928673029,-0.41629590531289573,0.3457306692242622
1772702012116040000,7.1710400390625,1.1513450410753487,-0.48392479568868874,0.23259295034408567
1772702012126089700,7.18108984375,1.2011994975686073,-0.4732137243211269,0.08156301544308663
1772702012136139000,7.191138916015625,1.244065410348773,-0.4028329048886895,-0.033275662136077876
1772702012146188000,7.20118798828125,1.2485258968889712,-0.2950786326125264,-0.0842956552773714
1772702012156236800,7.21123681640625,1.2278425898224115,-0.19967267751693724,-0.030088264271616934
1772702012166286000,7.2212861328125,1.1974451134711503,-0.10827098962664604,-0.024091069683432578
1772702012176336000,7.2313359375,1.1486918962180614,0.005664309372007847,0.02106850699186325
1772702012186385000,7.241385009765625,0.9950193378537893,0.1346539696395397,0.021055062988400458
1772702012196434000,7.251433837890625,0.9055570935934781,0.19954379044026135,0.04236497752070427
1772702012206483000,7.26148291015625,0.7880933282077311,0.2118272256910801,0.045298692885041236
1772702012216533000,7.271532958984375,0.6034118835955858,0.27947686659395693,0.0717079763829708
1772702012226581800,7.281581787109375,0.31246786656975745,0.41892450025081635,0.2213853276312351
1772702012236631000,7.291631103515625,0.1441524503469467,0.5029074363172054,0.36683541657328606
1772702012246680000,7.30168017578125,-0.111840664806962,0.5912056052342057,0.4686217203557491
1772702012256728800,7.311728759765625,-0.39421442188620565,0.5646282716929912,0.5911112049490213
1772702012266779000,7.32177880859375,0.6851280437737703,0.3009869798734784,0.5527975486457347
1772702012276828000,7.331827880859375,0.14743103362619875,0.48975569379925726,0.1540688642054796
1772702012286877000,7.341876953125,-0.39766427007913585,0.02997778963446617,0.4639858772486448
1772702012296926000,7.351926025390625,-0.5929127014130353,-0.49291971078813074,0.6789192522615194
1772702012306975000,7.36197509765625,-1.1301233893483877,-0.055053048049658534,0.5079968684107065
1772702012317025000,7.37202490234375,-1.2833189778506755,0.287057092589885,0.3011167437329888
1772702012327073800,7.38207373046875,-1.3232587740510702,0.3687510409362614,0.45877983303815123
1772702012337122800,7.392122802734375,-1.0822352644920348,0.38650019424706694,0.6484305904954671
1772702012347172000,7.402172119140625,-0.5279553683340549,0.374290847145766,0.6293894976779818
