time,seconds_elapsed,z,y,x
1772702005003720700,0.058720703125,-0.6152496337890625,0.2776336669921875,0.7149505615234375
1772702005013769700,0.068769775390625,-0.6129150390625,0.2733001708984375,0.710723876953125
1772702005023818800,0.07881884765625,-0.588836669921875,0.2620086669921875,0.7208404541015625
1772702005033868800,0.088868896484375,-0.5583648681640625,0.25543212890625,0.7214202880859375
1772702005043917600,0.09891748046875,-0.5577545166015625,0.23345947265625,0.699493408203125
1772702005053966800,0.108966796875,-0.574920654296875,0.248046875,0.698883056640625
1772702005064015600,0.119015625,-0.6017303466796875,0.276214599609375,0.711090087890625
1772702005074064600,0.129064697265625,-0.6195831298828125,0.2875518798828125,0.7104034423828125
1772702005084114700,0.13911474609375,-0.632598876953125,0.28436279296875,0.7061004638671875
1772702005094163700,0.149163818359375,-0.63385009765625,0.27752685546875,0.708038330078125
1772702005104212700,0.159212646484375,-0.6271514892578125,0.2700347900390625,0.7137603759765625
1772702005114261500,0.169261474609375,-0.619140625,0.27252197265625,0.73480224609375
1772702005124310800,0.179310791015625,-0.6132659912109375,0.283721923828125,0.7433319091796875
1772702005134359800,0.18935986328125,-0.613555908203125,0.2983551025390625,0.7249298095703125
1772702005144409600,0.19940966796875,-0.6176300048828125,0.311004638671875,0.7109222412109375
1772702005154459000,0.209458984375,-0.626312255859375,0.3097076416015625,0.6991424560546875
1772702005164507600,0.219507568359375,-0.624053955078125,0.3057708740234375,0.6948394775390625
1772702005174556700,0.229556640625,-0.6005401611328125,0.3013763427734375,0.7010345458984375
1772702005184606000,0.23960595703125,-0.576141357421875,0.297332763671875,0.7150726318359375
1772702005194655700,0.24965576171875,-0.5500640869140625,0.28106689453125,0.7200775146484375
1772702005204704800,0.259704833984375,-0.53729248046875,0.268524169921875,0.7275848388671875
1772702005214753500,0.26975341796875,-0.5247039794921875,0.25653076171875,0.7343597412109375
1772702005224802800,0.279802734375,-0.499847412109375,0.2509613037109375,0.73565673828125
1772702005234851800,0.289851806640625,-0.4795989990234375,0.2548828125,0.7213134765625
1772702005244900600,0.299900634765625,-0.4769134521484375,0.2687530517578125,0.6967620849609375
1772702005254950700,0.30995068359375,-0.47454833984375,0.302734375,0.6559906005859375
1772702005264999700,0.319999755859375,-0.4781646728515625,0.3031768798828125,0.6493377685546875
1772702005275048700,0.330048583984375,-0.451141357421875,0.3143768310546875,0.6321868896484375
1772702005285097700,0.34009765625,-0.4257659912109375,0.3094482421875,0.642181396484375
1772702005295146800,0.350146728515625,-0.41497802734375,0.2871856689453125,0.6708984375
1772702005305196800,0.36019677734375,-0.432830810546875,0.238739013671875,0.7027130126953125
1772702005315245600,0.37024560546875,-0.458587646484375,0.165924072265625,0.7581939697265625
1772702005325294800,0.380294921875,-0.48089599609375,0.1037750244140625,0.82635498046875
1772702005335343900,0.39034375,-0.5285186767578125,0.1121978759765625,0.862762451171875
1772702005345392600,0.400392578125,-0.576690673828125,0.19378662109375,0.8505859375
1772702005355442700,0.410442626953125,-0.60601806640625,0.303741455078125,0.8261260986328125
1772702005365491700,0.42049169921875,-0.61083984375,0.37310791015625,0.7955474853515625
1772702005375540700,0.430540771484375,-0.59686279296875,0.379058837890625,0.750274658203125
1772702005385589800,0.44058984375,-0.57958984375,0.3338623046875,0.7267913818359375
1772702005395638800,0.450638671875,-0.5419158935546875,0.256561279296875,0.7341461181640625
1772702005405687800,0.460687744140625,-0.4790802001953125,0.2022705078125,0.7139739990234375
1772702005415737900,0.47073779296875,-0.3991851806640625,0.1988983154296875,0.69366455078125
1772702005425787000,0.480786865234375,-0.3607635498046875,0.2313079833984375,0.6472320556640625
1772702005435836000,0.4908359375,-0.34539794921875,0.280364990234375,0.59375
1772702005445885000,0.500885009765625,-0.348358154296875,0.3319091796875,0.5735015869140625
1772702005455933700,0.51093359375,-0.3547821044921875,0.387725830078125,0.553741455078125
1772702005465983700,0.520983642578125,-0.3599853515625,0.4359130859375,0.540771484375
1772702005476033000,0.531032958984375,-0.3843994140625,0.4730682373046875,0.51226806640625
1772702005486081800,0.541081787109375,-0.4228057861328125,0.5030059814453125,0.484375
1772702005496130800,0.551130859375,-0.440521240234375,0.4848175048828125,0.4585723876953125
1772702005506179800,0.561179931640625,-0.4967803955078125,0.4788970947265625,0.3477325439453125
1772702005516228900,0.571228759765625,-0.667205810546875,0.41552734375,0.18634033203125
1772702005526279000,0.58127880859375,-0.8755950927734375,0.2283782958984375,-0.002899169921875
1772702005536328000,0.591327880859375,-0.9099884033203125,0.1665191650390625,-0.12872314453125
1772702005546377000,0.601376953125,-0.86981201171875,0.254302978515625,-0.096893310546875
1772702005556425700,0.61142578125,-0.6336517333984375,0.3473052978515625,0.0540618896484375
1772702005566475000,0.62147509765625,-0.3194580078125,0.4195098876953125,0.2738037109375
1772702005576525000,0.631525146484375,-0.2521209716796875,0.48345947265625,0.5367584228515625
1772702005586573800,0.64157373046875,-0.5120849609375,0.515594482421875,0.8450469970703125
1772702005596622800,0.651622802734375,-0.77166748046875,0.5090484619140625,1.1929779052734375
1772702005606672000,0.661671875,-0.7899627685546875,0.54278564453125,1.312652587890625
1772702005616721000,0.671720947265625,-0.8145599365234375,0.661041259765625,1.2404022216796875
1772702005626771000,0.68177099609375,-1.1562347412109375,0.694854736328125,1.3693695068359375
1772702005636819700,0.69181982421875,-1.4958953857421875,0.67413330078125,1.2346649169921875
1772702005646869000,0.701868896484375,-1.5832977294921875,0.6953582763671875,1.130035400390625
1772702005656917800,0.711917724609375,-1.73431396484375,0.802490234375,1.2342376708984375
1772702005666967000,0.721967041015625,-1.825958251953125,0.8785247802734375,1.3474884033203125
1772702005677017000,0.73201708984375,-1.9251861572265625,0.829315185546875,1.38983154296875
1772702005687065900,0.74206591796875,-2.0680084228515625,0.7422637939453125,1.4861907958984375
1772702005697115000,0.752114990234375,-2.103973388671875,0.68682861328125,1.65765380859375
1772702005707164000,0.762163818359375,-2.0055694580078125,0.7794189453125,1.8834686279296875
1772702005717213000,0.772212890625,-1.877105712890625,0.912567138671875,2.024749755859375
1772702005727262000,0.782261962890625,-1.88372802734375,0.961334228515625,2.127838134765625
1772702005737311700,0.792311767578125,-1.9017181396484375,0.9476165771484375,2.2117767333984375
1772702005747361000,0.802361083984375,-1.807769775390625,0.9376983642578125,2.2569580078125
1772702005757409800,0.812409912109375,-1.572601318359375,0.967498779296875,2.2007293701171875
1772702005767458800,0.822458740234375,-1.215240478515625,0.933624267578125,1.9602508544921875
1772702005777508000,0.832508056640625,-0.9069671630859375,0.813507080078125,1.569610595703125
1772702005787558000,0.842557861328125,-0.719268798828125,0.638641357421875,1.1523590087890625
1772702005797607000,0.85260693359375,-0.5634765625,0.4911041259765625,0.761199951171875
1772702005807656000,0.862656005859375,-0.3952484130859375,0.401947021484375,0.459228515625
1772702005817705000,0.872705078125,-0.2601470947265625,0.211273193359375,0.295745849609375
1772702005827754000,0.88275390625,-0.1426849365234375,-0.021484375,0.11871337890625
1772702005837803800,0.8928037109375,0.0032806396484375,-0.0862884521484375,-0.0244140625
1772702005847853000,0.90285302734375,0.1574249267578125,-0.044219970703125,-0.1341552734375
1772702005857901800,0.91290185546875,0.234283447265625,-0.04132080078125,-0.201751708984375
1772702005867950800,0.922950927734375,0.285552978515625,-0.0969696044921875,-0.1233978271484375
1772702005878000000,0.933000244140625,0.386016845703125,-0.1522369384765625,-0.1156768798828125
1772702005888050000,0.9430498046875,0.46795654296875,-0.1827239990234375,-0.116912841796875
1772702005898099000,0.953098876953125,0.5322113037109375,-0.20660400390625,-0.13629150390625
1772702005908147700,0.963147705078125,0.561492919921875,-0.2198028564453125,-0.1372222900390625
1772702005918197000,0.973197021484375,0.606170654296875,-0.2350006103515625,-0.12835693359375
1772702005928246000,0.98324609375,0.6635284423828125,-0.2390289306640625,-0.151641845703125
1772702005938294800,0.993294677734375,0.6790618896484375,-0.2270660400390625,-0.1533050537109375
1772702005948344800,1.0033447265625,0.6527557373046875,-0.1959381103515625,-0.1384429931640625
1772702005958393900,1.013393798828125,0.5492095947265625,-0.15972900390625,-0.069549560546875
1772702005968443000,1.02344287109375,0.42413330078125,-0.161773681640625,-0.006103515625
1772702005978492000,1.033491943359375,0.3218536376953125,-0.155120849609375,-0.0058746337890625
1772702005988541000,1.043541015625,0.2061614990234375,-0.1064300537109375,0.017364501953125
1772702005998591000,1.053591064453125,0.1010284423828125,-0.05413818359375,0.043701171875
1772702006008639700,1.0636396484375,0.0401611328125,-0.021575927734375,0.048919677734375
1772702006018689000,1.07368896484375,0.0300750732421875,-0.0170440673828125,0.0506744384765625
1772702006028738000,1.083738037109375,0.024078369140625,-0.0235443115234375,0.050750732421875
1772702006038786800,1.093786865234375,0.0108795166015625,-0.02783203125,0.0508270263671875
1772702006048836900,1.1038369140625,-0.0171051025390625,-0.01776123046875,0.05438232421875
1772702006058886000,1.113885986328125,-0.0615234375,-0.0157318115234375,0.0875396728515625
1772702006068935000,1.123934814453125,-0.134552001953125,-0.0114898681640625,0.1632080078125
1772702006078984000,1.13398388671875,-0.215789794921875,0.0312652587890625,0.2666015625
1772702006089033000,1.144032958984375,-0.2855224609375,0.1060791015625,0.3418121337890625
1772702006099082000,1.15408203125,-0.282135009765625,0.144012451171875,0.350830078125
1772702006109131800,1.1641318359375,-0.2504730224609375,0.1060791015625,0.344512939453125
1772702006119180800,1.174180908203125,-0.25543212890625,0.02532958984375,0.3963775634765625
1772702006129230000,1.18422998046875,-0.3099517822265625,0.0218505859375,0.5118255615234375
1772702006139278800,1.19427880859375,-0.4779052734375,0.1699371337890625,0.6494293212890625
1772702006149328000,1.204327880859375,-0.79791259765625,0.436279296875,0.816070556640625
1772702006159378000,1.2143779296875,-1.1034393310546875,0.7533416748046875,0.968780517578125
1772702006169427000,1.224427001953125,-1.165069580078125,0.9545440673828125,1.0630645751953125
1772702006179476000,1.23447607421875,-1.3495330810546875,0.9960174560546875,1.2874908447265625
1772702006189525000,1.24452490234375,-1.8996429443359375,1.0300445556640625,1.5642242431640625
1772702006199574000,1.254573974609375,-2.7490692138671875,0.9905853271484375,1.8216705322265625
1772702006209623800,1.264623779296875,-3.3534393310546875,0.86737060546875,1.9640960693359375
1772702006219672800,1.2746728515625,-3.4790496826171875,0.933685302734375,1.841705322265625
1772702006229722000,1.28472216796875,-3.1044921875,1.0937652587890625,1.6307373046875
1772702006239771000,1.29477099609375,-2.3504638671875,0.9986419677734375,1.3142547607421875
1772702006249820000,1.30481982421875,-1.7186737060546875,0.8685760498046875,0.981903076171875
1772702006259869700,1.31486962890625,-1.4830322265625,0.7477569580078125,0.7667236328125
1772702006269919000,1.3249189453125,-1.344696044921875,0.546417236328125,0.626708984375
1772702006279968000,1.334968017578125,-1.2375946044921875,0.364044189453125,0.4826202392578125
1772702006290016800,1.345016845703125,-1.1623687744140625,0.3210296630859375,0.448699951171875
1772702006300066000,1.355066162109375,-0.94744873046875,0.350189208984375,0.4328765869140625
1772702006310114800,1.36511474609375,-0.817596435546875,0.407318115234375,0.4570159912109375
1772702006320164900,1.375164794921875,-0.7295684814453125,0.3862152099609375,0.4803466796875
1772702006330214100,1.385214111328125,-0.628265380859375,0.32586669921875,0.436920166015625
1772702006340263000,1.395262939453125,-0.50543212890625,0.31158447265625,0.360382080078125
1772702006350312000,1.40531201171875,-0.409820556640625,0.2992401123046875,0.2935638427734375
1772702006360361000,1.41536083984375,-0.367462158203125,0.2588958740234375,0.2581329345703125
1772702006370411000,1.425410888671875,-0.350738525390625,0.1893463134765625,0.2532196044921875
1772702006380460000,1.4354599609375,-0.3185272216796875,0.118408203125,0.25054931640625
1772702006390508800,1.4455087890625,-0.2954864501953125,0.0685882568359375,0.268707275390625
1772702006400558000,1.45555810546875,-0.2928619384765625,0.0181121826171875,0.2640228271484375
1772702006410606800,1.46560693359375,-0.30230712890625,-0.0098724365234375,0.2194671630859375
1772702006420656600,1.47565673828125,-0.336700439453125,-0.008880615234375,0.193756103515625
1772702006430705700,1.48570556640625,-0.352691650390625,0.009246826171875,0.1654815673828125
1772702006440754700,1.495754638671875,-0.341278076171875,0.0348968505859375,0.125579833984375
1772702006450803700,1.5058037109375,-0.3206939697265625,0.0717926025390625,0.0950927734375
1772702006460852700,1.515852783203125,-0.31085205078125,0.1078033447265625,0.0877227783203125
1772702006470902800,1.52590283203125,-0.3364105224609375,0.134063720703125,0.105133056640625
1772702006480951600,1.53595166015625,-0.4095611572265625,0.15631103515625,0.15625
1772702006491000600,1.54600048828125,-0.464599609375,0.167755126953125,0.22259521484375
1772702006501049900,1.5560498046875,-0.477264404296875,0.171905517578125,0.2784881591796875
1772702006511098600,1.5660986328125,-0.4674530029296875,0.173065185546875,0.319305419921875
1772702006521147600,1.576147705078125,-0.4565582275390625,0.1765899658203125,0.3705596923828125
1772702006531197400,1.586197509765625,-0.4744110107421875,0.213348388671875,0.4535675048828125
1772702006541246700,1.596246826171875,-0.50433349609375,0.2725677490234375,0.551116943359375
1772702006551295700,1.606295654296875,-0.4907379150390625,0.3560333251953125,0.6002349853515625
1772702006561344500,1.616344482421875,-0.5399932861328125,0.4481353759765625,0.638519287109375
1772702006571393800,1.626393798828125,-0.52996826171875,0.513336181640625,0.638702392578125
1772702006581443600,1.636443603515625,-0.5374755859375,0.548248291015625,0.5870208740234375
1772702006591492600,1.64649267578125,-0.6281585693359375,0.574676513671875,0.5539093017578125
1772702006601541600,1.656541748046875,-0.766082763671875,0.5522003173828125,0.5616302490234375
1772702006611590700,1.666590576171875,-0.8594818115234375,0.480499267578125,0.589508056640625
1772702006621639700,1.6766396484375,-0.9205780029296875,0.431732177734375,0.6916351318359375
1772702006631689500,1.686689453125,-0.965911865234375,0.3883514404296875,0.7911224365234375
1772702006641738800,1.69673876953125,-1.042236328125,0.3665771484375,0.9365081787109375
1772702006651787800,1.706787841796875,-1.2496337890625,0.417510986328125,1.11627197265625
1772702006661836500,1.71683642578125,-1.4397125244140625,0.5333251953125,1.2286529541015625
1772702006671885800,1.7268857421875,-1.5425872802734375,0.612152099609375,1.28033447265625
1772702006681935600,1.736935546875,-1.7455596923828125,0.684661865234375,1.4225311279296875
1772702006691984600,1.746984619140625,-1.8538055419921875,0.698150634765625,1.4980010986328125
1772702006702033700,1.75703369140625,-1.8679351806640625,0.6046600341796875,1.5102386474609375
1772702006712082700,1.767082763671875,-1.7691650390625,0.5160675048828125,1.554534912109375
1772702006722131700,1.777131591796875,-1.678466796875,0.46392822265625,1.6061859130859375
1772702006732181500,1.787181396484375,-1.6362457275390625,0.3919677734375,1.692047119140625
1772702006742230500,1.79723046875,-1.6327056884765625,0.323699951171875,1.8148193359375
1772702006752279800,1.80727978515625,-1.685150146484375,0.315521240234375,1.9290008544921875
1772702006762328600,1.81732861328125,-1.7399139404296875,0.3474578857421875,1.996307373046875
1772702006772377900,1.8273779296875,-1.8455352783203125,0.3801116943359375,2.021575927734375
1772702006782427600,1.837427734375,-1.9007110595703125,0.40081787109375,1.953125
1772702006792476700,1.8474765625,-1.8935546875,0.4070587158203125,1.7688140869140625
1772702006802525700,1.857525634765625,-1.8050079345703125,0.393310546875,1.5782470703125
1772702006812574700,1.86757470703125,-1.64410400390625,0.378875732421875,1.3875579833984375
1772702006822623700,1.877623779296875,-1.433624267578125,0.32159423828125,1.177978515625
1772702006832672500,1.887672607421875,-1.1815948486328125,0.2120361328125,0.964752197265625
1772702006842722600,1.89772265625,-0.9210357666015625,0.167388916015625,0.7819061279296875
1772702006852771800,1.907771728515625,-0.6809234619140625,0.2076416015625,0.657073974609375
1772702006862820600,1.917820556640625,-0.48480224609375,0.2531280517578125,0.6030731201171875
1772702006872869600,1.92786962890625,-0.3272247314453125,0.28070068359375,0.5436859130859375
1772702006882918700,1.937918701171875,-0.1908111572265625,0.2897491455078125,0.452301025390625
1772702006892968700,1.94796875,-0.0478668212890625,0.2722625732421875,0.3424835205078125
1772702006903017700,1.958017822265625,0.075714111328125,0.2241363525390625,0.2101287841796875
1772702006913066800,1.968066650390625,0.182891845703125,0.2024383544921875,0.0672607421875
1772702006923115800,1.97811572265625,0.27587890625,0.08203125,0.0217742919921875
1772702006933164500,1.98816455078125,0.379730224609375,-0.0100860595703125,-0.075653076171875
1772702006943214600,1.998214599609375,0.4597320556640625,-0.0436553955078125,-0.191741943359375
1772702006953263900,2.008263916015625,0.503692626953125,-0.0406951904296875,-0.269683837890625
1772702006963312600,2.018312744140625,0.554046630859375,-0.029083251953125,-0.2718505859375
1772702006973361700,2.028361572265625,0.608184814453125,-0.017059326171875,-0.257232666015625
1772702006983410700,2.03841064453125,0.645721435546875,-0.026641845703125,-0.24737548828125
1772702006993460700,2.048460693359375,0.65228271484375,-0.039703369140625,-0.23260498046875
1772702007003509800,2.058509765625,0.6124420166015625,-0.0537872314453125,-0.2017669677734375
1772702007013558500,2.06855859375,0.548736572265625,-0.0567474365234375,-0.1278228759765625
1772702007023607800,2.07860791015625,0.5133819580078125,-0.0283660888671875,-0.0561370849609375
1772702007033656600,2.088656494140625,0.4888916015625,0.0236968994140625,-0.015960693359375
1772702007043706600,2.09870654296875,0.4415283203125,0.0669097900390625,0.007110595703125
1772702007053755600,2.108755615234375,0.386627197265625,0.0791473388671875,0.022125244140625
1772702007063804700,2.1188046875,0.3119964599609375,0.0664520263671875,0.0466766357421875
1772702007073853700,2.128853759765625,0.2329864501953125,0.051727294921875,0.055816650390625
1772702007083902700,2.13890283203125,0.1740264892578125,0.0462646484375,0.0459747314453125
1772702007093951700,2.14895166015625,0.1318511962890625,0.03271484375,0.0449981689453125
1772702007104001800,2.159001708984375,0.0955352783203125,0.014984130859375,0.0747528076171875
1772702007114050600,2.169050537109375,0.0517120361328125,0.010009765625,0.1610107421875
1772702007124099800,2.179099853515625,0.002105712890625,0.0045928955078125,0.3079681396484375
1772702007134148600,2.189148681640625,-0.0672454833984375,-0.0253448486328125,0.458709716796875
1772702007144197600,2.19919775390625,-0.1827545166015625,-0.0576324462890625,0.618072509765625
1772702007154247700,2.20924755859375,-0.3159332275390625,-0.064697265625,0.73199462890625
1772702007164296700,2.219296630859375,-0.4982757568359375,-0.0304412841796875,0.81365966796875
1772702007174345700,2.229345703125,-0.7626953125,0.0164337158203125,0.87432861328125
1772702007184394500,2.23939453125,-1.0400390625,-0.005462646484375,0.9622802734375
1772702007194443800,2.24944384765625,-1.2004547119140625,-0.0050048828125,1.0983734130859375
1772702007204493800,2.259493896484375,-1.3740997314453125,0.0971221923828125,1.315887451171875
1772702007214542600,2.26954248046875,-1.60150146484375,0.2307891845703125,1.5814056396484375
1772702007224591600,2.279591552734375,-1.8416595458984375,0.490966796875,1.7080230712890625
1772702007234640600,2.289640625,-2.0040740966796875,0.829315185546875,1.8354949951171875
1772702007244689700,2.299689697265625,-2.2265777587890625,1.014984130859375,2.0875244140625
1772702007254739700,2.30973974609375,-2.4951019287109375,1.13922119140625,2.4304656982421875
1772702007264788700,2.319788818359375,-2.5166015625,1.08343505859375,2.616943359375
1772702007274837800,2.329837646484375,-2.1706695556640625,0.801361083984375,2.0320281982421875
1772702007284886500,2.339886474609375,-1.62799072265625,0.6921234130859375,1.3329315185546875
1772702007294935800,2.349935791015625,-1.398956298828125,0.5728759765625,0.99853515625
1772702007304985900,2.35998583984375,-1.203857421875,0.4592132568359375,0.8081512451171875
1772702007315034600,2.37003466796875,-0.9724884033203125,0.4113311767578125,0.70013427734375
1772702007325083600,2.380083740234375,-0.798553466796875,0.4012451171875,0.6518402099609375
1772702007335132700,2.390132568359375,-0.668548583984375,0.398345947265625,0.6232452392578125
1772702007345181700,2.400181640625,-0.5588836669921875,0.35406494140625,0.586517333984375
1772702007355231700,2.410231689453125,-0.4756927490234375,0.3033294677734375,0.5242462158203125
1772702007365280500,2.420280517578125,-0.4221954345703125,0.2450408935546875,0.4226226806640625
1772702007375329800,2.430329833984375,-0.398681640625,0.16168212890625,0.309722900390625
1772702007385378600,2.440378662109375,-0.3836822509765625,0.06195068359375,0.230255126953125
1772702007395427600,2.450427490234375,-0.3580780029296875,0.0034637451171875,0.2068939208984375
1772702007405476600,2.4604765625,-0.38726806640625,-0.0278778076171875,0.21875
1772702007415527000,2.47052685546875,-0.462921142578125,-0.0074920654296875,0.2267913818359375
1772702007425575700,2.48057568359375,-0.4764251708984375,0.0328216552734375,0.23486328125
1772702007435625000,2.490625,-0.4603271484375,0.0686492919921875,0.296356201171875
1772702007445673700,2.500673828125,-0.4145355224609375,0.1265716552734375,0.4354400634765625
1772702007455722800,2.51072265625,-0.442352294921875,0.155548095703125,0.5655975341796875
1772702007465772800,2.520772705078125,-0.5655975341796875,0.13531494140625,0.64453125
1772702007475821800,2.53082177734375,-0.598876953125,0.117431640625,0.6781768798828125
1772702007485870800,2.540870849609375,-0.584228515625,0.0700836181640625,0.6662750244140625
1772702007495919600,2.550919677734375,-0.6044158935546875,-0.0164031982421875,0.6876373291015625
1772702007505969000,2.560968994140625,-0.603179931640625,-0.0522308349609375,0.713836669921875
1772702007516019000,2.57101904296875,-0.5882568359375,0.0049285888671875,0.6591339111328125
1772702007526067700,2.581067626953125,-0.554779052734375,0.08453369140625,0.6211090087890625
1772702007536116700,2.59111669921875,-0.4866485595703125,0.1583709716796875,0.6446533203125
1772702007546165800,2.601165771484375,-0.4001007080078125,0.2403564453125,0.664337158203125
1772702007556214800,2.61121484375,-0.3208465576171875,0.311187744140625,0.67034912109375
1772702007566264800,2.621264892578125,-0.250579833984375,0.3437347412109375,0.65399169921875
1772702007576313900,2.63131396484375,-0.2301788330078125,0.338287353515625,0.6054229736328125
1772702007586363000,2.64136279296875,-0.2800750732421875,0.312469482421875,0.5788421630859375
1772702007596411600,2.65141162109375,-0.3330078125,0.291107177734375,0.5914306640625
1772702007606461000,2.6614609375,-0.35498046875,0.2637481689453125,0.6407928466796875
1772702007616511000,2.671510986328125,-0.3336944580078125,0.2115936279296875,0.6973876953125
1772702007626559700,2.681559814453125,-0.2921905517578125,0.19561767578125,0.785858154296875
1772702007636608800,2.69160888671875,-0.3095245361328125,0.26654052734375,0.7894134521484375
1772702007646657800,2.70165771484375,-0.3453369140625,0.3555450439453125,0.7908172607421875
1772702007656706800,2.711706787109375,-0.395233154296875,0.405609130859375,0.7757720947265625
1772702007666756900,2.7217568359375,-0.493255615234375,0.42608642578125,0.7260284423828125
1772702007676805600,2.7318056640625,-0.6872406005859375,0.46875,0.7134857177734375
1772702007686855000,2.74185498046875,-0.8047637939453125,0.490081787109375,0.69207763671875
1772702007696903700,2.751903564453125,-0.888336181640625,0.4422454833984375,0.6441802978515625
1772702007706952700,2.76195263671875,-0.9587554931640625,0.3765716552734375,0.645111083984375
1772702007717002800,2.772002685546875,-0.961456298828125,0.304718017578125,0.70159912109375
1772702007727051800,2.7820517578125,-1.00396728515625,0.300628662109375,0.7568817138671875
1772702007737100800,2.792100830078125,-1.066619873046875,0.3422698974609375,0.8304595947265625
1772702007747149800,2.80214990234375,-1.039459228515625,0.417083740234375,1.082061767578125
1772702007757198800,2.81219873046875,-1.2330322265625,0.547698974609375,1.3778076171875
1772702007767247600,2.82224755859375,-1.438751220703125,0.590972900390625,1.5493927001953125
1772702007777297700,2.832297607421875,-1.66131591796875,0.58648681640625,1.716400146484375
1772702007787347000,2.842346923828125,-1.8632965087890625,0.553955078125,1.886688232421875
1772702007797395700,2.852395751953125,-1.9247283935546875,0.545867919921875,2.0441131591796875
1772702007807444700,2.86244482421875,-1.8876495361328125,0.5518951416015625,2.0953369140625
1772702007817493800,2.87249365234375,-1.7527008056640625,0.5579833984375,2.0179443359375
1772702007827543800,2.882543701171875,-1.5871124267578125,0.580535888671875,1.921630859375
1772702007837592800,2.8925927734375,-1.440155029296875,0.5087738037109375,1.9030303955078125
1772702007847641600,2.9026416015625,-1.26177978515625,0.4328155517578125,1.7877655029296875
1772702007857691000,2.91269091796875,-1.1392669677734375,0.370452880859375,1.6312713623046875
1772702007867739600,2.92273974609375,-1.0479888916015625,0.322021484375,1.49072265625
1772702007877789700,2.932789794921875,-0.962799072265625,0.3225555419921875,1.3578033447265625
1772702007887838700,2.942838623046875,-0.9094390869140625,0.3459930419921875,1.2583465576171875
1772702007897887700,2.9528876953125,-0.84136962890625,0.373291015625,1.155181884765625
1772702007907936800,2.962936767578125,-0.756683349609375,0.3733673095703125,1.06683349609375
1772702007917985800,2.97298583984375,-0.677764892578125,0.3472442626953125,0.9922943115234375
1772702007928035800,2.983035888671875,-0.5828857421875,0.2956085205078125,0.89190673828125
1772702007938084900,2.9930849609375,-0.454833984375,0.2376708984375,0.72735595703125
1772702007948133600,3.003133544921875,-0.3087921142578125,0.1966552734375,0.548309326171875
1772702007958183000,3.013182861328125,-0.1472930908203125,0.1528778076171875,0.3792572021484375
1772702007968231700,3.023231689453125,0.02325439453125,0.1131591796875,0.2603607177734375
1772702007978281700,3.03328173828125,0.2137908935546875,0.0653228759765625,0.14501953125
1772702007988330800,3.043330810546875,0.4366455078125,0.0204925537109375,0.0059661865234375
1772702007998379800,3.0533798828125,0.5386505126953125,-0.0293731689453125,-0.0609893798828125
1772702008008428800,3.0634287109375,0.567596435546875,-0.105926513671875,-0.160247802734375
1772702008018477600,3.0734775390625,0.5881805419921875,-0.1369171142578125,-0.2531280517578125
1772702008028527600,3.083527587890625,0.5636138916015625,-0.1195220947265625,-0.32208251953125
1772702008038577000,3.093576904296875,0.498046875,-0.0479278564453125,-0.3267669677734375
1772702008048625700,3.103625732421875,0.4470367431640625,0.01348876953125,-0.2757415771484375
1772702008058674700,3.1136748046875,0.4523773193359375,0.0359649658203125,-0.2109375
1772702008068723700,3.1237236328125,0.3913421630859375,0.043304443359375,-0.162811279296875
1772702008078773800,3.133773681640625,0.270904541015625,0.026214599609375,-0.1365966796875
1772702008088822800,3.14382275390625,0.17333984375,0.0064849853515625,-0.124542236328125
1772702008098871800,3.153871826171875,0.1198272705078125,-0.001678466796875,-0.100738525390625
1772702008108920800,3.1639208984375,0.06756591796875,0.010772705078125,-0.0673980712890625
1772702008118969600,3.173969482421875,0.016845703125,0.02264404296875,-0.0195159912109375
1772702008129019600,3.18401953125,-0.0288848876953125,0.0201416015625,0.032012939453125
1772702008139069000,3.19406884765625,-0.071624755859375,0.0220794677734375,0.0832061767578125
1772702008149117700,3.20411767578125,-0.0938720703125,0.028289794921875,0.143218994140625
1772702008159166700,3.214166748046875,-0.1227569580078125,0.044891357421875,0.1752471923828125
1772702008169215700,3.2242158203125,-0.1581268310546875,0.063232421875,0.1951446533203125
1772702008179264800,3.2342646484375,-0.1889801025390625,0.080841064453125,0.20751953125
1772702008189314800,3.244314697265625,-0.211273193359375,0.083465576171875,0.2272186279296875
1772702008199363600,3.254363525390625,-0.2198486328125,0.0820770263671875,0.2380523681640625
1772702008209412900,3.264412841796875,-0.239105224609375,0.078369140625,0.252044677734375
1772702008219461600,3.274461669921875,-0.2688751220703125,0.0686187744140625,0.279205322265625
1772702008229511000,3.284510986328125,-0.29095458984375,0.0738983154296875,0.3235015869140625
1772702008239561000,3.29456103515625,-0.308013916015625,0.0919952392578125,0.39056396484375
1772702008249609700,3.304609619140625,-0.348052978515625,0.116943359375,0.4971771240234375
1772702008259658800,3.31465869140625,-0.4030303955078125,0.1482696533203125,0.653228759765625
1772702008269707800,3.324707763671875,-0.5227203369140625,0.1793060302734375,0.8887176513671875
1772702008279756800,3.3347568359375,-0.78277587890625,0.203826904296875,1.2408905029296875
1772702008289806800,3.344806884765625,-1.1475982666015625,0.2184906005859375,1.66485595703125
1772702008299855600,3.354855712890625,-1.5089111328125,0.2909088134765625,2.0518341064453125
1772702008309905000,3.36490478515625,-1.7851715087890625,0.495208740234375,2.3670196533203125
1772702008319953700,3.37495361328125,-1.968505859375,0.7476959228515625,2.5578460693359375
1772702008330002700,3.385002685546875,-2.0037078857421875,0.924652099609375,2.5930328369140625
1772702008340052700,3.395052734375,-2.0006866455078125,1.006561279296875,2.516845703125
1772702008350101800,3.405101806640625,-1.941314697265625,1.0621185302734375,2.3829498291015625
1772702008360150800,3.41515087890625,-1.637725830078125,1.104400634765625,2.0874786376953125
1772702008370199800,3.42519970703125,-1.2551422119140625,1.0447845458984375,1.7653656005859375
1772702008380248800,3.435248779296875,-1.047454833984375,0.9145660400390625,1.5802001953125
1772702008390299000,3.445298828125,-0.93780517578125,0.7907867431640625,1.4677276611328125
1772702008400347600,3.45534765625,-0.7753753662109375,0.7026214599609375,1.3077545166015625
1772702008410397000,3.46539697265625,-0.5819549560546875,0.6105194091796875,1.110443115234375
1772702008420446700,3.47544677734375,-0.4164276123046875,0.51397705078125,0.9312591552734375
1772702008430495500,3.48549560546875,-0.302490234375,0.435791015625,0.7900848388671875
1772702008440545500,3.495545654296875,-0.2381744384765625,0.3560791015625,0.677886962890625
1772702008450594300,3.50559423828125,-0.193756103515625,0.26251220703125,0.5760498046875
1772702008460643600,3.5156435546875,-0.176910400390625,0.193389892578125,0.5125579833984375
1772702008470692600,3.525692626953125,-0.195953369140625,0.15545654296875,0.4757080078125
1772702008480741400,3.535741455078125,-0.2568359375,0.1372833251953125,0.4967498779296875
1772702008490791700,3.545791748046875,-0.3300628662109375,0.1177520751953125,0.557647705078125
1772702008500840400,3.55584033203125,-0.3760833740234375,0.09039306640625,0.6125030517578125
1772702008510889500,3.565889404296875,-0.3953094482421875,0.0671539306640625,0.605682373046875
1772702008520938800,3.575938720703125,-0.401702880859375,0.08544921875,0.569244384765625
1772702008530987500,3.585987548828125,-0.4098052978515625,0.1173248291015625,0.5323638916015625
1772702008541037600,3.59603759765625,-0.41534423828125,0.1346893310546875,0.511199951171875
1772702008551086300,3.60608642578125,-0.434295654296875,0.141143798828125,0.4978179931640625
1772702008561135600,3.616135498046875,-0.4591827392578125,0.140380859375,0.5162353515625
1772702008571184600,3.6261845703125,-0.486328125,0.1467132568359375,0.552825927734375
1772702008581233400,3.6362333984375,-0.515350341796875,0.1601409912109375,0.5837554931640625
1772702008591283500,3.646283447265625,-0.52734375,0.17999267578125,0.612030029296875
1772702008601332500,3.65633251953125,-0.523834228515625,0.2054443359375,0.629364013671875
1772702008611381500,3.666381591796875,-0.4993438720703125,0.2222900390625,0.6179656982421875
1772702008621430500,3.676430419921875,-0.457611083984375,0.2219696044921875,0.5819549560546875
1772702008631479600,3.6864794921875,-0.420654296875,0.2042236328125,0.549713134765625
1772702008641529600,3.696529541015625,-0.39630126953125,0.1895751953125,0.52178955078125
1772702008651578400,3.706578369140625,-0.378021240234375,0.171173095703125,0.4969329833984375
1772702008661627600,3.716627685546875,-0.35858154296875,0.15087890625,0.4681396484375
1772702008671676700,3.7266767578125,-0.3314971923828125,0.13604736328125,0.452423095703125
1772702008681725400,3.736725341796875,-0.315277099609375,0.13629150390625,0.4387359619140625
1772702008691774700,3.746774658203125,-0.3042144775390625,0.13677978515625,0.442291259765625
1772702008701824500,3.756824462890625,-0.3194580078125,0.135772705078125,0.438568115234375
1772702008711873500,3.76687353515625,-0.3094024658203125,0.125640869140625,0.434295654296875
1772702008721922600,3.776922607421875,-0.3281402587890625,0.109039306640625,0.4537353515625
1772702008731971600,3.7869716796875,-0.3922882080078125,0.1213531494140625,0.494110107421875
1772702008742020600,3.7970205078125,-0.4438629150390625,0.173187255859375,0.5275726318359375
1772702008752070400,3.8070703125,-0.5347747802734375,0.2490386962890625,0.5791778564453125
1772702008762119400,3.817119384765625,-0.651397705078125,0.350311279296875,0.6733551025390625
1772702008772168700,3.827168701171875,-0.7779083251953125,0.44879150390625,0.7776947021484375
1772702008782217500,3.837217529296875,-0.91766357421875,0.5275421142578125,0.86553955078125
1772702008792266500,3.8472666015625,-1.0318450927734375,0.5885772705078125,0.93475341796875
1772702008802316500,3.857316650390625,-1.0905609130859375,0.6031036376953125,0.9778289794921875
1772702008812365600,3.867365478515625,-1.172454833984375,0.6269683837890625,1.1324920654296875
1772702008822414600,3.87741455078125,-1.3061676025390625,0.6705780029296875,1.3818206787109375
1772702008832463600,3.887463623046875,-1.3634033203125,0.673431396484375,1.5696563720703125
1772702008842512600,3.8975126953125,-1.4901580810546875,0.8333892822265625,1.799774169921875
1772702008852562400,3.9075625,-1.7441253662109375,1.011474609375,2.2064361572265625
1772702008862611500,3.917611572265625,-1.968658447265625,1.0914306640625,2.54107666015625
1772702008872660700,3.92766064453125,-2.0897216796875,1.17669677734375,2.71124267578125
1772702008882709500,3.93770947265625,-2.1348876953125,1.198028564453125,2.780517578125
1772702008892758500,3.947758544921875,-2.120697021484375,1.1473541259765625,2.7882080078125
1772702008902808300,3.957808349609375,-2.0901336669921875,1.091827392578125,2.71295166015625
1772702008912857600,3.967857666015625,-2.03936767578125,1.030517578125,2.531707763671875
1772702008922906600,3.97790673828125,-1.9571533203125,0.9715728759765625,2.35400390625
1772702008932955400,3.987955322265625,-1.863189697265625,0.8747406005859375,2.1298065185546875
1772702008943004700,3.998004638671875,-1.7183074951171875,0.7760772705078125,1.87420654296875
1772702008953054500,4.008054443359375,-1.515380859375,0.6592254638671875,1.617706298828125
1772702008963103500,4.018103515625,-1.282684326171875,0.5379486083984375,1.3389892578125
1772702008973152500,4.028152587890625,-1.0396575927734375,0.426910400390625,1.072113037109375
1772702008983201500,4.038201416015625,-0.7612152099609375,0.3182525634765625,0.822906494140625
1772702008993250600,4.04825048828125,-0.430633544921875,0.2164154052734375,0.5786590576171875
1772702009003300400,4.05830029296875,-0.0665130615234375,0.1578369140625,0.3730621337890625
1772702009013349600,4.068349609375,0.2741241455078125,0.124420166015625,0.2145538330078125
1772702009023398700,4.078398681640625,0.44439697265625,0.0726318359375,0.1156158447265625
1772702009033447400,4.088447509765625,0.534210205078125,0.032928466796875,-0.0153350830078125
1772702009043496700,4.09849658203125,0.6243896484375,0.0023956298828125,-0.202362060546875
1772702009053546500,4.10854638671875,0.7176513671875,-0.0278472900390625,-0.2716522216796875
1772702009063595500,4.118595458984375,0.8112945556640625,-0.035247802734375,-0.2841949462890625
1772702009073644500,4.12864453125,0.8401947021484375,-0.0128326416015625,-0.2871856689453125
1772702009083693600,4.138693603515625,0.8636322021484375,-0.0058135986328125,-0.24395751953125
1772702009093742600,4.14874267578125,0.8680419921875,0.006805419921875,-0.1638641357421875
1772702009103792400,4.15879248046875,0.9154052734375,0.011688232421875,-0.1217041015625
1772702009113841400,4.16884130859375,0.897308349609375,0.034912109375,-0.0623626708984375
1772702009123890700,4.178890625,0.828887939453125,0.0583648681640625,-0.009368896484375
1772702009133939500,4.188939453125,0.73602294921875,0.049346923828125,0.04852294921875
1772702009143988700,4.19898876953125,0.610198974609375,0.030792236328125,0.0692596435546875
1772702009154038500,4.20903857421875,0.45111083984375,0.0303955078125,0.0576934814453125
1772702009164087600,4.219087646484375,0.2945556640625,0.059539794921875,0.0521240234375
1772702009174136600,4.229136474609375,0.1559906005859375,0.0736083984375,0.04132080078125
1772702009184185600,4.239185546875,0.043853759765625,0.0514068603515625,0.0584869384765625
1772702009194234600,4.249234619140625,-0.03387451171875,0.026214599609375,0.0825042724609375
1772702009204284400,4.259284423828125,-0.07476806640625,0.0128936767578125,0.0896759033203125
1772702009214333400,4.26933349609375,-0.1330108642578125,-0.0020599365234375,0.0892486572265625
1772702009224382700,4.2793828125,-0.1364898681640625,-0.0150909423828125,0.101898193359375
1772702009234431500,4.289431396484375,-0.1720733642578125,-0.0310821533203125,0.0785369873046875
1772702009244480500,4.29948046875,-0.1643524169921875,-0.0387725830078125,0.07952880859375
1772702009254530300,4.3095302734375,-0.123138427734375,-0.073822021484375,0.0387420654296875
1772702009264579600,4.31957958984375,-0.0929107666015625,-0.11163330078125,0.017364501953125
1772702009274628600,4.329628662109375,-0.0892181396484375,-0.12872314453125,0.0174713134765625
1772702009284677600,4.339677734375,-0.075469970703125,-0.125823974609375,0.0384063720703125
1772702009294726700,4.3497265625,-0.044219970703125,-0.1129150390625,0.0566253662109375
1772702009304776400,4.3597763671875,0.0091705322265625,-0.0948333740234375,0.0878448486328125
1772702009314825500,4.369825439453125,0.051422119140625,-0.0762481689453125,0.1439971923828125
1772702009324874800,4.379874755859375,0.06500244140625,-0.056732177734375,0.1780548095703125
1772702009334923500,4.389923583984375,0.06903076171875,-0.034698486328125,0.2094573974609375
1772702009344972500,4.39997265625,0.0383758544921875,-0.01422119140625,0.21722412109375
1772702009355022300,4.410022216796875,-0.046234130859375,0.0261993408203125,0.224090576171875
1772702009365071600,4.420071533203125,-0.145965576171875,0.097412109375,0.267852783203125
1772702009375120600,4.43012060546875,-0.2812347412109375,0.1905517578125,0.332244873046875
1772702009385169400,4.44016943359375,-0.5074615478515625,0.245086669921875,0.436279296875
1772702009395218700,4.45021875,-0.7671356201171875,0.3208770751953125,0.59490966796875
1772702009405268500,4.4602685546875,-1.0442657470703125,0.4541473388671875,0.7952117919921875
1772702009415317500,4.4703173828125,-1.3440704345703125,0.60321044921875,1.031036376953125
1772702009425366300,4.4803662109375,-1.762176513671875,0.7439422607421875,1.344635009765625
1772702009435415300,4.490415283203125,-2.3697052001953125,0.9568634033203125,1.7169647216796875
1772702009445464000,4.500464111328125,-2.6988067626953125,1.14569091796875,2.093536376953125
1772702009455514000,4.51051416015625,-2.71173095703125,1.1456756591796875,2.5101318359375
1772702009465563400,4.5205634765625,-2.674652099609375,1.104095458984375,2.3411407470703125
1772702009475612200,4.530612060546875,-2.3520660400390625,1.0256805419921875,1.923065185546875
1772702009485661200,4.5406611328125,-1.91571044921875,0.9887237548828125,1.5892486572265625
1772702009495710200,4.550710205078125,-1.569183349609375,0.94244384765625,1.3316192626953125
1772702009505760300,4.56076025390625,-1.40673828125,0.85968017578125,1.1549835205078125
1772702009515809300,4.570809326171875,-1.3834381103515625,0.8262481689453125,0.982391357421875
1772702009525858000,4.580858154296875,-1.328399658203125,0.84423828125,0.917083740234375
1772702009535907300,4.5909072265625,-1.2349700927734375,0.8861236572265625,0.9152069091796875
1772702009545956000,4.6009560546875,-1.171875,0.9115753173828125,0.9021148681640625
1772702009556006100,4.611006103515625,-1.04559326171875,0.8426361083984375,0.8946380615234375
1772702009566055400,4.621055419921875,-0.9213714599609375,0.67681884765625,0.8544921875
1772702009576104200,4.631104248046875,-0.765350341796875,0.5042266845703125,0.8055572509765625
1772702009586153200,4.6411533203125,-0.6192779541015625,0.3380126953125,0.759033203125
1772702009596202200,4.6512021484375,-0.5120697021484375,0.209991455078125,0.716888427734375
1772702009606252300,4.661252197265625,-0.43878173828125,0.141571044921875,0.67425537109375
1772702009616301300,4.67130126953125,-0.430633544921875,0.11602783203125,0.626373291015625
1772702009626350000,4.68135009765625,-0.4794158935546875,0.135772705078125,0.58978271484375
1772702009636399400,4.6913994140625,-0.5424652099609375,0.21038818359375,0.5599517822265625
1772702009646448000,4.7014482421875,-0.56353759765625,0.2507476806640625,0.536224365234375
1772702009656498200,4.711498291015625,-0.572845458984375,0.2773895263671875,0.5450592041015625
1772702009666547200,4.721547119140625,-0.599822998046875,0.305572509765625,0.5395355224609375
1772702009676596200,4.73159619140625,-0.58953857421875,0.3123321533203125,0.5156707763671875
1772702009686645200,4.741645263671875,-0.5572357177734375,0.289947509765625,0.4887542724609375
1772702009696694000,4.751694091796875,-0.531402587890625,0.2606048583984375,0.455352783203125
1772702009706744300,4.761744384765625,-0.497100830078125,0.2353363037109375,0.4283294677734375
1772702009716793300,4.77179345703125,-0.4584503173828125,0.22259521484375,0.393646240234375
1772702009726842000,4.781842041015625,-0.4224090576171875,0.21026611328125,0.3820648193359375
1772702009736891400,4.791891357421875,-0.4000396728515625,0.2063140869140625,0.3806610107421875
1772702009746940200,4.801940185546875,-0.370574951171875,0.209136962890625,0.3785552978515625
1772702009756990200,4.811990234375,-0.337371826171875,0.209075927734375,0.384979248046875
1772702009767039200,4.822039306640625,-0.304840087890625,0.215972900390625,0.3988494873046875
1772702009777088300,4.832088134765625,-0.31304931640625,0.2505035400390625,0.39569091796875
1772702009787137300,4.84213720703125,-0.2763671875,0.2943115234375,0.4430999755859375
1772702009797186000,4.85218603515625,-0.2568511962890625,0.3405609130859375,0.4668426513671875
1772702009807236000,4.862236083984375,-0.30828857421875,0.395111083984375,0.513031005859375
1772702009817285400,4.872285400390625,-0.3962249755859375,0.4198760986328125,0.6169891357421875
1772702009827334100,4.882334228515625,-0.483154296875,0.400482177734375,0.6935272216796875
1772702009837383200,4.892383056640625,-0.5845794677734375,0.359771728515625,0.781494140625
1772702009847432200,4.90243212890625,-0.6946258544921875,0.3306427001953125,0.8535003662109375
1772702009857482200,4.912482177734375,-0.820404052734375,0.3347320556640625,0.902587890625
1772702009867531300,4.92253125,-0.97760009765625,0.4073486328125,1.0556488037109375
1772702009877580300,4.932580322265625,-1.226348876953125,0.5092010498046875,1.2991485595703125
1772702009887629300,4.94262939453125,-1.6696624755859375,0.670684814453125,1.556610107421875
1772702009897678000,4.952677978515625,-2.2454681396484375,0.876861572265625,1.8419952392578125
1772702009907728100,4.96272802734375,-2.8499603271484375,1.0044097900390625,2.111724853515625
1772702009917777400,4.97277734375,-3.32330322265625,0.98236083984375,2.2426605224609375
1772702009927826200,4.982826171875,-3.453643798828125,0.7674102783203125,2.2193450927734375
1772702009937875200,4.992875244140625,-3.2614288330078125,0.441497802734375,2.13458251953125
1772702009947924200,5.00292431640625,-2.9634246826171875,0.121826171875,2.039794921875
1772702009957974300,5.012974365234375,-2.723480224609375,-0.0872650146484375,1.787353515625
1772702009968023300,5.023023193359375,-2.6532440185546875,0.0269622802734375,1.48486328125
1772702009978072000,5.033072021484375,-2.5811767578125,0.1669158935546875,1.36468505859375
1772702009988121300,5.043121337890625,-2.376373291015625,0.1924896240234375,1.195556640625
1772702009998170000,5.053170166015625,-2.053985595703125,0.188232421875,1.037078857421875
1772702010008220200,5.06322021484375,-1.595306396484375,0.1968231201171875,0.8908538818359375
1772702010018269200,5.073269287109375,-1.128265380859375,0.2566680908203125,0.7421875
1772702010028318200,5.083318115234375,-0.6201019287109375,0.3206634521484375,0.5872344970703125
1772702010038367200,5.0933671875,-0.0420379638671875,0.327911376953125,0.2448883056640625
1772702010048416300,5.103416259765625,0.3953704833984375,0.2082672119140625,-0.166961669921875
1772702010058466300,5.11346630859375,0.6063385009765625,0.070526123046875,-0.23114013671875
1772702010068515300,5.123515380859375,0.742950439453125,0.0662994384765625,-0.15545654296875
1772702010078564000,5.133564208984375,0.7476959228515625,0.1321563720703125,0.0266571044921875
1772702010088613400,5.14361328125,0.672698974609375,0.2816162109375,0.191131591796875
1772702010098662100,5.153662109375,0.4776153564453125,0.364654541015625,0.3026275634765625
1772702010108712200,5.163712158203125,0.6264190673828125,0.4088897705078125,0.5100555419921875
1772702010118761200,5.17376123046875,1.28265380859375,0.3278350830078125,0.6346435546875
1772702010128810200,5.183810302734375,1.4978790283203125,0.274505615234375,0.3997650146484375
1772702010138859300,5.193859375,1.37310791015625,0.3763885498046875,0.1053619384765625
1772702010148908000,5.203907958984375,1.154998779296875,0.0348663330078125,0.1183929443359375
1772702010158958000,5.2139580078125,1.1854705810546875,-0.2578887939453125,0.1491241455078125
1772702010169007400,5.22400732421875,0.8430633544921875,-0.1460723876953125,0.026397705078125
1772702010179056000,5.23405615234375,0.4290618896484375,0.0388336181640625,0.0789794921875
1772702010189105200,5.244105224609375,0.189788818359375,0.180999755859375,0.234344482421875
1772702010199154200,5.254154296875,-0.0404205322265625,0.2135009765625,0.322296142578125
1772702010209204200,5.264204345703125,-0.2250823974609375,0.1793212890625,0.3931732177734375
1772702010219253200,5.274253173828125,-0.274993896484375,0.1616973876953125,0.3719482421875
1772702010229302300,5.28430224609375,-0.2608489990234375,0.1403656005859375,0.2849578857421875
1772702010239351300,5.294351318359375,-0.280426025390625,0.129150390625,0.20745849609375
1772702010249400000,5.304400146484375,-0.3246612548828125,0.1336822509765625,0.1518096923828125
1772702010259449300,5.314449462890625,-0.3529052734375,0.1203460693359375,0.1044769287109375
1772702010269498400,5.324498291015625,-0.3741302490234375,0.0896453857421875,0.03973388671875
1772702010279548200,5.334548095703125,-0.3738250732421875,0.050933837890625,-0.0600128173828125
1772702010289597200,5.34459716796875,-0.303009033203125,0.01544189453125,-0.1000823974609375
1772702010299646200,5.354646240234375,-0.2180938720703125,-0.029937744140625,-0.0918731689453125
1772702010309695200,5.3646953125,-0.1710662841796875,-0.083984375,-0.047515869140625
1772702010319744300,5.374744140625,-0.1344757080078125,-0.0987701416015625,0.062835693359375
1772702010329794000,5.3847939453125,-0.0908050537109375,-0.0829620361328125,0.1325531005859375
1772702010339843300,5.39484326171875,-0.0508575439453125,-0.07183837890625,0.1409454345703125
1772702010349892000,5.40489208984375,-0.0089111328125,-0.0762176513671875,0.1375885009765625
1772702010359941000,5.414941162109375,0.0142669677734375,-0.0729217529296875,0.13836669921875
1772702010369990400,5.424990478515625,0.011383056640625,-0.05712890625,0.1532745361328125
1772702010380040200,5.435040283203125,-0.038482666015625,-0.027679443359375,0.1676483154296875
1772702010390089200,5.445089111328125,-0.129425048828125,0.0065155029296875,0.18719482421875
1772702010400138200,5.45513818359375,-0.246734619140625,0.0355377197265625,0.2324676513671875
1772702010410187300,5.465187255859375,-0.372650146484375,0.0604095458984375,0.3173980712890625
1772702010420236300,5.475236328125,-0.47607421875,0.112213134765625,0.405242919921875
1772702010430285800,5.485285888671875,-0.5929107666015625,0.1788787841796875,0.4898529052734375
1772702010440335000,5.495335205078125,-0.7979278564453125,0.2515869140625,0.5840301513671875
1772702010450384000,5.5053837890625,-1.08624267578125,0.305999755859375,0.7287445068359375
1772702010460433000,5.515432861328125,-1.3722991943359375,0.370147705078125,0.882568359375
1772702010470482000,5.52548193359375,-1.6383056640625,0.4831085205078125,1.0625152587890625
1772702010480532000,5.535531982421875,-1.888153076171875,0.6331024169921875,1.2729034423828125
1772702010490581000,5.5455810546875,-2.0423583984375,0.74542236328125,1.4676513671875
1772702010500630000,5.555630126953125,-1.9551544189453125,0.8381195068359375,1.6111907958984375
1772702010510679000,5.565678955078125,-1.7956390380859375,0.8654022216796875,1.72052001953125
1772702010520727800,5.575727783203125,-1.77349853515625,0.93743896484375,1.9450531005859375
1772702010530777900,5.58577783203125,-1.8257293701171875,1.02789306640625,2.1901092529296875
1772702010540827100,5.5958271484375,-1.81048583984375,1.0937957763671875,2.2697601318359375
1772702010550876000,5.6058759765625,-1.736968994140625,1.1217193603515625,1.88861083984375
1772702010560925000,5.615925048828125,-1.572509765625,1.0971221923828125,1.4523468017578125
1772702010570974000,5.625973876953125,-1.4865570068359375,0.9907073974609375,1.265777587890625
1772702010581024000,5.63602392578125,-1.3624420166015625,0.8589630126953125,1.1145477294921875
1772702010591073000,5.646072998046875,-1.172821044921875,0.78363037109375,0.9895172119140625
1772702010601121800,5.656121826171875,-0.9716033935546875,0.7299346923828125,0.897674560546875
1772702010611171000,5.666171142578125,-0.809051513671875,0.6461334228515625,0.8539581298828125
1772702010621221000,5.67622119140625,-0.6900482177734375,0.5403289794921875,0.85260009765625
1772702010631270000,5.686269775390625,-0.587738037109375,0.43658447265625,0.861663818359375
1772702010641319000,5.69631884765625,-0.5433197021484375,0.3500213623046875,0.8460540771484375
1772702010651368000,5.706367919921875,-0.52105712890625,0.3154449462890625,0.8046722412109375
1772702010661417000,5.7164169921875,-0.510650634765625,0.302825927734375,0.7493743896484375
1772702010671467000,5.726467041015625,-0.51837158203125,0.2510986328125,0.7409515380859375
1772702010681516000,5.73651611328125,-0.5368194580078125,0.172088623046875,0.746337890625
1772702010691565000,5.74656494140625,-0.547119140625,0.11907958984375,0.71209716796875
1772702010701613800,5.75661376953125,-0.540496826171875,0.1491546630859375,0.668365478515625
1772702010711663000,5.7666630859375,-0.5319976806640625,0.18115234375,0.636077880859375
1772702010721713200,5.776713134765625,-0.5098876953125,0.1833953857421875,0.6161956787109375
1772702010731762000,5.786761962890625,-0.4951934814453125,0.200439453125,0.6248626708984375
1772702010741811000,5.79681103515625,-0.4886474609375,0.23773193359375,0.6353759765625
1772702010751860000,5.80685986328125,-0.5062103271484375,0.271087646484375,0.639190673828125
1772702010761909000,5.816908935546875,-0.5322723388671875,0.2856903076171875,0.6391143798828125
1772702010771959000,5.826958984375,-0.5325164794921875,0.302032470703125,0.6254730224609375
1772702010782007800,5.8370078125,-0.5016326904296875,0.3145599365234375,0.6153106689453125
1772702010792057000,5.84705712890625,-0.4611053466796875,0.31390380859375,0.6256256103515625
1772702010802105900,5.85710595703125,-0.4316558837890625,0.29962158203125,0.65118408203125
1772702010812155100,5.867155029296875,-0.420074462890625,0.294830322265625,0.6640625
1772702010822205200,5.877205078125,-0.4204864501953125,0.3003082275390625,0.6613311767578125
1772702010832254000,5.88725390625,-0.425140380859375,0.3033905029296875,0.640106201171875
1772702010842303000,5.897302978515625,-0.4253692626953125,0.3017120361328125,0.62225341796875
1772702010852352000,5.90735205078125,-0.4368743896484375,0.306854248046875,0.6200103759765625
1772702010862401000,5.917401123046875,-0.4612579345703125,0.3217926025390625,0.62188720703125
1772702010872451000,5.927451171875,-0.472198486328125,0.33843994140625,0.6233978271484375
1772702010882499800,5.937499755859375,-0.485107421875,0.3498992919921875,0.6482696533203125
1772702010892549000,5.947549072265625,-0.519622802734375,0.35162353515625,0.699249267578125
1772702010902598000,5.957597900390625,-0.5631561279296875,0.345672607421875,0.7575225830078125
1772702010912647000,5.96764697265625,-0.6312255859375,0.34600830078125,0.8103485107421875
1772702010922697000,5.977697021484375,-0.7447967529296875,0.3647308349609375,0.853179931640625
1772702010932746000,5.98774609375,-0.8647613525390625,0.4047393798828125,0.922027587890625
1772702010942795000,5.997794921875,-0.9931640625,0.4578857421875,1.02716064453125
1772702010952844000,6.007843994140625,-1.18646240234375,0.5159912109375,1.188995361328125
1772702010962893000,6.01789306640625,-1.389739990234375,0.565277099609375,1.3435821533203125
1772702010972943000,6.027943115234375,-1.5458221435546875,0.5765838623046875,1.44854736328125
1772702010982992000,6.037991943359375,-1.7293701171875,0.6088409423828125,1.566741943359375
1772702010993041200,6.048041259765625,-1.943634033203125,0.6782073974609375,1.7227630615234375
1772702011003090000,6.05808984375,-2.1671142578125,0.733734130859375,1.876678466796875
1772702011013140000,6.068139892578125,-2.3544921875,0.7932586669921875,1.982208251953125
1772702011023189000,6.07818896484375,-2.4785614013671875,0.8327178955078125,2.0390625
1772702011033238000,6.088238037109375,-2.5494232177734375,0.82489013671875,2.0638275146484375
1772702011043287000,6.098287109375,-2.5506744384765625,0.8537750244140625,2.083465576171875
1772702011053335800,6.108335693359375,-2.4564056396484375,0.9129791259765625,2.009552001953125
1772702011063385900,6.1183857421875,-2.243072509765625,0.9368133544921875,1.8050079345703125
1772702011073435100,6.12843505859375,-1.9136505126953125,0.894134521484375,1.5555267333984375
1772702011083484000,6.13848388671875,-1.4582366943359375,0.8203582763671875,1.2885284423828125
1772702011093533000,6.148532958984375,-0.95989990234375,0.7497711181640625,1.0411834716796875
1772702011103582000,6.15858203125,-0.5152435302734375,0.66485595703125,0.82623291015625
1772702011113632000,6.168632080078125,-0.150543212890625,0.5395660400390625,0.6203765869140625
1772702011123681000,6.178680908203125,0.135894775390625,0.3577728271484375,0.472381591796875
1772702011133730000,6.18872998046875,0.357452392578125,0.172698974609375,0.337677001953125
1772702011143779000,6.198779052734375,0.59381103515625,0.087799072265625,0.197509765625
1772702011153827800,6.208827880859375,0.8571014404296875,0.0939788818359375,0.1040802001953125
1772702011163878000,6.2188779296875,1.053070068359375,0.11328125,0.0303955078125
1772702011173927200,6.22892724609375,1.170867919921875,0.0434112548828125,-0.04034423828125
1772702011183976000,6.238975830078125,1.2239990234375,-0.07720947265625,-0.10333251953125
1772702011194025000,6.24902490234375,1.1651153564453125,-0.1611175537109375,-0.0932464599609375
1772702011204074000,6.259073974609375,1.11041259765625,-0.238616943359375,-0.0354461669921875
1772702011214124000,6.2691240234375,1.0528564453125,-0.3378143310546875,0.00244140625
1772702011224173000,6.279173095703125,0.911651611328125,-0.376983642578125,0.0487213134765625
1772702011234221800,6.289221923828125,0.7833099365234375,-0.3720245361328125,0.034027099609375
1772702011244271000,6.29927099609375,0.6927337646484375,-0.3486175537109375,-0.033172607421875
1772702011254319900,6.30931982421875,0.5661468505859375,-0.3167266845703125,-0.0922698974609375
1772702011264370000,6.319369873046875,0.462188720703125,-0.270782470703125,-0.1063385009765625
1772702011274419000,6.3294189453125,0.4052276611328125,-0.205474853515625,-0.0541229248046875
1772702011284468000,6.339468017578125,0.329010009765625,-0.1217193603515625,-0.0076446533203125
1772702011294517000,6.34951708984375,0.223297119140625,-0.0329132080078125,0.0286865234375
1772702011304566000,6.35956591796875,0.1066741943359375,0.0313568115234375,0.06304931640625
1772702011314616000,6.369615966796875,0.015777587890625,0.06036376953125,0.10992431640625
1772702011324665000,6.3796650390625,-0.047760009765625,0.071136474609375,0.1385345458984375
1772702011334713900,6.3897138671875,-0.0814666748046875,0.06109619140625,0.154693603515625
1772702011344763100,6.39976318359375,-0.08343505859375,0.047332763671875,0.1674041748046875
1772702011354813200,6.409813232421875,-0.09588623046875,0.04949951171875,0.17718505859375
1772702011364862000,6.419862060546875,-0.124420166015625,0.0778045654296875,0.1631622314453125
1772702011374911000,6.429910888671875,-0.1680145263671875,0.1154937744140625,0.1262359619140625
1772702011384960000,6.4399599609375,-0.21160888671875,0.118316650390625,0.0865020751953125
1772702011395009000,6.450009033203125,-0.228179931640625,0.084686279296875,0.10284423828125
1772702011405059000,6.46005908203125,-0.231109619140625,0.0468597412109375,0.1371917724609375
1772702011415107800,6.47010791015625,-0.2204742431640625,0.02362060546875,0.1613922119140625
1772702011425156900,6.480156982421875,-0.2245025634765625,0.0141754150390625,0.1970367431640625
1772702011435206000,6.490205810546875,-0.2499237060546875,0.0287322998046875,0.2484130859375
1772702011445255000,6.5002548828125,-0.2839202880859375,0.0660400390625,0.27801513671875
1772702011455305000,6.510304931640625,-0.3636016845703125,0.1077117919921875,0.3222503662109375
1772702011465354000,6.52035400390625,-0.5019989013671875,0.1445465087890625,0.4124908447265625
1772702011475402800,6.53040283203125,-0.6488800048828125,0.21240234375,0.5141143798828125
1772702011485452000,6.5404521484375,-0.7802276611328125,0.3065338134765625,0.563629150390625
1772702011495500800,6.550500732421875,-0.894622802734375,0.396148681640625,0.5917816162109375
1772702011505550800,6.56055078125,-1.0032196044921875,0.4404144287109375,0.6639404296875
1772702011515600000,6.570599853515625,-1.135498046875,0.4785614013671875,0.76849365234375
1772702011525649000,6.58064892578125,-1.4563140869140625,0.5807647705078125,0.9636993408203125
1772702011535698000,6.590697998046875,-1.8217315673828125,0.669830322265625,1.2195892333984375
1772702011545746700,6.60074658203125,-2.0300445556640625,0.8769989013671875,1.4122772216796875
1772702011555796700,6.610796630859375,-2.1485748291015625,1.09014892578125,1.5543060302734375
1772702011565846000,6.620845947265625,-2.2428131103515625,1.17791748046875,1.718353271484375
1772702011575894800,6.630894775390625,-2.3406219482421875,1.15545654296875,1.775360107421875
1772702011585944000,6.640944091796875,-2.2633209228515625,1.0723114013671875,1.6381683349609375
1772702011595994000,6.650994140625,-1.9992523193359375,0.987060546875,1.46258544921875
1772702011606043000,6.66104296875,-1.7880096435546875,0.9032745361328125,1.451873779296875
1772702011616092000,6.671091796875,-1.631011962890625,0.8410491943359375,1.5526580810546875
1772702011626141000,6.681140869140625,-1.6859130859375,0.75830078125,1.5379486083984375
1772702011636190000,6.69118994140625,-1.8028717041015625,0.625396728515625,1.0229949951171875
1772702011646240000,6.701239990234375,-1.5844268798828125,0.584930419921875,0.8439483642578125
1772702011656288800,6.711288818359375,-1.2288360595703125,0.280242919921875,0.783447265625
1772702011666338000,6.721338134765625,-1.0659332275390625,0.19366455078125,0.6707305908203125
1772702011676386800,6.73138671875,-0.8278961181640625,0.2140960693359375,0.654052734375
1772702011686435800,6.741435791015625,-0.5842742919921875,0.205657958984375,0.6579132080078125
1772702011696486000,6.75148583984375,-0.5595245361328125,0.2435302734375,0.6574249267578125
1772702011706535000,6.761534912109375,-0.739715576171875,0.335906982421875,0.6651458740234375
1772702011716584000,6.771583984375,-0.7746124267578125,0.4127960205078125,0.690643310546875
1772702011726633000,6.781633056640625,-0.7704925537109375,0.55780029296875,0.7440032958984375
1772702011736682000,6.791681884765625,-0.7326812744140625,0.6493072509765625,0.809661865234375
1772702011746732000,6.80173193359375,-0.6431427001953125,0.6327362060546875,0.8758087158203125
1772702011756780800,6.81178076171875,-0.5953369140625,0.5591888427734375,0.8896026611328125
1772702011766830000,6.821830078125,-0.5954742431640625,0.4775390625,0.8874969482421875
1772702011776878800,6.83187890625,-0.559844970703125,0.4501953125,0.8725433349609375
1772702011786929000,6.841928955078125,-0.5570831298828125,0.4520721435546875,0.82879638671875
1772702011796978000,6.85197802734375,-0.5789337158203125,0.4516143798828125,0.7805633544921875
1772702011807027000,6.86202685546875,-0.576629638671875,0.434661865234375,0.7038726806640625
1772702011817076000,6.872075927734375,-0.577423095703125,0.408843994140625,0.619049072265625
1772702011827124700,6.882124755859375,-0.5734100341796875,0.396087646484375,0.5509185791015625
1772702011837174800,6.8921748046875,-0.5927886962890625,0.384918212890625,0.5063323974609375
1772702011847224000,6.90222412109375,-0.638519287109375,0.3933563232421875,0.473785400390625
1772702011857272800,6.91227294921875,-0.64788818359375,0.34552001953125,0.521514892578125
1772702011867321900,6.92232177734375,-0.647430419921875,0.3414459228515625,0.507598876953125
1772702011877371000,6.932370849609375,-0.631134033203125,0.3689727783203125,0.4658050537109375
1772702011887421000,6.9424208984375,-0.624176025390625,0.356536865234375,0.44024658203125
1772702011897470000,6.952469970703125,-0.6223297119140625,0.3218841552734375,0.4416961669921875
1772702011907519000,6.96251904296875,-0.613006591796875,0.2983856201171875,0.4474029541015625
1772702011917568000,6.972568115234375,-0.6183013916015625,0.298187255859375,0.4467926025390625
1772702011927616800,6.98261669921875,-0.64752197265625,0.298980712890625,0.4476165771484375
1772702011937666800,6.992666748046875,-0.6922454833984375,0.2991485595703125,0.443389892578125
1772702011947716000,7.002716064453125,-0.7189483642578125,0.3023223876953125,0.4485626220703125
1772702011957764900,7.012764892578125,-0.7294921875,0.303741455078125,0.4471893310546875
1772702011967814000,7.02281396484375,-0.741851806640625,0.29168701171875,0.446868896484375
1772702011977863000,7.03286279296875,-0.7476043701171875,0.289642333984375,0.447296142578125
1772702011987913000,7.042912841796875,-0.754669189453125,0.2920684814453125,0.4687042236328125
1772702011997962000,7.0529619140625,-0.7580413818359375,0.2978363037109375,0.48126220703125
1772702012008010800,7.0630107421875,-0.750885009765625,0.3026275634765625,0.49920654296875
1772702012018060000,7.07306005859375,-0.7440948486328125,0.3196868896484375,0.5243072509765625
1772702012028109800,7.08310986328125,-0.7384490966796875,0.3393096923828125,0.5377197265625
1772702012038158800,7.093158935546875,-0.7382659912109375,0.338287353515625,0.544097900390625
1772702012048208000,7.103207763671875,-0.716278076171875,0.337249755859375,0.5394439697265625
1772702012058257000,7.1132568359375,-0.69329833984375,0.337738037109375,0.5387725830078125
1772702012068306000,7.123305908203125,-0.6895599365234375,0.316650390625,0.558837890625
1772702012078355700,7.133355712890625,-0.681854248046875,0.28875732421875,0.587310791015625
1772702012088405000,7.143405029296875,-0.6776123046875,0.2705230712890625,0.5973358154296875
1772702012098454000,7.1534541015625,-0.670562744140625,0.26580810546875,0.5970458984375
1772702012108502800,7.163502685546875,-0.6573028564453125,0.260986328125,0.582916259765625
1772702012118552000,7.173552001953125,-0.6591644287109375,0.254150390625,0.56146240234375
1772702012128601900,7.183601806640625,-0.6542510986328125,0.2573089599609375,0.54876708984375
1772702012138651000,7.19365087890625,-0.6590118408203125,0.2658233642578125,0.531982421875
1772702012148700000,7.203699951171875,-0.659759521484375,0.2732086181640625,0.535736083984375
1772702012158749000,7.2137490234375,-0.668304443359375,0.28125,0.53314208984375
1772702012168798000,7.2237978515625,-0.673370361328125,0.28851318359375,0.5351715087890625
1772702012178847700,7.23384765625,-0.6887359619140625,0.298553466796875,0.53338623046875
1772702012188896800,7.243896728515625,-0.7045135498046875,0.305999755859375,0.53082275390625
1772702012198946000,7.253946044921875,-0.71685791015625,0.3049163818359375,0.5293426513671875
1772702012208994800,7.263994873046875,-0.735992431640625,0.3047332763671875,0.52783203125
1772702012219044900,7.274044921875,-0.7630462646484375,0.314361572265625,0.5360870361328125
1772702012229094000,7.284093994140625,-0.791168212890625,0.323699951171875,0.551239013671875
1772702012239143000,7.294142822265625,-0.80908203125,0.3278350830078125,0.56024169921875
1772702012249192000,7.30419189453125,-0.8524169921875,0.3336334228515625,0.5725250244140625
1772702012259241000,7.314240966796875,-0.79052734375,0.29644775390625,0.576202392578125
1772702012269291000,7.324291015625,-0.7624053955078125,0.2977447509765625,0.544921875
1772702012279339800,7.33433984375,-0.8541107177734375,0.2816009521484375,0.540740966796875
1772702012289388800,7.344388916015625,-0.8733062744140625,0.2044219970703125,0.5740814208984375
1772702012299438000,7.35443798828125,-0.9266510009765625,0.2147674560546875,0.5662078857421875
1772702012309486800,7.36448681640625,-0.95941162109375,0.2663116455078125,0.5336151123046875
1772702012319537000,7.374536865234375,-0.96893310546875,0.2794647216796875,0.532440185546875
1772702012329585700,7.384585693359375,-0.960968017578125,0.284454345703125,0.5518951416015625
1772702012339635000,7.394635009765625,-0.9141082763671875,0.2818756103515625,0.5531463623046875
1772702012349684000,7.40468408203125,-0.87261962890625,0.281158447265625,0.5383148193359375
