time,seconds_elapsed,z,y,x
1772702651252882700,0.061882568359375,0.07801701339930295,-0.05098229147940874,0.025426117679476737
1772702651262932500,0.071932373046875,0.03928600846678018,-0.06846797154843806,0.037377836757898325
1772702651272982500,0.081982421875,-0.017274083144962787,-0.018988485847413538,0.036404607811570164
1772702651283032600,0.092032470703125,-0.11337766511589288,0.011860241402685642,0.025000585743784904
1772702651293082600,0.10208251953125,-0.15338029741942882,0.022738778291642666,0.033623452660441394
1772702651303132400,0.11213232421875,-0.1033580831438303,0.047021278893947596,-0.010097615644335747
1772702651313182700,0.1221826171875,-0.013575520887970923,0.057471361237764355,-0.01308335345685482
1772702651323231700,0.132231689453125,0.0013993454039096832,0.0565109917730093,-0.020766309174895286
1772702651333281500,0.142281494140625,-0.015508534777164459,0.018181261117756364,-0.049366380715370174
1772702651343331600,0.15233154296875,-0.0388473247885704,-0.013234452365338802,-0.02757657371163368
1772702651353381600,0.162381591796875,-0.06302724179923534,-0.013083937978744506,-0.023685996013879773
1772702651363431700,0.172431640625,-0.06658288845419884,0.008071662774682044,-0.01788870791196823
1772702651373481500,0.1824814453125,-0.03836480196863413,0.021507482931017875,-0.02078793648481369
1772702651383531500,0.192531494140625,-0.03009586305618286,0.03946311859935522,-0.011345569878816604
1772702651393580800,0.202580810546875,-0.005796995840966701,0.030486323678493497,-0.02374503272473812
1772702651403630800,0.212630859375,-0.03515168514102697,0.04593231461346149,-0.0457271474301815
1772702651413680600,0.2226806640625,-0.061245034557580944,0.021667641928792,-0.02621814484000206
1772702651423730700,0.232730712890625,-0.0428512997329235,0.020006138457357884,-0.028330022427439688
1772702651433780700,0.24278076171875,-0.0380216876193881,0.01650017616301775,-0.04166822742819786
1772702651443830800,0.252830810546875,-0.03790712132900953,0.03867138369977474,-0.027658406776189803
1772702651453880600,0.262880615234375,-0.05333031591027975,0.0231751238822937,0.021639584878087044
1772702651463930600,0.2729306640625,-0.04594195922464132,-0.003429389926791191,0.010513210707902908
1772702651473979600,0.282979736328125,-0.029542613087594507,-0.0012014847442507743,0.021820202142000197
1772702651484029400,0.293029541015625,-0.03671615797877312,-0.007609305959939956,0.02540332132577896
1772702651494079500,0.30307958984375,-0.04733312132209539,-0.024555180063843725,0.005492752197384834
1772702651504129500,0.313129638671875,-0.04319499860405922,-0.019132862754166126,-0.012450316250324249
1772702651514179600,0.3231796875,-0.02985708586424589,0.0026651275560259815,-0.011997896307706831
1772702651524229600,0.333229736328125,-0.034762685823440546,0.021942367216944692,-0.00571077886223793
1772702651534279700,0.34327978515625,-0.021352000108361243,0.006309621538221836,0.016917817053198815
1772702651544329700,0.353329833984375,-0.006651566843688487,-0.010270926384627819,-0.018375614646077156
1772702651554378500,0.36337841796875,-0.012957096728682517,-0.03321019568443298,-0.026609189984202385
1772702651564428500,0.373428466796875,-0.03175941235423088,-0.028569384141266346,-0.0033089784175157544
1772702651574478600,0.383478515625,-0.03783084122240543,-0.03879676364511251,-0.007142272970080375
1772702651584528600,0.393528564453125,-0.02461860068887472,-0.018420330570638178,0.005451835665106773
1772702651594578400,0.403578369140625,-0.04172697187811136,0.0035158991664648053,0.023256956946849823
1772702651604628500,0.41362841796875,-0.049013037233054634,0.01949351276010275,0.026560674667358397
1772702651614678500,0.423678466796875,-0.02040127525478601,0.02662204946577549,0.012117138773202895
1772702651624728600,0.433728515625,0.009983049353957175,0.02922404865771532,0.0034767361998558045
1772702651634777600,0.443777587890625,0.002118307328224182,0.015476386073231697,0.012419921112060545
1772702651644827600,0.45382763671875,-0.030297815369069576,-0.012774725899100304,0.022447394129633903
1772702651654877700,0.463877685546875,-0.038916882893443104,-0.038653263521194456,0.03746142338812351
1772702651664927700,0.473927734375,-0.02307107898592949,-0.03605126432925462,0.03599018179178238
1772702651674977500,0.4839775390625,-0.030236732831597328,-0.017626549844443798,0.016836568510532376
1772702651685027600,0.494027587890625,-0.02863572737574577,-0.020064298385381697,-0.010520224970579146
1772702651695077600,0.50407763671875,-0.06078092417716979,-0.031465397843718525,-0.0071305825322866435
1772702651705127700,0.514127685546875,-0.06599076777994632,-0.035845512624084946,-0.014301497074961662
1772702651715176700,0.5241767578125,-0.04416647398471832,-0.008913958817720412,-0.0017237550526857375
1772702651725226800,0.534226806640625,-0.036347909188270563,-0.027047873662412163,0.0216109433054924
1772702651735276800,0.54427685546875,-0.01352817461490631,-0.0342290173381567,0.01952478468120098
1772702651745326600,0.55432666015625,-0.0017898060262203216,-0.03194499805420637,0.006202946293354034
1772702651755376600,0.564376708984375,-0.003642448155581951,-0.009216741156578064,0.016837153032422066
1772702651765426700,0.5744267578125,0.0038604748204350467,0.00044160628765821456,0.028950784674286842
1772702651775476700,0.584476806640625,-0.01593289766907692,0.00039630584120750427,0.043164603465795516
1772702651785526500,0.594526611328125,-0.05608312174975872,0.008689502412080764,0.040996027255058284
1772702651795575600,0.604575439453125,-0.05359656563103199,0.011268705250322818,0.03534311605989933
1772702651805625600,0.61462548828125,-0.03496171552687883,0.003065525050461292,0.015257774886488914
1772702651815675600,0.624675537109375,-0.03156330526024103,-0.001625263114273548,0.021110592567920684
1772702651825725400,0.634725341796875,-0.02294160738736391,0.00556260256320238,0.011871055057644844
1772702651835775500,0.644775390625,-0.003010579992830753,0.0058890580385923385,0.003925064489245415
1772702651845825800,0.65482568359375,-0.014442659111320972,0.002144610813260078,-0.006264321091771125
1772702651855875800,0.664875732421875,-0.03683627722710371,-0.005914484740793704,-0.008445172262191773
1772702651865924600,0.674924560546875,-0.023323007920384407,-0.012529811227321623,0.0075146134138107295
1772702651875973600,0.6849736328125,-0.004591127182543278,-0.010972644913196564,0.011252630898356437
1772702651886023700,0.695023681640625,0.0006900280907750129,-0.00952624549716711,0.019924597653746604
1772702651896073700,0.70507373046875,0.004994155025482177,-0.004071779483556747,0.008481997141242027
1772702651906123500,0.71512353515625,-0.02133154184222221,-0.009257949949800968,0.000709025052189827
1772702651916173800,0.725173828125,-0.03071487173736095,0.0020148469537496568,-0.006904957082867622
1772702651926224000,0.735223876953125,-0.03148760967552662,0.0012958850294351577,0.006627893707156181
1772702651936274000,0.74527392578125,-0.027484803774952885,0.0026119360640645024,-0.0023094459861516953
1772702651946323700,0.75532373046875,-0.01576718571335077,0.018160802851617336,0.009327215793728827
1772702651956372700,0.765372802734375,-0.023927403554320333,-0.006656535279750824,0.012833762609958648
1772702651966422800,0.7754228515625,-0.018150865979492663,-0.0028767244800925254,0.010650573351979255
1772702651976472600,0.78547265625,-0.020553543207049368,-0.00011135141998529433,0.008847323322296142
1772702651986522600,0.795522705078125,-0.02477232994586229,0.0009092237994074821,0.0026128128468990326
1772702651996572700,0.80557275390625,-0.012305354821681975,0.0047141690403223035,0.005195815077424049
1772702652006622700,0.815622802734375,-0.008837678711116313,0.025336101308465003,-0.001640168422460556
1772702652016672500,0.825672607421875,-0.016070552574098108,0.008974456833302974,0.013544541227817534
1772702652026722600,0.83572265625,-0.019700433509051797,-0.003109364192187786,0.006021159985661506
1772702652036771800,0.845771728515625,-0.00884790784418583,0.017299509847164152,0.021981530183553696
1772702652046821600,0.855821533203125,-0.023217209458351134,0.023607085558772084,0.004959083712100983
1772702652056871700,0.86587158203125,-0.036223406025767325,0.005767769746482372,-0.03091711631119251
1772702652066921700,0.875921630859375,-0.02181874083727598,0.01237052901238203,-0.02201484793126583
1772702652076971800,0.8859716796875,-0.013437281461060047,0.00199029703438282,-0.02793605467379093
1772702652087021600,0.896021484375,-0.003559446047246456,0.013889116881787776,-0.04022679644823074
1772702652097071600,0.906071533203125,0.008044190245866775,0.008994915099442004,-0.022144027268886566
1772702652107121700,0.91612158203125,0.0008908113598823546,0.023499241270124913,0.01015840592086315
1772702652117170700,0.926170654296875,-0.001150046817958355,0.04732873740792274,-0.0011497545570135115
1772702652127220700,0.936220703125,-0.017590017226338385,0.05202449400871992,-0.011336802050471306
1772702652137270800,0.946270751953125,-0.03684942896962166,0.04268295742869377,-0.023293781825900077
1772702652147320800,0.95632080078125,-0.036633448131382466,0.027021862438321113,-0.0073369187593460075
1772702652157371000,0.966370849609375,-0.011712065103650093,0.016978899590671063,0.01210427929162979
1772702652167420700,0.976420654296875,0.0073494859799742695,-0.00047901568859815593,0.0233189162671566
1772702652177470700,0.986470703125,0.0056266077101230615,0.0048643911659717555,0.008896423161029815
1772702652187520800,0.996520751953125,-0.01701777029633522,-0.011196809057891369,0.007813888621330261
1772702652197569500,1.006569580078125,0.006108838269114494,-0.012408522935211658,0.01582183851003647
1772702652207619600,1.01661962890625,0.013930910196900367,-0.004393558783829212,-0.00013210194706916807
1772702652217669600,1.026669677734375,-0.0034156536623835563,0.00855681594312191,0.005202244818210602
1772702652227719700,1.0367197265625,-0.009254150557518005,0.01390022279769182,0.014742811101675033
1772702652237769700,1.046769775390625,-0.018548633125424385,0.00455050291121006,0.014981880554556846
1772702652247819800,1.05681982421875,0.0015279402196407318,0.008574351599812508,0.003925649011135101
1772702652257869800,1.066869873046875,-0.0054696635827422135,0.010055822329223155,-0.023797055172920224
1772702652267920000,1.076919921875,-0.027633856856822965,0.00457271474301815,-0.02588262927532196
1772702652277968600,1.08696875,-0.02350070257484913,0.009662146836519241,-0.011295885518193244
1772702652288018700,1.097018798828125,-0.019126725274324415,-0.008569967685639857,-0.010908347505331038
1772702652298068700,1.10706884765625,-0.015028350044786929,0.012957973511517047,-0.005435469052195548
1772702652308118800,1.117118896484375,-0.018235037131607533,0.032032676337659355,0.0017693477600812912
1772702652318168600,1.12716845703125,-0.026303777296841142,0.02269113975763321,0.027866496568918226
1772702652328218600,1.137218505859375,-0.005869184294342994,0.004248305094242096,0.02125321590900421
1772702652338268700,1.1472685546875,0.0036447862431406974,0.0035413258686661717,0.0007528641939163207
1772702652348318700,1.157318603515625,-0.006241816999018192,0.005145546194911003,-0.004514847075939178
1772702652358367700,1.16736767578125,-0.025562019018828867,-0.008097089476883411,0.0006873977422714233
1772702652368417800,1.177417724609375,-0.048715807852149004,-0.01769581568837166,0.0030488661766052243
1772702652378467800,1.1874677734375,-0.046993221843242644,-0.02509790863841772,-0.01855097121298313
1772702652388517600,1.197517578125,-0.04783434884250164,-0.020070435865223408,-0.031873394122719764
1772702652398567700,1.207567626953125,-0.04770049332976341,0.004812660978734493,-0.03624970951080322
1772702652408617700,1.21761767578125,-0.05261807598769665,-0.00817249280065298,-0.03296060483753681
1772702652418667800,1.227667724609375,-0.04597030853629112,-0.038645372475683684,0.00023556232154369353
1772702652428717600,1.237717529296875,-0.0067912675753235814,-0.0308718158647418,0.024066519764065743
1772702652438766600,1.2477666015625,-0.01481003111898899,-0.01367635091394186,0.04220715661048889
1772702652448817000,1.25781689453125,-0.004010112424194813,0.004554594564437866,0.03761047646999359
1772702652458866700,1.26786669921875,-0.014770868152379988,-0.000993102690577507,0.05183481665551662
1772702652468916700,1.277916748046875,-0.03961801690012216,0.02133124958127737,0.055087096449732774
1772702652478966800,1.287966796875,-0.04184387625604868,0.037656069177389145,0.04806172785758972
1772702652489016800,1.298016845703125,-0.015201076263189315,0.004493512026965618,-0.015129180070757866
1772702652499066600,1.308066650390625,0.011756488767266272,0.03386456793993711,0.00022504092752933502
1772702652509116700,1.31811669921875,-0.018660569067299366,0.05606997000724077,0.003587795358896255
1772702652519166700,1.328166748046875,0.010824176353216171,0.0225803728595376,-0.007738485297560691
1772702652529215700,1.3382158203125,-0.021328326971828935,-0.005439268444478512,-0.010351882666349411
1772702652539265500,1.348265625,-0.07157324408739804,-0.016014146211743355,-0.009437105908989905
1772702652549315600,1.358315673828125,-0.055071022097766396,-0.012994506129622458,-0.022126491612195966
1772702652559365600,1.36836572265625,0.0032619244053959844,-0.021931261301040648,-0.03335106545984745
1772702652569415700,1.378415771484375,0.034468379051983355,0.0009539397239685058,0.03405775242447853
1772702652579465700,1.3884658203125,0.03345481809526682,-0.0028854923084378242,0.03275076147913933
1772702652589515800,1.398515869140625,-0.02262859591543674,-0.018523790945112705,0.01880290014743805
1772702652599565800,1.40856591796875,-0.06610767215788364,-0.013005027523636817,0.013849077132344245
1772702652609614600,1.418614501953125,-0.05088847571611404,0.01175005902647972,-0.011547229930758476
1772702652619664600,1.42866455078125,-0.03363338953256607,0.021362521502375602,-0.010277063864469528
1772702652629714700,1.438714599609375,-0.032697277726233,0.023863398407399653,-0.028141221857070922
1772702652639764700,1.4487646484375,-0.018738602739572525,0.017279343841969965,0.005378185907006263
1772702652649814500,1.458814453125,-0.01480915433615446,0.011996435002982616,0.007968786922097206
1772702652659864600,1.468864501953125,0.0012084990069270132,0.025291093122959137,-0.008868950632214545
1772702652669914600,1.47891455078125,-0.05399959347397089,0.020657295842468736,-0.010861001232266425
1772702652679963600,1.488963623046875,-0.05940349834412336,-0.006499883413314819,0.009639350482821465
1772702652690013700,1.499013671875,-0.03031856589615345,-0.003633388066291809,0.04141337588429451
1772702652700063700,1.509063720703125,-0.029154782813787458,0.017891045999526976,0.025507366222143172
1772702652710113800,1.51911376953125,-0.003125438544154167,0.014609247849881648,-0.0048322424620389935
1772702652720163600,1.52916357421875,0.0023535773888230323,0.020401567515730856,0.005611410140991211
1772702652730213600,1.539213623046875,-0.0008513561323285102,0.021598960606753825,0.007525134807825088
1772702652740263700,1.549263671875,-0.013587503586709498,0.02629442494660616,0.01879354779720306
1772702652750313700,1.559313720703125,-0.04000672395676374,0.010674538749456406,0.02585691031217575
1772702652760363800,1.56936376953125,-0.05634615660011768,0.007986322578787803,0.012863573226332664
1772702652770412800,1.579412841796875,-0.053209319879114626,-0.0018926818788051604,0.007765957826375961
1772702652780462800,1.589462890625,-0.03318710706979036,0.006371288597583771,0.0007978723794221877
1772702652790513000,1.599512939453125,-0.014238076449930666,-0.007371113289892673,0.00979249521791935
1772702652800562700,1.609562744140625,0.016816402505338193,-0.025303660343587397,0.0017798691540956495
1772702652810612700,1.61961279296875,0.013139759819209574,-0.02789367683678865,0.007072714865207672
1772702652820662800,1.629662841796875,0.012009586745500563,0.010247837769985198,-0.003350479471683502
1772702652830712800,1.639712890625,-0.02377718142867088,0.0005558803170919418,0.013588964891433715
1772702652840761600,1.64976171875,-0.030531624124944208,0.002080313405394554,0.007637947532534599
1772702652850811600,1.659811767578125,-0.035087972255051135,-0.001458089853823185,-0.01268120239675045
1772702652860862200,1.6698623046875,-0.02314034482985735,0.000050268882513046264,0.0033066403299570083
1772702652870912300,1.679912353515625,-0.022503508231043814,-0.0038087446331977843,0.003925064489245415
1772702652880962000,1.689962158203125,-0.010113397735357283,-0.000251052151620388,0.00566109450161457
1772702652891012000,1.70001220703125,-0.007912088298797608,0.00360416197180748,0.02969020486474037
1772702652901062100,1.710062255859375,-0.005652326673269271,-0.006502806022763252,0.028782442370057105
1772702652911112200,1.7201123046875,0.015547405482828616,-0.02304097610861063,0.03142097418010235
1772702652921161200,1.7301611328125,0.030380232955515382,-0.016164368337392807,0.033248774129152295
1772702652931211300,1.740211181640625,0.024564824675023553,0.013773089286684989,0.027691724523901937
1772702652941261300,1.75026123046875,-0.005584522134065628,0.0069172320425510405,-0.012021277183294295
1772702652951311400,1.760311279296875,-0.03204056738317013,-0.0008057634249329567,-0.013965981510281562
1772702652961361200,1.770361083984375,-0.040941958980262275,-0.0005266542226076126,0.008780687826871872
1772702652971411200,1.7804111328125,-0.027523382219672203,0.007219722120463848,0.005346621724963188
1772702652981461200,1.790461181640625,-0.010217442631721496,0.0030792613148689267,0.017299509847164152
1772702652991511300,1.80051123046875,0.006750058782100677,-0.00352875864803791,0.03799041569828987
1772702653001560300,1.810560302734375,0.02521510527729988,0.004841302551329136,0.03656301324367523
1772702653011610400,1.8206103515625,0.01975011786967516,0.006236556302011012,-0.004191021949052811
1772702653021660400,1.830660400390625,-0.016046294915676117,-0.003237374486029148,-0.00012684125006198882
1772702653031710200,1.840710205078125,-0.032677988503873344,-0.008771919998526573,0.001499298647046089
1772702653041760300,1.85076025390625,-0.01603577352166176,-0.016807050155103205,0.00010229133069515228
1772702653051810300,1.860810302734375,0.00017886369824409484,-0.031570904044806954,0.018716390907764432
1772702653061860400,1.8708603515625,0.01889876173734665,-0.019354981072247028,0.03288520151376724
1772702653071910100,1.88091015625,0.007692308068275451,-0.01743424214273691,0.004303250151872635
1772702653081959200,1.890959228515625,-0.024070319156348705,-0.014231062187254428,-0.021786884394288063
1772702653092009200,1.90100927734375,-0.04365297150462866,-0.012946283073723315,-0.022713351589441298
1772702653102059000,1.91105908203125,-0.041483518511056895,-0.015764847625792024,-0.003113748106360435
1772702653112109300,1.921109375,-0.041586394363641734,-0.020890520076453683,-0.004679097726941108
1772702653122159400,1.931159423828125,-0.013023439963161944,-0.03153729403614998,0.025415011763572692
1772702653132209400,1.94120947265625,0.0026627894684672355,-0.04145370789468288,0.03852642227113247
1772702653142259500,1.951259521484375,-0.021008885759115217,-0.02059621330499649,0.05426584319472313
1772702653152309200,1.961309326171875,-0.005220072735846042,-0.0014195114091038704,0.05864800380170345
1772702653162358300,1.971358154296875,-0.007038228073716163,-0.008797931222617626,0.04029226289987564
1772702653172408300,1.981408203125,0.010890811848640441,0.0054430678367614746,0.03210837192237377
1772702653182458000,1.9914580078125,-0.020259528696537018,0.018472645279765127,0.014644611424207686
1772702653192508200,2.001508056640625,-0.027349779218435285,0.00497837293446064,0.02857084544599056
1772702653202558200,2.01155810546875,-0.037163024963438505,-0.0016287702456116676,0.03280629105865955
1772702653212608300,2.021608154296875,-0.03191138804554939,0.004693126252293587,0.018611761489510534
1772702653222658000,2.031657958984375,-0.019001345328986643,0.006549860034883022,-0.020001754543185233
1772702653232708000,2.0417080078125,0.0005918284133076667,0.007658405798673629,-0.022236381727457045
1772702653242757400,2.05175732421875,-0.008657645969092846,-0.0035281741261482236,-0.03426350412964821
1772702653252807200,2.06180712890625,-0.014615385329723358,-0.009805646960437297,-0.03208616009056568
1772702653262857200,2.071857177734375,-0.012555530190467833,-0.014926935496926306,-0.02791208927631378
1772702653272907300,2.0819072265625,-0.01730535506606102,0.0018725158736109732,-0.0024620061993598937
1772702653282957300,2.091957275390625,-0.03126636814028024,0.020513503457605838,0.004765022444725036
1772702653293007000,2.102007080078125,-0.026517712308466432,0.013675181870162487,0.011198270362615585
1772702653303057200,2.11205712890625,-0.03731032447963953,0.02349135022461414,-0.0012520458877086638
1772702653313107200,2.122107177734375,-0.04490706321895122,0.02827332380414009,-0.030887305694818495
1772702653323156500,2.132156494140625,-0.04066284977793693,-0.0005512041419744491,-0.0019961422532796856
1772702653333206300,2.142206298828125,-0.03664484630823135,-0.005497136111557483,-0.0009264671951532363
1772702653343256300,2.15225634765625,-0.030880291432142257,-0.009156827662885189,0.01284545304775238
1772702653353306400,2.162306396484375,-0.01730915445834398,-0.005915653784573077,0.008657938230037689
1772702653363356400,2.1723564453125,-0.021371581591665745,-0.012722411189973354,-0.011266659423708915
1772702653373406200,2.18240625,-0.018051789519190786,-0.0030927053183317185,-0.013577274453639984
1772702653383456300,2.192456298828125,-0.008916004644334315,0.008220131334662437,-0.005104629662632942
1772702653393506300,2.20250634765625,-0.0032508184894919395,0.03576806347370148,0.0013765490502119064
1772702653403555000,2.21255517578125,-0.01420008252710104,0.03475567156076431,-0.004461071062088012
1772702653413605000,2.222605224609375,-0.034090485650300976,0.027302725206315517,0.007165653845667839
1772702653423655200,2.2326552734375,-0.043213411043584345,0.006754150435328483,-0.00042377837002277374
1772702653433705200,2.242705322265625,-0.04471446325629949,0.015532207913696765,-0.00029109190106391906
1772702653443755300,2.25275537109375,-0.04048077120929956,-0.001656242774426937,0.009684358668327332
1772702653453805300,2.262805419921875,-0.026080197674036024,0.008002104669809341,0.00899812996983528
1772702653463855400,2.27285546875,-0.013677812218666076,0.017009294728934764,0.007380757901072501
1772702653473905400,2.282905517578125,-0.026983868515491484,0.023155250138044356,0.004033785560727119
1772702653483954200,2.2929541015625,-0.036187165668606754,0.0019558102428913113,-0.0003612345278263092
1772702653494004200,2.303004150390625,-0.039075872847437854,-0.02074000568985939,0.008155249404907226
1772702653504054300,2.31305419921875,-0.060042088508605956,-0.008607084825634955,0.0003454524368047714
1772702653514104000,2.32310400390625,-0.04798223288059234,-0.0007242226213216781,0.008576689687371254
1772702653524154000,2.333154052734375,-0.061946460825204844,0.004949439100921153,-0.013619360029697417
1772702653534204200,2.3432041015625,-0.06571604249179362,0.02222702937722206,-0.029833412727713584
1772702653544254200,2.353254150390625,-0.05337473957389593,0.012478665561974047,-0.01783376285433769
1772702653554304300,2.36330419921875,-0.04929039286971092,0.011883622278273104,-0.007490648016333579
1772702653564353300,2.373353271484375,-0.0380938760727644,0.010054068763554096,0.010216858109831809
1772702653574403300,2.3834033203125,-0.03543050208240747,-0.0022872341543436047,0.019468670579791066
1772702653584453400,2.393453369140625,-0.023564123199880122,-0.011174304965138434,0.011011223357915878
1772702653594503200,2.403503173828125,-0.025658465130627153,-0.00824175864458084,0.020338439151644707
1772702653604553200,2.41355322265625,-0.04603197559565306,0.0019140169277787208,0.018009119421243665
1772702653614603300,2.423603271484375,-0.01829348932057619,0.009658931966125965,0.033175708892941476
1772702653624653300,2.4336533203125,-0.0050993689656257625,0.013580197063088417,0.014375146833062171
1772702653634703000,2.443703125,-0.006313713191449642,0.010144669656455517,0.015557634615898132
1772702653644752400,2.45375244140625,-0.01633709455579519,0.03037117286622524,-0.01464227333664894
1772702653654802400,2.463802490234375,-0.015352175171673296,0.024860592751204967,-0.020321488016843796
1772702653664852200,2.473852294921875,-0.03123831108957529,0.020660802973806857,-0.005953939968347549
1772702653674902300,2.48390234375,-0.04880933135449886,-0.006182195766270161,0.038732758498191834
1772702653684952300,2.493952392578125,-0.01504442439675331,-0.005362111555039882,0.03806874163150787
1772702653695002400,2.50400244140625,0.023548341108858582,-0.01231909108608961,0.005349544334411621
1772702653705052200,2.51405224609375,0.018989654891192913,-0.03415858245044946,0.00023205519020557403
1772702653715102200,2.524102294921875,0.02376724455654621,-0.008709960678219796,-0.0011813187390565872
1772702653725151200,2.534151123046875,0.01423749192804098,0.03210866418331861,0.018944938966631887
1772702653735201300,2.544201171875,-0.005341945549845695,0.05685206029564142,0.0105178868830204
1772702653745251000,2.5542509765625,0.008676642930507659,0.02759352484643459,-0.0004588496834039688
1772702653755301000,2.564301025390625,-0.022751930034160612,-0.009309972397983073,0.0014765022933483122
1772702653765351200,2.57435107421875,-0.0367167425006628,-0.0049973698958754535,-0.0163344642072916
1772702653775401500,2.5844013671875,-0.03839695067256689,-0.007209492987394333,-0.009033785805106163
1772702653785451300,2.594451171875,-0.031520927423238754,-0.02191986312419176,0.013189736440777778
1772702653795500300,2.604500244140625,-0.021200316677987573,-0.034086101736128326,0.013498363998532294
1772702653805550300,2.61455029296875,-0.006322773280739784,-0.04093348341286182,0.020785013875365257
1772702653815600000,2.62460009765625,0.013036007183790206,-0.025090602114796638,0.01959142017662525
1772702653825650200,2.634650146484375,0.0002253331884741783,-0.02007423525750637,0.03898293386697769
1772702653835700200,2.6447001953125,-0.013087445110082625,-0.013745324496924876,0.02883972551524639
1772702653845750300,2.654750244140625,-0.03602233049571514,-0.02223871981501579,0.0491997919768095
1772702653855800000,2.664800048828125,-0.03315992680191993,-0.01993862617909908,0.023030162453651425
1772702653865851100,2.67485107421875,-0.033114626355469225,-0.0023228899896144866,-0.003033668607473373
1772702653875901200,2.684901123046875,-0.029729660092294215,0.002689677475392818,0.016874562433362005
1772702653885950200,2.6949501953125,-0.004800970540940762,0.007854512892663479,0.0372656085550785
1772702653896000300,2.705000244140625,-0.002413490882515907,0.0037628596648573874,0.0504939234405756
1772702653906050300,2.71505029296875,-0.018526713554561137,-0.004142798893153667,0.049615971562266346
1772702653916100400,2.725100341796875,-0.01894260087907314,-0.010731237372756004,0.03528291030526161
1772702653926150400,2.735150390625,-0.0156309921130538,-0.027461715160310266,-0.0021750059515237806
1772702653936200200,2.7452001953125,-0.017394202393293378,-0.004943886142969131,-0.018659692284464836
1772702653946250200,2.755250244140625,-0.018334698113799095,0.008688625629246235,-0.01078150625526905
1772702653956300300,2.76530029296875,-0.009060089290142058,-0.0015840543210506439,0.0035293431699275966
1772702653966349000,2.77534912109375,0.033627836574614045,0.005008768072724342,0.0070136781543493265
1772702653976399000,2.785399169921875,0.03463642909526825,0.03687456341087818,0.01983458128273487
1772702653986449200,2.79544921875,-0.003982639895379543,0.04109042754024267,0.012200725403428076
1772702653996499200,2.805499267578125,-0.04307400257289409,0.0062742579638957975,0.00024257658421993254
1772702654006549200,2.81554931640625,-0.04760141686946153,0.0002861234650015831,0.00008943184912204742
1772702654016599300,2.825599365234375,-0.04336684803962707,0.0065676879525184625,0.0007990414232015609
1772702654026649300,2.8356494140625,-0.011734569196403026,0.014667700038850307,0.026708558705449102
1772702654036699400,2.845699462890625,-0.0033829204365611073,-0.0016395839005708694,-0.007786416092514991
1772702654046748200,2.855748046875,0.016340309426188467,-0.004364624950289726,-0.005975567278265953
1772702654056798200,2.865798095703125,0.022636486960947513,0.014761808063089847,0.026222821015119552
1772702654066848300,2.87584814453125,0.002873509609699249,0.024945640686154364,0.0180208098590374
1772702654076898300,2.885898193359375,-0.020671324367821216,0.011083996333181858,0.02048983032107353
1772702654086948000,2.895947998046875,-0.03698825291842222,0.023502163879573344,0.03982172277867794
1772702654096998100,2.905998046875,-0.01871171473264694,0.020966800183057785,0.023923311901092526
1772702654107048200,2.916048095703125,0.010957739605009556,0.026902327711880204,0.015831190860271453
1772702654117098200,2.92609814453125,-0.005950140576064586,0.03734744161963462,0.016250293055176734
1772702654127147300,2.936147216796875,-0.02043839239478111,0.00965951648801565,0.01137538049519062
1772702654137197300,2.946197265625,-0.0074032619938254355,0.011779577381908893,0.007872340810298918
1772702654147247400,2.956247314453125,-0.0032844284981489178,0.013050620231032371,0.004922843354940414
1772702654157297200,2.966297119140625,-0.01587707582861185,0.00789542942494154,0.010997779354453086
1772702654167347200,2.97634716796875,-0.008416822950541972,0.014780512763559817,0.011970423778891563
1772702654177397200,2.986397216796875,0.00985036288499832,0.01213438216894865,0.014417816931009292
1772702654187447300,2.996447265625,-0.00020370587855577467,0.038899054975807666,0.014584405669569969
1772702654197497000,3.0064970703125,-0.009162672881782054,0.01142155772447586,0.01276478902697563
1772702654207546000,3.016546142578125,-0.014724983184039591,0.027342472694814202,0.005250760135054588
1772702654217596400,3.026596435546875,-0.01816226415634155,0.04173544744551182,0.01372866562306881
1772702654227646500,3.036646484375,-0.017529811471700667,0.021796821266412733,0.005147299760580063
1772702654237696300,3.0466962890625,-0.004193067775666713,0.020310966622829437,0.007871756288409233
1772702654247746300,3.056746337890625,0.011592530377209186,0.01572977631241083,0.007907996645569801
1772702654257796400,3.06679638671875,0.013814298079907894,0.0030921207964420315,0.023696517407894132
1772702654267846400,3.076846435546875,0.031013270162045956,0.01291296532601118,0.02509352472424507
1772702654277896200,3.086896240234375,0.02194295173883438,0.0026151509344577786,0.03439560607671738
1772702654287945200,3.0969453125,-0.009364332933723926,0.011172259138524532,0.02697100903391838
1772702654297995300,3.106995361328125,-0.01273907006382942,0.01942512369900942,-0.005329670590162277
1772702654308045000,3.117045166015625,-0.023837971705198288,0.03804273040741682,-0.010092939469218253
1772702654318095000,3.12709521484375,-0.0016425065100193024,0.05092705416083335,-0.029607202756404875
1772702654328145200,3.137145263671875,-0.008469137659668922,0.03239800251871347,0.019573299998044965
1772702654338195200,3.1471953125,0.0021101240217685697,0.015222995834052561,0.033631051445007325
1772702654348245200,3.157245361328125,0.024885434931516646,0.019998247411847112,0.02071954742372036
1772702654358294300,3.167294189453125,0.03865706291347742,0.01677285562455654,0.015603811845183372
1772702654368344300,3.17734423828125,0.014117080418765544,0.005222118562459945,0.008401333120465279
1772702654378394000,3.18739404296875,-0.016667641684412954,0.011733400152623653,-0.007812719577550888
1772702654388444200,3.197444091796875,-0.01128565638512373,0.026324527823925015,-0.004938625445961952
1772702654398494200,3.207494140625,-0.03034779199063778,0.03729278882294893,0.01792962444424629
1772702654408544300,3.217544189453125,-0.007237550038099288,0.027537703005969524,0.03319850524663925
1772702654418594300,3.22759423828125,0.027318799558281898,0.026866964137554166,0.038166941308975216
1772702654428644000,3.23764404296875,0.0417447997957468,0.011484393827617168,0.04623392790853977
1772702654438694100,3.247694091796875,0.020384324119985104,0.019555764341354368,0.03477437626123428
1772702654448743400,3.257743408203125,0.024014205054938793,0.018593056789040566,0.030983167284727095
1772702654458793200,3.267793212890625,0.01765256106853485,0.03589373567998409,0.036729601982235904
1772702654468843300,3.27784326171875,0.02361176173388958,0.048121933612227434,0.037194296884536744
1772702654478893300,3.287893310546875,0.02847761420458555,0.03323679143041372,0.02163490870296955
1772702654488943400,3.297943359375,0.02706803966760635,0.013638649252057074,-0.020405659168958663
1772702654498993200,3.3079931640625,-0.0050900166153907776,0.007148410449922084,-0.0018687164813280105
1772702654509043200,3.318043212890625,-0.025870646576583382,0.01577156962752342,-0.012148702955245972
1772702654519092200,3.32809228515625,-0.01487929696291685,0.008801730614900588,-0.0002747252881526947
1772702654529142000,3.33814208984375,-0.002262391974031925,-0.015918284621834755,-0.008548048114776611
1772702654539192300,3.3481923828125,0.020253975738584996,-0.014581483060121535,0.006757657566666603
1772702654549242400,3.358242431640625,0.050478141349554057,-0.01856266165077686,0.038052959540486334
1772702654559292400,3.36829248046875,0.04393032714128494,-0.006293839447200298,0.027606968849897384
1772702654569342200,3.37834228515625,0.040458851638436315,0.01384498547911644,0.023294366347789763
1772702654579392300,3.388392333984375,-0.001964285810291767,0.00890402194559574,0.018704700469970702
1772702654589442300,3.3984423828125,-0.009321662835776805,0.017441840927302835,0.020975568011403083
1772702654599492400,3.408492431640625,-0.00966740753352642,0.020295769053697586,0.013257540979981422
1772702654609541000,3.418541015625,0.012090835288166998,0.03611468495428562,0.01383271051943302
1772702654619591200,3.428591064453125,0.02307107898592949,0.020109306570887563,0.04150046964585781
1772702654629641200,3.43864111328125,0.03402472693771124,0.015788520762324332,0.03374854034483433
1772702654639691300,3.448691162109375,0.042137598505616186,0.016723463524878024,0.03305763547122478
1772702654649741000,3.458740966796875,0.036830139747262,0.004326923288404941,0.020417349606752396
1772702654659791000,3.468791015625,0.02136953576505184,0.0010389876589179039,0.017602292186021804
1772702654669841400,3.47884130859375,0.057772974532842636,0.029719723220169542,0.007774141132831573
1772702654679891500,3.488891357421875,0.04918371762484312,0.0389890713468194,-0.013433482068777083
1772702654689940200,3.498940185546875,0.02302782436609268,0.03035948242843151,0.012779986596107483
1772702654699990300,3.508990234375,0.016620587672293186,0.02191723277568817,0.023065233767032622
1772702654710040300,3.519040283203125,0.036974516654014584,0.013635726642608642,0.013570844712853431
1772702654720090000,3.529090087890625,0.0279635272026062,0.02184241397380829,-0.0005430208355188369
1772702654730140200,3.53914013671875,0.016950550279021263,0.01306114162504673,-0.0156330379396677
1772702654740190200,3.549190185546875,0.018233868087828158,0.01227905133664608,-0.015488661032915114
1772702654750240300,3.559240234375,0.015485153901576995,-0.0025549451798200606,0.004750993919372558
1772702654760290000,3.5692900390625,0.027053134359419344,-0.015235563054680823,0.010527239233255386
1772702654770339300,3.57933935546875,0.03655979837328195,-0.010870938104391097,0.018310148194432257
1772702654780389400,3.589389404296875,0.018311901760101317,0.00639788434356451,0.0077729720890522
1772702654790439200,3.599439208984375,0.022958266261219978,0.008715513636171818,0.013046528577804565
1772702654800489200,3.6094892578125,0.005616963098943233,0.020761632999777794,0.019921090522408483
1772702654810539300,3.619539306640625,-0.0043570261657238,0.01576250953823328,0.011717910322546958
1772702654820589300,3.62958935546875,-0.009978665439784526,0.02153378641605377,0.017667758637666703
1772702654830639400,3.639639404296875,-0.004674713812768459,0.029030279651284217,0.005872106903791427
1772702654840688000,3.649688232421875,-0.017587971399724484,0.0012917933762073516,0.026412790629267692
1772702654850738200,3.65973828125,0.001808218465745449,-0.016783961540460586,0.006177811852097511
1772702654860788200,3.669788330078125,0.010368249279260635,-0.004737257654964923,0.010866846451163292
1772702654870836500,3.67983642578125,0.0048643911659717555,0.00670943451076746,0.005903671085834503
1772702654880886500,3.689886474609375,0.015600596974790095,-0.00015869769304990768,0.002972293809056282
1772702654890936300,3.699936279296875,-0.00995411552041769,0.007561375164985657,0.010775076514482498
1772702654900986400,3.709986328125,-0.014933657498657703,0.01913052466660738,0.0025660510957241055
1772702654911036400,3.720036376953125,-0.008346095801889896,-0.00014554595053195953,-0.01526362010538578
1772702654921086500,3.73008642578125,-0.017604922534525395,-0.007299509358406066,0.0015226795226335524
1772702654931135500,3.740135498046875,0.011638707606494426,0.0026858780831098554,0.005201075774431229
1772702654941185500,3.750185546875,-0.004196282646059989,0.004198620733618736,0.012218261060118675
1772702654951235600,3.760235595703125,-0.004757423660159111,0.01768997046947479,0.014184008175134658
1772702654961285600,3.77028564453125,-0.007000818672776222,0.013765490502119063,-0.005825929674506187
1772702654971335400,3.78033544921875,-0.023792963519692418,0.00511953497081995,0.012447393640875815
1772702654981385500,3.790385498046875,-0.023147066831588743,0.010372925454378127,0.012035305708646773
1772702654991435500,3.800435546875,-0.035111937652528284,-0.002952420064806938,0.018551555734872816
1772702655001484300,3.810484375,-0.028096505932509896,0.010755202770233153,0.01650046842396259
1772702655011534300,3.820534423828125,-0.02366436870396137,0.0057183776468038554,0.0024351181924343107
1772702655021584400,3.83058447265625,-0.00984860931932926,0.012052549104392529,0.014034955093264578
1772702655031634700,3.840634765625,0.01038110876083374,0.003660276073217392,0.0006733692169189453
1772702655041684500,3.8506845703125,0.0011819032609462737,0.006122282272577285,-0.0010083002597093581
1772702655051734500,3.860734619140625,0.0010407412245869636,0.009231061942875384,0.013731003710627555
1772702655061784600,3.87078466796875,-0.03072451634854078,-0.004020049296319484,0.016706220129132268
1772702655071834600,3.880834716796875,-0.03216068663150072,-0.017071546310186383,0.01540390535891056
1772702655081883400,3.89088330078125,-0.011871931840479374,-0.002971417026221752,0.034954993525147436
1772702655091933400,3.900933349609375,-0.007414952431619167,0.010392506937682629,0.02461246320903301
1772702655101983500,3.9109833984375,0.007541209159791469,-0.0036357261538505553,0.002025368347764015
1772702655112033500,3.921033447265625,0.014712123702466487,0.012280512641370296,0.0007037643551826477
1772702655122083300,3.931083251953125,-0.007513736630976199,0.00888794759362936,-0.01701250959932804
1772702655132133400,3.94113330078125,-0.023308394873142242,0.008635141876339911,-0.024110358905792235
1772702655142183400,3.951183349609375,-0.04555062181949615,0.0019976035580039023,0.022467267873883246
1772702655152233700,3.961233642578125,-0.03681961835324764,0.020217443120479583,0.050338440617918964
1772702655162282500,3.971282470703125,-0.0017301847934722899,0.03509995495378971,0.05953647707402706
1772702655172332500,3.98133251953125,0.026991175039112567,0.02739011122882366,0.03381225323081016
1772702655182382600,3.991382568359375,0.04649053301811218,0.0407145799651742,0.020353636720776558
1772702655192432400,4.001432373046875,0.0373965414583683,0.024055121587216854,0.012101941204071045
1772702655202482400,4.011482421875,0.012400339628756045,0.021176643541455268,-0.020551789641380307
1772702655212532500,4.021532470703125,-0.03378536522388458,-0.009943009604513645,-0.005243745872378349
1772702655222582500,4.03158251953125,-0.04163198707103729,-0.03188946847468614,0.0274058933198452
1772702655232632300,4.04163232421875,-0.02243482690900564,-0.0309001651763916,0.011839490875601768
1772702655242681600,4.051681640625,-0.004630874671041965,-0.020994272711873055,-0.009222586375474929
1772702655252731600,4.061731689453125,0.019715338817238807,-0.009311725963652134,-0.0036070845812559127
1772702655262781400,4.071781494140625,0.03060556614398956,-0.0019207389295101164,-0.04382511320114135
1772702655272831500,4.08183154296875,0.012848375657200813,0.0045054947257041926,-0.026969839990139004
1772702655282881500,4.091881591796875,0.008372691547870636,0.014326046994328498,0.022058102551102635
1772702655292931600,4.101931640625,-0.02952800004035234,0.015290800373256206,0.04663607896864414
1772702655302981400,4.1119814453125,-0.019322832368314266,-0.002779401585459709,0.04292494949102402
1772702655313031400,4.122031494140625,0.007111001048982143,0.004058920001983642,0.04938625445961952
1772702655323080400,4.13208056640625,0.00900952814668417,-0.005700841990113258,0.061574120381474494
1772702655333130500,4.142130615234375,0.0005044423907995223,-0.009344751450419426,0.04177051875889301
1772702655343180500,4.1521806640625,0.0014133739292621612,0.0021945874348282815,0.010830021572113036
1772702655353230600,4.162230712890625,0.004821136546134948,-0.002765080799162388,0.011331541353464127
1772702655363280600,4.17228076171875,-0.00021276596784591673,-0.0016533201649785042,0.015693828216195107
1772702655373330700,4.18233056640625,0.007764788782596587,-0.0013046528577804564,-0.011498714613914489
1772702655383380500,4.19238037109375,-0.002647299638390541,0.005254267266392707,-0.027641455641388892
1772702655393430500,4.202430419921875,0.011452537384629249,0.003866612300276756,-0.028600656062364577
1772702655403479600,4.2124794921875,0.005774784009158611,0.010833820964396,-0.022214754417538642
1772702655413529300,4.222529296875,0.01319090548455715,0.016965747848153113,-0.011246201157569885
1772702655423579400,4.232579345703125,-0.00043926820009946823,0.001983282771706581,0.016932430100440977
1772702655433629400,4.24262939453125,0.004181961859762669,0.007128828966617584,0.027666005560755727
1772702655443679500,4.252679443359375,-0.005858662900328636,0.013335866913199424,0.015302198550105095
1772702655453729300,4.262729248046875,0.016909049224853513,0.009310849180817603,0.0033849662631750105
1772702655463779300,4.272779296875,-0.007928454911708831,0.00774812990874052,0.0060427872955799095
1772702655473829600,4.28282958984375,-0.022737901508808136,-0.0008116086438298225,0.014621230548620223
1772702655483878700,4.292878662109375,-0.008091536518931389,-0.007088789217174053,0.009922843599319458
1772702655493928400,4.302928466796875,-0.003063479223847389,-0.020652619667351244,0.01074701946377754
1772702655503978500,4.312978515625,-0.02602817522585392,-0.0034366964504122734,0.008668459624052048
1772702655514028500,4.323028564453125,-0.02229892556965351,0.007212123335897922,-0.0059808279752731315
1772702655524078600,4.33307861328125,-0.006145663148164749,-0.008958382481336593,-0.026755904978513715
1772702655534128400,4.34312841796875,0.01906681178063154,-0.0008998714491724967,-0.007104863569140434
1772702655544178400,4.353178466796875,0.010809855566918849,0.014872574961185454,0.0030745851397514343
1772702655554228500,4.363228515625,-0.021122283005714414,0.009407003031671047,0.012386018842458725
1772702655564277500,4.373277587890625,-0.029031448695063588,0.016937398536503313,-0.011830138525366782
1772702655574327600,4.38332763671875,-0.023088614642620086,0.03040507513582706,-0.014101006066799163
1772702655584377600,4.393377685546875,-0.011962532733380793,0.007928162650763989,-0.024474516043066975
1772702655594427600,4.403427734375,0.003202595433592796,0.01628390306383371,-0.003991115462779998
1772702655604477400,4.4134775390625,-0.0009504325926303862,0.020084172129631043,0.0017781155884265898
1772702655614527500,4.423527587890625,-0.018259879311919212,0.02794657606780529,0.0016349077254533767
1772702655624577500,4.43357763671875,-0.0187114224717021,0.0005082417830824851,-0.005749357306957244
1772702655634627600,4.443627685546875,-0.025599136158823966,0.006735445734858512,0.012798691296577453
1772702655644676400,4.45367626953125,-0.020414134736359116,0.023050912980735302,0.017257424271106717
1772702655654726400,4.463726318359375,0.0005707856252789497,0.033443127657473086,0.009658639705181122
1772702655664776400,4.4737763671875,-0.012101648943126202,0.030340193206071852,0.012172668352723121
1772702655674826500,4.483826416015625,-0.014089607889950275,0.003099135059118271,0.003448679149150848
1772702655684876500,4.49387646484375,-0.017042612476646898,0.006425941394269466,0.022052841854095458
1772702655694926600,4.503926513671875,-0.028045944789052007,0.010794657997786998,0.02871171522140503
1772702655704976600,4.5139765625,-0.016551321828365325,0.010834990008175373,-0.006057400342822075
1772702655715026400,4.5240263671875,-0.004238368222117424,0.012338088047504425,-0.01562485463321209
1772702655725075500,4.534075439453125,0.008210778984427451,0.0170534261316061,0.007467851662635803
1772702655735125500,4.54412548828125,-0.008917465949058533,0.013201134617626667,0.00665536623597145
1772702655745175600,4.554175537109375,-0.009352934756875037,0.001994388687610626,0.012649638214707375
1772702655755225300,4.564225341796875,-0.030071605397760867,-0.0007128244444727898,0.0032639702320098876
1772702655765275400,4.574275390625,-0.04844985039234161,0.016350830820202826,-0.009058920246362685
1772702655775325400,4.584325439453125,-0.021733108380436895,-0.0016486439898610115,0.005894318735599518
1772702655785375500,4.59437548828125,0.00008767828345298767,0.012170622526109218,0.007572481080889701
1772702655795425500,4.604425537109375,0.008290858483314513,0.002717442265152931,-0.002542085698246956
1772702655805474600,4.614474609375,0.01104161849617958,0.01862023705691099,-0.0014309095859527587
1772702655815524600,4.624524658203125,-0.01981236945092678,0.00552256281375885,-0.007923194214701652
1772702655825574400,4.634574462890625,-0.011518003836274146,0.01046820252239704,-0.017193711385130882
1772702655835624400,4.64462451171875,-0.023375614890456198,0.018613222794234753,0.0005441898792982101
1772702655845674500,4.654674560546875,-0.026064415583014488,0.015173311473429202,0.006218143862485885
1772702655855724500,4.664724609375,-0.007354162155091762,0.010954816995561122,0.03929273046851158
1772702655865774800,4.67477490234375,0.012034721186757087,0.010070727637410163,0.060409752777218814
1772702655875825000,4.684824951171875,0.014972820465266703,-0.0013429390415549277,0.03494213404357433
1772702655885874000,4.6948740234375,-0.0016392916396260262,-0.00868833336830139,0.013872458007931708
1772702655895924000,4.704924072265625,-0.01772533404380083,0.0064370473101735114,0.0009276362389326095
1772702655905974000,4.71497412109375,-0.01898059480190277,-0.004308218587934971,-0.0013724573969841002
1772702655916023800,4.72502392578125,-0.021789807003736495,-0.022757190731167793,0.019230770170688628
1772702655926073900,4.735073974609375,-0.005723053821921348,-0.0183212541103363,0.01779109275639057
1772702655936124000,4.7451240234375,-0.015741759011149405,-0.004861468556523323,0.00767886406481266
1772702655946174000,4.755174072265625,-0.011683715792000293,-0.014310849425196647,0.010617840126156807
1772702655956223700,4.7652236328125,-0.006592822393774986,-0.0027028292179107666,-0.004956745624542236
1772702655966272800,4.775272705078125,-0.021813772401213644,-0.031127836452424524,0.005363572859764099
1772702655976322800,4.78532275390625,-0.014704817178845404,-0.03816021930724382,0.031867548903822894
1772702655986372600,4.79537255859375,0.014794541288912295,-0.015761048233509063,0.003523497951030731
1772702655996422700,4.805422607421875,0.005049100083112716,-0.0047875265374779695,0.035140286964178084
1772702656006472700,4.81547265625,0.004796586626768112,0.01611672980338335,0.03674889120459556
1772702656016523000,4.82552294921875,-0.014333645778894424,0.023498949009180068,0.04803893150389194
1772702656026573000,4.835572998046875,0.013981471340358256,0.02279343108832836,0.04281856650710106
1772702656036622800,4.845622802734375,0.0009814122527837753,0.01392594176083803,0.0035562311768531796
1772702656046672000,4.855671875,-0.006745674867928027,0.0021925416082143783,0.02636836696565151
1772702656056722000,4.865721923828125,-0.0025046762973070145,0.012416998502612114,0.025015783312916755
1772702656066771700,4.875771728515625,0.009749240598082541,0.0203431153267622,0.011909048980474471
1772702656076821800,4.88582177734375,0.00625496874153614,-0.010156652355194092,0.009008066841959953
1772702656086871800,4.895871826171875,0.017955927929282186,-0.027908874405920502,-0.008144143489003181
1772702656096921900,4.905921875,0.013054711884260177,-0.020008184283971785,0.0205173028498888
1772702656106971600,4.9159716796875,0.023065818288922308,-0.010578384898602963,0.0029997663378715515
1772702656117021700,4.926021728515625,0.011778116077184677,0.004767068271338939,0.005671615895628929
1772702656127071000,4.936071044921875,0.016923370011150837,-0.016512451122701166,0.024084639942646025
1772702656137120800,4.946120849609375,0.0308630480363965,-0.01618161173313856,0.03340484147369861
1772702656147170800,4.9561708984375,0.022685586799681186,0.047905368252098554,-0.005130933147668838
1772702656157220900,4.966220947265625,0.002468143679201603,0.02826893988996744,0.007782324439287185
1772702656167271000,4.97627099609375,-0.007023322765529155,0.01878361092507839,-0.0053892918229103085
1772702656177320700,4.98632080078125,0.0005064882174134254,0.02225187155753374,-0.006993804410099983
1772702656187370800,4.996370849609375,0.010816577568650246,-0.0063178048446774476,0.006794482445716858
1772702656197420800,5.0064208984375,0.005068097044527531,0.0006543722555041313,0.02748947995007038
1772702656207469800,5.0164697265625,0.018019348554313183,-0.0025847557961940766,0.020429040044546126
1772702656217519900,5.026519775390625,0.03075812635719776,-0.006166121414303779,0.023455109867453573
1772702656227570000,5.03656982421875,0.031070845568180083,-0.004388298086822033,-0.0009796586871147156
1772702656237620000,5.046619873046875,0.017197218516469,0.01796148088723421,0.0028828619599342345
1772702656247670000,5.056669921875,-0.0009603694647550582,0.018063187696039675,0.01835048020482063
1772702656257719800,5.0667197265625,-0.005202829340100288,0.020310674361884593,0.007514028891921043
1772702656267769900,5.076769775390625,-0.03137041303664446,-0.0054985974162817,0.0028635727375745774
1772702656277820000,5.08681982421875,-0.032307693886756896,-0.021104747349023817,0.004313187023997306
1772702656287870000,5.096869873046875,-0.005514964029192924,-0.007779401829838752,0.004093406793475151
1772702656297918700,5.106918701171875,0.012140811909735202,-0.00829495013654232,0.010322072049975395
1772702656307968800,5.11696875,0.013503040173649786,0.005150222370028495,0.02501344522535801
1772702656318018800,5.127018798828125,0.022897768245637416,0.023373276802897452,0.00610942279100418
1772702656328068600,5.137068603515625,0.01711538545191288,0.03955927245020866,-0.0016337386816740035
1772702656338119000,5.147118896484375,-0.002977554506063461,0.00803483789563179,-0.0016734861701726913
1772702656348169000,5.1571689453125,-0.026330373042821882,-0.007738193036615848,0.00836859989464283
1772702656358219000,5.167218994140625,-0.0055061962008476255,0.00973755016028881,0.035521979758143425
1772702656368267800,5.177267822265625,0.007573065602779388,0.023147066831588743,0.05092588511705398
1772702656378317800,5.18731787109375,0.023262217643857,0.013833587302267551,0.04480126475691795
1772702656388368000,5.197367919921875,0.010441314515471457,0.021653028881549834,0.028344050952792167
1772702656398417700,5.207417724609375,0.010398352156579494,0.044967561234533784,0.03975158015191555
1772702656408467700,5.2174677734375,0.00658171647787094,0.04093728280514478,0.012062193715572357
1772702656418517800,5.227517822265625,-0.02666676539033651,0.031899405346810815,-0.016968670457601545
1772702656428567800,5.23756787109375,-0.0326736045897007,0.015850187821686266,-0.010095277556777
1772702656438617900,5.247617919921875,-0.015480477726459503,0.018600071051716804,-0.015413257709145546
1772702656448667600,5.257667724609375,-0.022205986589193344,0.02055091285854578,-0.010372340932488441
1772702656458717000,5.267717041015625,-0.018798516233265398,-0.00045358898639678955,0.014395020577311514
1772702656468767000,5.27776708984375,-0.034898587162792684,-0.026902912233769893,0.00822305394411087
1772702656478816800,5.287816650390625,-0.01771218230128288,-0.02187105554640293,0.01926116530895233
1772702656488866800,5.29786669921875,-0.01845423284024,-0.011803542779386042,0.008303133442997932
1772702656498916900,5.307916748046875,0.006697744072973728,0.012853636354207991,-0.034276948133110996
1772702656508965600,5.317965576171875,-0.017159516854584216,0.003908113354444504,-0.025727730974555014
1772702656519015700,5.328015625,-0.025953064163029192,-0.011330372309684754,-0.019745149433612823
1772702656529065700,5.338065673828125,-0.03953326122611761,-0.015805471897125244,0.01860065557360649
1772702656539116000,5.348115966796875,-0.03313011618554592,0.00038110827207565303,0.02300911966562271
1772702656549165800,5.358165771484375,-0.03765840726494789,-0.002525719085335731,0.04205810352861881
1772702656559215900,5.3682158203125,-0.029714754784107206,-0.022738193769752977,0.046188335201144216
1772702656569266000,5.378265869140625,-0.008170446974039076,0.0003019055560231209,0.04401332924962043
1772702656579314700,5.388314697265625,0.0066857613742351526,-0.0019426585003733633,0.01870177786052227
1772702656589364700,5.39836474609375,0.0021110008046031,0.023982640872895717,0.006741290953755378
1772702656599414800,5.408414794921875,-0.0005824760630726814,0.010762509293854236,-0.01190086567401886
1772702656609464800,5.41846484375,-0.0259875509545207,0.028644787465035914,-0.005288754057884216
1772702656619515000,5.428514892578125,-0.013618775507807731,0.011558043585717678,0.0037257425248622893
1772702656629564700,5.438564697265625,-0.03574672842472792,-0.011897650803625584,-0.004089899662137031
1772702656639614700,5.44861474609375,-0.025531916141510007,-0.01356090784072876,0.0009422492861747741
1772702656649664800,5.458664794921875,-0.027074177147448062,-0.011808218954503536,0.0034510172367095944
1772702656659713800,5.4687138671875,-0.018424422223865984,-0.015012567953765392,-0.0021399346381425857
1772702656669763800,5.478763916015625,-0.031975685453414913,0.0120624859765172,0.020700842723250387
1772702656679814000,5.48881396484375,-0.020580723474919793,-0.014969313333928584,0.021901450684666632
1772702656689864000,5.498864013671875,-0.02653612474799156,0.0012555530190467834,0.02005728412270546
1772702656699913700,5.508913818359375,-0.027785832548141477,-0.004113572798669338,0.018810498932003972
1772702656709963800,5.5189638671875,-0.018208441385626793,-0.027151918558776376,0.03645136956274509
1772702656720013800,5.529013916015625,-0.0027028292179107666,-0.023290859216451642,0.050559389892220495
1772702656730064000,5.53906396484375,0.008495733405649662,-0.003398702527582645,0.07347323248982429
1772702656740113000,5.54911279296875,0.00507511130720377,-0.0059510173588991164,0.049426001948118206
1772702656750163000,5.559162841796875,0.0037581834897398945,-0.011746844156086443,0.01864507923722267
1772702656760213000,5.569212890625,-0.027220892141759392,0.0034030864417552947,0.00005786766707897186
1772702656770262800,5.5792626953125,-0.03690905020236969,0.002446224108338356,0.03472527642250061
1772702656780312800,5.589312744140625,-0.027029461222887036,0.0023240590333938596,0.010976152044534683
1772702656790363000,5.59936279296875,-0.01098930378705263,-0.008475275139510631,0.014682020825147628
1772702656800413000,5.609412841796875,-0.01604921752512455,-0.02571662505865097,0.018560908085107804
1772702656810462700,5.619462646484375,-0.01714110441505909,0.0020054946035146714,0.0065641808211803435
1772702656820511700,5.62951171875,0.009054244071245193,0.00831540840268135,0.003418284010887146
1772702656830561800,5.639561767578125,0.0024248890593647956,0.002488601945340633,0.002304185289144516
1772702656840611800,5.64961181640625,-0.017341010901331902,-0.0014566285490989685,0.014991817426681518
1772702656850661600,5.65966162109375,-0.03510287756323814,0.029309973375499246,0.004575637352466583
1772702656860712000,5.6697119140625,-0.047752515777945516,0.05282119734436273,-0.01949088241159916
1772702656870762200,5.67976220703125,-0.021694822196662425,-0.011298808127641677,-0.019443536138534546
1772702656880812300,5.689812255859375,0.004796002104878425,-0.00972790554910898,-0.016960487151145932
1772702656890862600,5.699862548828125,0.012514613658189773,-0.0069128481283783905,0.0035708442240953444
1772702656900912400,5.709912353515625,0.0010898410633206367,-0.014821429295837879,0.03486322358846664
1772702656910962400,5.71996240234375,-0.011702420492470264,-0.025630115818977353,0.02309504438340664
1772702656921011500,5.730011474609375,-0.022615444172918796,-0.011778992860019207,-0.009546411502361298
1772702656931061200,5.740061279296875,-0.013242051149904727,0.0016106500670313834,-0.005838789156079292
1772702656941111300,5.750111328125,0.011368950754404068,0.002185235084593296,0.027655484166741368
1772702656951161300,5.760161376953125,0.01282587156444788,0.008076046688854694,0.036301731958985325
1772702656961211400,5.77021142578125,0.02574702019691467,0.025854572224617,0.02431494156718254
1772702656971261200,5.78026123046875,-0.0006359598159790038,0.053425008456408976,-0.00044423663616180415
1772702656981311200,5.790311279296875,-0.04147416616082191,0.057179977075755596,-0.014870821395516395
1772702656991361300,5.800361328125,-0.05240881715118885,0.04362725254148245,-0.00720481681227684
1772702657001411300,5.810411376953125,-0.07840981210917233,0.02480593995451927,-0.008648001357913018
1772702657011460400,5.82046044921875,-0.01848608928322792,-0.011842413485050201,-0.0011626140385866165
1772702657021510400,5.830510498046875,0.050502106747031206,0.0005126256972551345,-0.017492402070760724
1772702657031560400,5.840560546875,0.03623188159316778,0.002935468930006027,0.02919745291173458
1772702657041610500,5.850610595703125,0.023259879556298255,-0.00019084639698266982,-0.008353402325510979
1772702657051660300,5.860660400390625,0.015803718331456183,-0.014497019647061824,-0.024491467177867886
1772702657061710300,5.87071044921875,-0.024617139384150503,-0.03444675174206495,0.049116789868474
1772702657071760400,5.880760498046875,-0.06760141784697771,0.009864391410350799,0.03701835579574108
1772702657081810400,5.890810546875,-0.10863426998108625,0.028534897349774834,-0.016702128475904465
1772702657091859500,5.900859375,-0.004201543343067169,0.0014566285490989685,-0.07083645424544811
1772702657101909500,5.910909423828125,0.1905310474231839,0.02581248664855957,0.11279752714037894
1772702657111959600,5.92095947265625,-0.1107908634930849,0.00215805481672287,0.08909048833847046
1772702657122009300,5.93100927734375,-0.32926761020123957,0.0072863576158881185,-0.08103460765480995
1772702657132059400,5.941059326171875,-0.00479191045165062,0.007902151426672934,-0.04808335516750812
1772702657142109400,5.951109375,0.2778416666075587,0.001609188762307167,0.07301438280642032
