time,seconds_elapsed,z,y,x
1772702651246601500,0.0556015625,-0.2548065185546875,0.4552001953125,0.85052490234375
1772702651256651500,0.065651611328125,-0.2587127685546875,0.4533538818359375,0.8517913818359375
1772702651266701800,0.075701904296875,-0.264495849609375,0.458404541015625,0.8516845703125
1772702651276751600,0.085751708984375,-0.274383544921875,0.461578369140625,0.8504791259765625
1772702651286801700,0.0958017578125,-0.2785797119140625,0.4627227783203125,0.8513031005859375
1772702651296851700,0.105851806640625,-0.27362060546875,0.4652252197265625,0.8467864990234375
1772702651306901800,0.11590185546875,-0.2646331787109375,0.46630859375,0.8464202880859375
1772702651316950500,0.125950439453125,-0.2631988525390625,0.4662322998046875,0.8455963134765625
1772702651327000600,0.13600048828125,-0.264984130859375,0.46234130859375,0.8426513671875
1772702651337050600,0.146050537109375,-0.2674407958984375,0.45916748046875,0.8448333740234375
1772702651347100700,0.1561005859375,-0.2699737548828125,0.459228515625,0.845184326171875
1772702651357150500,0.166150390625,-0.2704010009765625,0.46142578125,0.845733642578125
1772702651367200500,0.176200439453125,-0.2675933837890625,0.46282958984375,0.84539794921875
1772702651377250600,0.18625048828125,-0.2667999267578125,0.464691162109375,0.8463287353515625
1772702651387300600,0.196300537109375,-0.264373779296875,0.46380615234375,0.84503173828125
1772702651397349600,0.206349609375,-0.2674713134765625,0.4654083251953125,0.842742919921875
1772702651407399700,0.216399658203125,-0.2702178955078125,0.46295166015625,0.844696044921875
1772702651417449700,0.22644970703125,-0.2683563232421875,0.462799072265625,0.8444671630859375
1772702651427499500,0.23649951171875,-0.2678680419921875,0.46246337890625,0.8430938720703125
1772702651437549600,0.246549560546875,-0.267913818359375,0.4647369384765625,0.8444976806640625
1772702651447599600,0.256599609375,-0.2695159912109375,0.4631805419921875,0.8495025634765625
1772702651457649700,0.266649658203125,-0.268768310546875,0.46051025390625,0.8483428955078125
1772702651467699500,0.276699462890625,-0.26708984375,0.460784912109375,0.8494720458984375
1772702651477748700,0.286748779296875,-0.2678680419921875,0.4601593017578125,0.8498077392578125
1772702651487798800,0.296798828125,-0.269012451171875,0.4584503173828125,0.847747802734375
1772702651497848600,0.3068486328125,-0.268646240234375,0.4590301513671875,0.84588623046875
1772702651507898600,0.316898681640625,-0.2673492431640625,0.461273193359375,0.8459014892578125
1772702651517948700,0.32694873046875,-0.2678680419921875,0.4632568359375,0.846527099609375
1772702651527998700,0.336998779296875,-0.2664947509765625,0.461700439453125,0.84881591796875
1772702651538048500,0.347048583984375,-0.2650299072265625,0.46002197265625,0.8451995849609375
1772702651548098600,0.3570986328125,-0.26568603515625,0.45770263671875,0.8443450927734375
1772702651558147600,0.367147705078125,-0.2675628662109375,0.45819091796875,0.8467254638671875
1772702651568197600,0.37719775390625,-0.2681427001953125,0.4571533203125,0.846343994140625
1772702651578247400,0.387247314453125,-0.2668304443359375,0.4592437744140625,0.8476104736328125
1772702651588297700,0.397297607421875,-0.2686614990234375,0.46148681640625,0.849395751953125
1772702651598347800,0.40734765625,-0.2694244384765625,0.463134765625,0.8497161865234375
1772702651608397800,0.417397705078125,-0.26641845703125,0.463897705078125,0.8482513427734375
1772702651618447600,0.427447509765625,-0.263214111328125,0.464202880859375,0.847381591796875
1772702651628497700,0.43749755859375,-0.26397705078125,0.4628448486328125,0.8482818603515625
1772702651638546700,0.447546630859375,-0.2672576904296875,0.4600067138671875,0.8492889404296875
1772702651648596500,0.457596435546875,-0.268096923828125,0.457427978515625,0.850799560546875
1772702651658646500,0.467646484375,-0.2664642333984375,0.457763671875,0.850616455078125
1772702651668696600,0.477696533203125,-0.2672119140625,0.459716796875,0.8486175537109375
1772702651678746600,0.48774658203125,-0.26708984375,0.45953369140625,0.8457794189453125
1772702651688796400,0.49779638671875,-0.2703857421875,0.45843505859375,0.8460845947265625
1772702651698846500,0.507846435546875,-0.270904541015625,0.4580535888671875,0.8453216552734375
1772702651708896500,0.517896484375,-0.2686767578125,0.4608306884765625,0.846588134765625
1772702651718945500,0.527945556640625,-0.2678985595703125,0.4589691162109375,0.848968505859375
1772702651728995600,0.53799560546875,-0.2655792236328125,0.4582061767578125,0.8487701416015625
1772702651739045600,0.548045654296875,-0.26434326171875,0.458404541015625,0.847442626953125
1772702651749095700,0.558095703125,-0.26446533203125,0.4606781005859375,0.84857177734375
1772702651759145700,0.568145751953125,-0.263641357421875,0.461639404296875,0.8498382568359375
1772702651769195500,0.578195556640625,-0.265655517578125,0.46160888671875,0.8513031005859375
1772702651779245600,0.58824560546875,-0.2697906494140625,0.4624176025390625,0.8510894775390625
1772702651789295600,0.598295654296875,-0.2696075439453125,0.462646484375,0.8505096435546875
1772702651799344600,0.6083447265625,-0.2677764892578125,0.4617919921875,0.84844970703125
1772702651809394700,0.618394775390625,-0.2675018310546875,0.4613037109375,0.849029541015625
1772702651819444700,0.62844482421875,-0.26666259765625,0.4620208740234375,0.84808349609375
1772702651829494800,0.638494873046875,-0.264678955078125,0.4620513916015625,0.847259521484375
1772702651839544600,0.648544677734375,-0.2659149169921875,0.4616546630859375,0.8462066650390625
1772702651849594600,0.6585947265625,-0.26824951171875,0.4608154296875,0.845977783203125
1772702651859643600,0.6686435546875,-0.266876220703125,0.4601287841796875,0.8476104736328125
1772702651869693700,0.678693603515625,-0.26495361328125,0.46026611328125,0.8480072021484375
1772702651879742700,0.68874267578125,-0.264434814453125,0.4603729248046875,0.848907470703125
1772702651889792800,0.698792724609375,-0.2640380859375,0.4608917236328125,0.847747802734375
1772702651899842800,0.7088427734375,-0.2667388916015625,0.4603271484375,0.8469696044921875
1772702651909892900,0.718892822265625,-0.26763916015625,0.461456298828125,0.846221923828125
1772702651919942700,0.728942626953125,-0.2677001953125,0.4613494873046875,0.847625732421875
1772702651929992700,0.73899267578125,-0.2673797607421875,0.4614410400390625,0.846710205078125
1772702651940042800,0.749042724609375,-0.2662506103515625,0.462982177734375,0.847900390625
1772702651950092800,0.7590927734375,-0.26708984375,0.4604034423828125,0.8482818603515625
1772702651960141600,0.7691416015625,-0.266510009765625,0.4607391357421875,0.84808349609375
1772702651970191600,0.779191650390625,-0.2667694091796875,0.4609832763671875,0.8479156494140625
1772702651980241700,0.78924169921875,-0.267242431640625,0.4610443115234375,0.8472900390625
1772702651990291700,0.799291748046875,-0.266021728515625,0.4614105224609375,0.8475494384765625
1772702652000341800,0.809341796875,-0.2657318115234375,0.4634857177734375,0.8468475341796875
1772702652010391800,0.819391845703125,-0.266510009765625,0.4618072509765625,0.848388671875
1772702652020441900,0.82944189453125,-0.2669219970703125,0.4605712890625,0.8476104736328125
1772702652030491600,0.83949169921875,-0.2658843994140625,0.4626312255859375,0.8492279052734375
1772702652040540700,0.849540771484375,-0.2674407958984375,0.4632568359375,0.84747314453125
1772702652050590700,0.8595908203125,-0.2688751220703125,0.4614105224609375,0.8437957763671875
1772702652060640800,0.869640869140625,-0.267486572265625,0.4620513916015625,0.844696044921875
1772702652070690600,0.879690673828125,-0.2666473388671875,0.460968017578125,0.8441009521484375
1772702652080740600,0.88974072265625,-0.265625,0.462158203125,0.842864990234375
1772702652090790700,0.899790771484375,-0.2644195556640625,0.461639404296875,0.8447265625
1772702652100840700,0.9098408203125,-0.265167236328125,0.463104248046875,0.8480224609375
1772702652110890800,0.919890869140625,-0.265380859375,0.46551513671875,0.8468780517578125
1772702652120939800,0.929939697265625,-0.26708984375,0.465972900390625,0.8458404541015625
1772702652130989800,0.93998974609375,-0.269073486328125,0.4650115966796875,0.8446197509765625
1772702652141039600,0.95003955078125,-0.26904296875,0.463409423828125,0.84625244140625
1772702652151089700,0.960089599609375,-0.2664947509765625,0.4623870849609375,0.848236083984375
1772702652161139700,0.9701396484375,-0.264556884765625,0.460601806640625,0.8493804931640625
1772702652171189800,0.980189697265625,-0.2647552490234375,0.461151123046875,0.847900390625
1772702652181239600,0.990239501953125,-0.2670440673828125,0.4595184326171875,0.8477935791015625
1772702652191289600,1.00028955078125,-0.2646331787109375,0.45941162109375,0.8486175537109375
1772702652201339000,1.0103388671875,-0.2637939453125,0.460235595703125,0.8470001220703125
1772702652211388700,1.020388671875,-0.265533447265625,0.4615631103515625,0.8475494384765625
1772702652221438700,1.030438720703125,-0.266082763671875,0.462127685546875,0.8485260009765625
1772702652231488800,1.04048876953125,-0.266998291015625,0.461181640625,0.8485565185546875
1772702652241538800,1.050538818359375,-0.26495361328125,0.4615936279296875,0.8474273681640625
1772702652251588600,1.060588623046875,-0.265625,0.461761474609375,0.8446044921875
1772702652261638700,1.070638671875,-0.267822265625,0.461212158203125,0.8444061279296875
1772702652271688700,1.080688720703125,-0.2673492431640625,0.4617462158203125,0.8459014892578125
1772702652281737700,1.09073779296875,-0.2668609619140625,0.45989990234375,0.845947265625
1772702652291787500,1.10078759765625,-0.26641845703125,0.46209716796875,0.8465118408203125
1772702652301837600,1.110837646484375,-0.2667388916015625,0.46405029296875,0.8472442626953125
1772702652311887600,1.1208876953125,-0.267547607421875,0.4630889892578125,0.84991455078125
1772702652321938000,1.13093798828125,-0.265350341796875,0.461212158203125,0.849273681640625
1772702652331987700,1.14098779296875,-0.2642364501953125,0.4611663818359375,0.8472137451171875
1772702652342037800,1.151037841796875,-0.2651519775390625,0.4613494873046875,0.8466949462890625
1772702652352087800,1.161087890625,-0.2670440673828125,0.4600372314453125,0.84722900390625
1772702652362136600,1.171136474609375,-0.2693328857421875,0.4591217041015625,0.8474578857421875
1772702652372186600,1.1811865234375,-0.2691192626953125,0.45843505859375,0.8452301025390625
1772702652382236700,1.191236572265625,-0.2692108154296875,0.4589996337890625,0.843841552734375
1772702652392286700,1.20128662109375,-0.2692108154296875,0.461578369140625,0.8433685302734375
1772702652402336500,1.21133642578125,-0.2696685791015625,0.4602508544921875,0.843719482421875
1772702652412386600,1.221386474609375,-0.2689208984375,0.457122802734375,0.847137451171875
1772702652422436600,1.2314365234375,-0.264892578125,0.4578857421875,0.8495941162109375
1772702652432486700,1.241486572265625,-0.2657012939453125,0.4595947265625,0.851470947265625
1772702652442535700,1.25153564453125,-0.264617919921875,0.461395263671875,0.8510284423828125
1772702652452585700,1.261585693359375,-0.2657470703125,0.460784912109375,0.8524932861328125
1772702652462635800,1.2716357421875,-0.2683258056640625,0.4630279541015625,0.8528289794921875
1772702652472685800,1.281685791015625,-0.2685089111328125,0.464691162109375,0.8521270751953125
1772702652482735600,1.291735595703125,-0.26568603515625,0.461334228515625,0.845703125
1772702652492785700,1.30178564453125,-0.262969970703125,0.46435546875,0.8472442626953125
1772702652502835700,1.311835693359375,-0.26605224609375,0.466644287109375,0.8475799560546875
1772702652512885800,1.3218857421875,-0.2630615234375,0.4632568359375,0.846405029296875
1772702652522934800,1.331934814453125,-0.2664794921875,0.460418701171875,0.8460845947265625
1772702652532984800,1.34198486328125,-0.2715911865234375,0.4593505859375,0.8461761474609375
1772702652543035000,1.352034912109375,-0.2698516845703125,0.4596405029296875,0.84490966796875
1772702652553084700,1.362084716796875,-0.263763427734375,0.4587249755859375,0.84381103515625
1772702652563134700,1.372134765625,-0.2604827880859375,0.4610443115234375,0.8507232666015625
1772702652573184800,1.382184814453125,-0.26055908203125,0.4606475830078125,0.8506011962890625
1772702652583234800,1.39223486328125,-0.2662811279296875,0.45904541015625,0.84918212890625
1772702652593284600,1.40228466796875,-0.2707061767578125,0.4596099853515625,0.8486785888671875
1772702652603333600,1.412333740234375,-0.26910400390625,0.4621429443359375,0.846099853515625
1772702652613383700,1.4223837890625,-0.267303466796875,0.463104248046875,0.84625244140625
1772702652623433500,1.43243359375,-0.267181396484375,0.4633636474609375,0.8444366455078125
1772702652633483800,1.44248388671875,-0.2657318115234375,0.46270751953125,0.8478546142578125
1772702652643533800,1.452533935546875,-0.265289306640625,0.4621734619140625,0.8481292724609375
1772702652653584000,1.462583984375,-0.2636260986328125,0.463531494140625,0.8464202880859375
1772702652663633700,1.472633544921875,-0.2692413330078125,0.4630584716796875,0.846221923828125
1772702652673683700,1.48268359375,-0.269805908203125,0.4602813720703125,0.8483123779296875
1772702652683732700,1.492732666015625,-0.2668609619140625,0.4605712890625,0.8515472412109375
1772702652693782800,1.50278271484375,-0.2667236328125,0.4627685546875,0.8499298095703125
1772702652703832600,1.51283251953125,-0.264007568359375,0.4624481201171875,0.8468475341796875
1772702652713882600,1.522882568359375,-0.2633819580078125,0.463043212890625,0.847930908203125
1772702652723932700,1.5329326171875,-0.263671875,0.4631805419921875,0.8481292724609375
1772702652733982700,1.542982666015625,-0.2649688720703125,0.4636688232421875,0.849273681640625
1772702652744032500,1.553032470703125,-0.2676849365234375,0.46209716796875,0.8499755859375
1772702652754082600,1.56308251953125,-0.2694091796875,0.461822509765625,0.8486328125
1772702652764131800,1.5731318359375,-0.269134521484375,0.4608154296875,0.8480987548828125
1772702652774181600,1.583181640625,-0.267120361328125,0.4616546630859375,0.847381591796875
1772702652784231700,1.593231689453125,-0.26519775390625,0.4602508544921875,0.848297119140625
1772702652794281700,1.60328173828125,-0.2620086669921875,0.4584197998046875,0.8474884033203125
1772702652804331800,1.613331787109375,-0.2623443603515625,0.458160400390625,0.8480377197265625
1772702652814381600,1.623381591796875,-0.262451171875,0.4620361328125,0.84698486328125
1772702652824431600,1.633431640625,-0.2660675048828125,0.4610443115234375,0.848724365234375
1772702652834481700,1.643481689453125,-0.2667236328125,0.4611968994140625,0.8481292724609375
1772702652844531000,1.653531005859375,-0.267181396484375,0.460845947265625,0.8460540771484375
1772702652854580700,1.663580810546875,-0.2660064697265625,0.46099853515625,0.8476715087890625
1772702652864631300,1.67363134765625,-0.2659759521484375,0.4606170654296875,0.84771728515625
1772702652874681300,1.683681396484375,-0.26470947265625,0.46099853515625,0.8478851318359375
1772702652884731400,1.6937314453125,-0.2644805908203125,0.4614105224609375,0.8503265380859375
1772702652894781400,1.703781494140625,-0.2642059326171875,0.4604034423828125,0.8502349853515625
1772702652904831200,1.713831298828125,-0.261962890625,0.4587249755859375,0.85052490234375
1772702652914881300,1.72388134765625,-0.260406494140625,0.4594573974609375,0.8507080078125
1772702652924930300,1.733930419921875,-0.261016845703125,0.4625244140625,0.850128173828125
1772702652934980000,1.74397998046875,-0.26409912109375,0.4618377685546875,0.8460693359375
1772702652945030100,1.754030029296875,-0.266754150390625,0.4610748291015625,0.8458709716796875
1772702652955080200,1.764080078125,-0.2676544189453125,0.4611358642578125,0.848175048828125
1772702652965130200,1.774130126953125,-0.266326904296875,0.4619598388671875,0.8477935791015625
1772702652975180000,1.784179931640625,-0.26458740234375,0.4615478515625,0.8489990234375
1772702652985230000,1.79422998046875,-0.2628173828125,0.46087646484375,0.8511199951171875
1772702652995279400,1.804279296875,-0.2608795166015625,0.4617462158203125,0.850982666015625
1772702653005329200,1.8143291015625,-0.2613525390625,0.4618988037109375,0.8468475341796875
1772702653015379200,1.824379150390625,-0.2648773193359375,0.4609527587890625,0.8472900390625
1772702653025429200,1.83442919921875,-0.2664642333984375,0.460418701171875,0.84747314453125
1772702653035479300,1.844479248046875,-0.264678955078125,0.4596405029296875,0.8473358154296875
1772702653045529000,1.854529052734375,-0.2629241943359375,0.4581756591796875,0.8492431640625
1772702653055579100,1.8645791015625,-0.2609100341796875,0.45947265625,0.8506927490234375
1772702653065629200,1.874629150390625,-0.2620391845703125,0.4597320556640625,0.847747802734375
1772702653075679200,1.88467919921875,-0.265289306640625,0.4600982666015625,0.845062255859375
1772702653085728300,1.894728271484375,-0.2672119140625,0.46026611328125,0.844970703125
1772702653095778300,1.9047783203125,-0.2668914794921875,0.4600067138671875,0.84698486328125
1772702653105828400,1.914828369140625,-0.266845703125,0.459503173828125,0.846832275390625
1772702653115878400,1.92487841796875,-0.263885498046875,0.4584197998046875,0.84991455078125
1772702653125928200,1.93492822265625,-0.262237548828125,0.4573974609375,0.8512725830078125
1772702653135978200,1.944978271484375,-0.2645721435546875,0.4595184326171875,0.8529052734375
1772702653146028300,1.9550283203125,-0.2628326416015625,0.4614715576171875,0.8533935546875
1772702653156078300,1.965078369140625,-0.26287841796875,0.460723876953125,0.8515625
1772702653166127000,1.975127197265625,-0.2609710693359375,0.4621734619140625,0.8507537841796875
1772702653176177200,1.98517724609375,-0.2641143798828125,0.4635009765625,0.8489837646484375
1772702653186227200,1.995227294921875,-0.26483154296875,0.462158203125,0.8503875732421875
1772702653196277200,2.00527734375,-0.265838623046875,0.461517333984375,0.850799560546875
1772702653206327300,2.015327392578125,-0.2652587890625,0.46221923828125,0.849334716796875
1772702653216377300,2.02537744140625,-0.2638702392578125,0.4624481201171875,0.84539794921875
1772702653226427400,2.035427490234375,-0.261810302734375,0.4625701904296875,0.845184326171875
1772702653236477200,2.045477294921875,-0.262664794921875,0.4614410400390625,0.8439788818359375
1772702653246526200,2.055526123046875,-0.263153076171875,0.4608001708984375,0.84423828125
1772702653256576300,2.065576171875,-0.2628326416015625,0.4602813720703125,0.844696044921875
1772702653266626300,2.075626220703125,-0.2632293701171875,0.4619903564453125,0.847320556640625
1772702653276676000,2.085676025390625,-0.264556884765625,0.463897705078125,0.84808349609375
1772702653286726100,2.09572607421875,-0.26397705078125,0.463226318359375,0.8487548828125
1772702653296776200,2.105776123046875,-0.2650299072265625,0.4642486572265625,0.8474884033203125
1772702653306826200,2.115826171875,-0.2657470703125,0.4647674560546875,0.8444671630859375
1772702653316875300,2.125875244140625,-0.2652740478515625,0.46185302734375,0.847412109375
1772702653326925300,2.13592529296875,-0.2648162841796875,0.4613800048828125,0.8475189208984375
1772702653336975400,2.145975341796875,-0.264190673828125,0.461029052734375,0.8489227294921875
1772702653347025200,2.156025146484375,-0.2627716064453125,0.4613800048828125,0.8484954833984375
1772702653357075200,2.1660751953125,-0.2631378173828125,0.4607086181640625,0.846466064453125
1772702653367125200,2.176125244140625,-0.2627105712890625,0.461700439453125,0.84625244140625
1772702653377175300,2.18617529296875,-0.2616729736328125,0.4628753662109375,0.847137451171875
1772702653387225000,2.19622509765625,-0.2610321044921875,0.465728759765625,0.8477935791015625
1772702653397274400,2.2062744140625,-0.2621002197265625,0.4656524658203125,0.847198486328125
1772702653407324400,2.216324462890625,-0.2641143798828125,0.4649200439453125,0.8483734130859375
1772702653417374200,2.226374267578125,-0.265045166015625,0.462860107421875,0.8475799560546875
1772702653427424300,2.23642431640625,-0.2651519775390625,0.46380615234375,0.8475799560546875
1772702653437474300,2.246474365234375,-0.2646484375,0.4621124267578125,0.8485870361328125
1772702653447524400,2.2565244140625,-0.2631072998046875,0.4631500244140625,0.8485107421875
1772702653457574100,2.26657421875,-0.261749267578125,0.4641265869140625,0.8483428955078125
1772702653467624200,2.276624267578125,-0.263031005859375,0.464813232421875,0.847991943359375
1772702653477673200,2.286673095703125,-0.2639007568359375,0.46270751953125,0.8475341796875
1772702653487723300,2.29672314453125,-0.2641143798828125,0.4604644775390625,0.848388671875
1772702653497773000,2.30677294921875,-0.2661590576171875,0.4617767333984375,0.8475799560546875
1772702653507823000,2.316822998046875,-0.264862060546875,0.462646484375,0.8484039306640625
1772702653517873400,2.326873291015625,-0.2662353515625,0.4632720947265625,0.84613037109375
1772702653527923500,2.33692333984375,-0.2665557861328125,0.465087890625,0.8444671630859375
1772702653537973200,2.34697314453125,-0.2652435302734375,0.4641571044921875,0.845672607421875
1772702653548023300,2.357023193359375,-0.2647705078125,0.4641876220703125,0.8466949462890625
1772702653558072300,2.367072265625,-0.263580322265625,0.4640655517578125,0.848480224609375
1772702653568122000,2.3771220703125,-0.2632598876953125,0.46282958984375,0.84942626953125
1772702653578172200,2.387172119140625,-0.2620086669921875,0.4619598388671875,0.8485565185546875
1772702653588222200,2.39722216796875,-0.26214599609375,0.462310791015625,0.8495025634765625
1772702653598272300,2.407272216796875,-0.26416015625,0.4633941650390625,0.8492584228515625
1772702653608322000,2.417322021484375,-0.261260986328125,0.4642333984375,0.850799560546875
1772702653618372000,2.4273720703125,-0.259857177734375,0.4646759033203125,0.848876953125
1772702653628422100,2.437422119140625,-0.259918212890625,0.464385986328125,0.8489837646484375
1772702653638471200,2.44747119140625,-0.260894775390625,0.4665069580078125,0.84588623046875
1772702653648521200,2.457521240234375,-0.2607421875,0.46600341796875,0.8452911376953125
1772702653658571300,2.4675712890625,-0.2623291015625,0.4656219482421875,0.84674072265625
1772702653668621300,2.477621337890625,-0.2641143798828125,0.4629058837890625,0.851287841796875
1772702653678671400,2.48767138671875,-0.2606353759765625,0.4629974365234375,0.851226806640625
1772702653688721200,2.49772119140625,-0.2565765380859375,0.462310791015625,0.8479156494140625
1772702653698771200,2.507771240234375,-0.2568511962890625,0.4601287841796875,0.8474273681640625
1772702653708821200,2.5178212890625,-0.256134033203125,0.4627838134765625,0.847320556640625
1772702653718870300,2.527870361328125,-0.2569427490234375,0.4669952392578125,0.849395751953125
1772702653728920300,2.53792041015625,-0.2587738037109375,0.469573974609375,0.8485565185546875
1772702653738970400,2.547970458984375,-0.2572021484375,0.4666595458984375,0.847442626953125
1772702653749020400,2.5580205078125,-0.2602996826171875,0.462982177734375,0.847625732421875
1772702653759070200,2.5680703125,-0.26165771484375,0.4634857177734375,0.845794677734375
1772702653769120300,2.578120361328125,-0.2617645263671875,0.46331787109375,0.846527099609375
1772702653779170300,2.58817041015625,-0.2609710693359375,0.461883544921875,0.848785400390625
1772702653789220400,2.598220458984375,-0.2597808837890625,0.460693359375,0.8488311767578125
1772702653799269000,2.60826904296875,-0.2580718994140625,0.4600372314453125,0.849609375
1772702653809319200,2.618319091796875,-0.255889892578125,0.4616851806640625,0.8495330810546875
1772702653819369200,2.628369140625,-0.2570343017578125,0.46221923828125,0.8515472412109375
1772702653829419300,2.638419189453125,-0.2582550048828125,0.462890625,0.8505401611328125
1772702653839469300,2.64846923828125,-0.260498046875,0.4620513916015625,0.852630615234375
1772702653849519400,2.658519287109375,-0.2601165771484375,0.462310791015625,0.8499755859375
1772702653859569400,2.6685693359375,-0.2599945068359375,0.464111328125,0.84735107421875
1772702653869620200,2.6786201171875,-0.2595367431640625,0.464630126953125,0.8494110107421875
1772702653879669200,2.688669189453125,-0.256866455078125,0.465179443359375,0.8515167236328125
1772702653889719300,2.69871923828125,-0.256500244140625,0.464813232421875,0.852874755859375
1772702653899769300,2.708769287109375,-0.2580718994140625,0.46405029296875,0.852783203125
1772702653909819100,2.718819091796875,-0.2580413818359375,0.4634246826171875,0.851318359375
1772702653919869200,2.728869140625,-0.2576141357421875,0.46173095703125,0.8475189208984375
1772702653929919200,2.738919189453125,-0.257720947265625,0.4640350341796875,0.845855712890625
1772702653939969300,2.74896923828125,-0.25775146484375,0.465423583984375,0.8466796875
1772702653950019300,2.759019287109375,-0.2566680908203125,0.464385986328125,0.848175048828125
1772702653960068400,2.769068359375,-0.2521514892578125,0.4650726318359375,0.84857177734375
1772702653970118400,2.779118408203125,-0.251953125,0.4683380126953125,0.8498992919921875
1772702653980168400,2.78916845703125,-0.2558441162109375,0.4687652587890625,0.8491363525390625
1772702653990218200,2.79921826171875,-0.259765625,0.4652252197265625,0.847930908203125
1772702654000268300,2.809268310546875,-0.2601470947265625,0.464630126953125,0.847930908203125
1772702654010318300,2.819318359375,-0.259674072265625,0.4652862548828125,0.8480072021484375
1772702654020368400,2.829368408203125,-0.25640869140625,0.4661102294921875,0.8506622314453125
1772702654030418200,2.839418212890625,-0.2555084228515625,0.4644317626953125,0.84716796875
1772702654040467200,2.84946728515625,-0.2533721923828125,0.464141845703125,0.8473968505859375
1772702654050517200,2.859517333984375,-0.2526092529296875,0.4660797119140625,0.8507232666015625
1772702654060567000,2.869567138671875,-0.2545623779296875,0.46710205078125,0.84991455078125
1772702654070617000,2.8796171875,-0.25689697265625,0.4656829833984375,0.850189208984375
1772702654080667100,2.889667236328125,-0.2584686279296875,0.466949462890625,0.8521881103515625
1772702654090717400,2.899717529296875,-0.2565155029296875,0.466705322265625,0.8505859375
1772702654100767200,2.909767333984375,-0.253448486328125,0.4673309326171875,0.849761962890625
1772702654110817300,2.9198173828125,-0.255157470703125,0.4683990478515625,0.8498077392578125
1772702654120866300,2.9298662109375,-0.2565765380859375,0.4655914306640625,0.8493194580078125
1772702654130916400,2.939916259765625,-0.2552032470703125,0.4658203125,0.848968505859375
1772702654140966100,2.949966064453125,-0.2547607421875,0.4659423828125,0.8486785888671875
1772702654151016200,2.96001611328125,-0.256011962890625,0.465423583984375,0.84930419921875
1772702654161066200,2.970066162109375,-0.2552032470703125,0.4661102294921875,0.84942626953125
1772702654171116300,2.9801162109375,-0.253265380859375,0.4658355712890625,0.849700927734375
1772702654181166000,2.990166015625,-0.254241943359375,0.46856689453125,0.8497314453125
1772702654191216000,3.000216064453125,-0.255157470703125,0.46575927734375,0.84954833984375
1772702654201265400,3.010265380859375,-0.2557525634765625,0.4673614501953125,0.848785400390625
1772702654211315200,3.020315185546875,-0.2561187744140625,0.46881103515625,0.8496551513671875
1772702654221365200,3.030365234375,-0.2560577392578125,0.466766357421875,0.848785400390625
1772702654231415300,3.040415283203125,-0.2547149658203125,0.466583251953125,0.8490753173828125
1772702654241465300,3.05046533203125,-0.253082275390625,0.4660797119140625,0.8491058349609375
1772702654251515100,3.06051513671875,-0.2528228759765625,0.4647674560546875,0.850738525390625
1772702654261565200,3.070565185546875,-0.2510528564453125,0.46575927734375,0.85089111328125
1772702654271615200,3.080615234375,-0.2519683837890625,0.464691162109375,0.8518524169921875
1772702654281664300,3.090664306640625,-0.255157470703125,0.465576171875,0.8510894775390625
1772702654291714300,3.10071435546875,-0.2555084228515625,0.4664459228515625,0.8477783203125
1772702654301764400,3.110764404296875,-0.256683349609375,0.468353271484375,0.8472747802734375
1772702654311814400,3.120814453125,-0.254425048828125,0.4696807861328125,0.84527587890625
1772702654321864200,3.1308642578125,-0.2550811767578125,0.467803955078125,0.8502960205078125
1772702654331914200,3.140914306640625,-0.2539825439453125,0.466033935546875,0.85174560546875
1772702654341964300,3.15096435546875,-0.25164794921875,0.46649169921875,0.8504486083984375
1772702654352014300,3.161014404296875,-0.250274658203125,0.4661407470703125,0.8499298095703125
1772702654362063000,3.17106298828125,-0.2527923583984375,0.4649505615234375,0.8491973876953125
1772702654372113200,3.181113037109375,-0.255950927734375,0.4656219482421875,0.8475341796875
1772702654382163200,3.1911630859375,-0.2554779052734375,0.46710205078125,0.847808837890625
1772702654392213200,3.201213134765625,-0.2575225830078125,0.4682159423828125,0.8501129150390625
1772702654402263000,3.211262939453125,-0.255218505859375,0.467193603515625,0.8516693115234375
1772702654412313300,3.221313232421875,-0.2517242431640625,0.4670867919921875,0.8521881103515625
1772702654422363400,3.23136328125,-0.2502593994140625,0.465484619140625,0.85302734375
1772702654432413400,3.241413330078125,-0.2524566650390625,0.46630859375,0.8518524169921875
1772702654442462200,3.251462158203125,-0.25213623046875,0.4662017822265625,0.8514556884765625
1772702654452512300,3.26151220703125,-0.2528228759765625,0.46795654296875,0.8520355224609375
1772702654462562300,3.271562255859375,-0.2522125244140625,0.469207763671875,0.852081298828125
1772702654472612000,3.281612060546875,-0.2517547607421875,0.4676971435546875,0.8504791259765625
1772702654482662100,3.291662109375,-0.2519989013671875,0.465728759765625,0.8461456298828125
1772702654492712200,3.301712158203125,-0.2553863525390625,0.465087890625,0.847991943359375
1772702654502762200,3.31176220703125,-0.2575836181640625,0.4659881591796875,0.8469085693359375
1772702654512812000,3.32181201171875,-0.2565155029296875,0.4652862548828125,0.8480987548828125
1772702654522861300,3.331861328125,-0.2552642822265625,0.462738037109375,0.847259521484375
1772702654532911400,3.341911376953125,-0.25299072265625,0.4628143310546875,0.848846435546875
1772702654542961400,3.35196142578125,-0.249908447265625,0.4623565673828125,0.8520660400390625
1772702654553011200,3.36201123046875,-0.2505950927734375,0.4635467529296875,0.8510284423828125
1772702654563061200,3.372061279296875,-0.251007080078125,0.465545654296875,0.8506011962890625
1772702654573111300,3.382111328125,-0.25543212890625,0.464996337890625,0.850128173828125
1772702654583161300,3.392161376953125,-0.2562713623046875,0.465850830078125,0.850341796875
1772702654593211100,3.402211181640625,-0.25640869140625,0.46612548828125,0.8495330810546875
1772702654603260200,3.41226025390625,-0.254302978515625,0.4677276611328125,0.8495635986328125
1772702654613310500,3.422310546875,-0.2532806396484375,0.466094970703125,0.85235595703125
1772702654623360300,3.4323603515625,-0.252227783203125,0.4656524658203125,0.8515472412109375
1772702654633410300,3.442410400390625,-0.2514495849609375,0.46575927734375,0.8514556884765625
1772702654643460400,3.45246044921875,-0.252044677734375,0.464508056640625,0.8501434326171875
1772702654653510400,3.462510498046875,-0.253631591796875,0.46417236328125,0.849853515625
1772702654663560200,3.472560302734375,-0.2499542236328125,0.4670867919921875,0.848846435546875
1772702654673610200,3.4826103515625,-0.2508697509765625,0.468017578125,0.8466796875
1772702654683659300,3.4926591796875,-0.2535552978515625,0.467132568359375,0.8493499755859375
1772702654693709000,3.502708984375,-0.25421142578125,0.4662628173828125,0.85040283203125
1772702654703759000,3.512759033203125,-0.2521820068359375,0.4654083251953125,0.84942626953125
1772702654713809200,3.52280908203125,-0.2531585693359375,0.4662322998046875,0.8479766845703125
1772702654723859200,3.532859130859375,-0.2543487548828125,0.46533203125,0.8464202880859375
1772702654733909200,3.5429091796875,-0.2542877197265625,0.465240478515625,0.8464202880859375
1772702654743959300,3.552959228515625,-0.25457763671875,0.4637298583984375,0.848480224609375
1772702654754009300,3.56300927734375,-0.25335693359375,0.4624481201171875,0.8490753173828125
1772702654764058400,3.573058349609375,-0.2523193359375,0.4628753662109375,0.8498992919921875
1772702654774108200,3.583108154296875,-0.254119873046875,0.464630126953125,0.848846435546875
1772702654784158200,3.593158203125,-0.253570556640625,0.4648590087890625,0.8494110107421875
1772702654794208300,3.603208251953125,-0.2552947998046875,0.4661102294921875,0.8501129150390625
1772702654804258300,3.61325830078125,-0.2563323974609375,0.4656219482421875,0.8492584228515625
1772702654814308000,3.62330810546875,-0.256927490234375,0.46624755859375,0.8498382568359375
1772702654824358100,3.633358154296875,-0.2563934326171875,0.467041015625,0.8486175537109375
1772702654834408200,3.643408203125,-0.2576904296875,0.464202880859375,0.8507232666015625
1772702654844457200,3.653457275390625,-0.255706787109375,0.4623565673828125,0.848663330078125
1772702654854507300,3.66350732421875,-0.2548370361328125,0.463592529296875,0.8491363525390625
1772702654864555500,3.673555419921875,-0.25537109375,0.4647979736328125,0.8486175537109375
1772702654874605300,3.683605224609375,-0.2542724609375,0.464111328125,0.8483123779296875
1772702654884655400,3.6936552734375,-0.25689697265625,0.4649200439453125,0.849090576171875
1772702654894705400,3.703705322265625,-0.257415771484375,0.46612548828125,0.848236083984375
1772702654904755700,3.713755615234375,-0.2567138671875,0.46417236328125,0.8464202880859375
1772702654914805500,3.723805419921875,-0.2576446533203125,0.4634552001953125,0.8481292724609375
1772702654924854500,3.7338544921875,-0.2546844482421875,0.4644775390625,0.8484954833984375
1772702654934904600,3.743904541015625,-0.2563018798828125,0.464599609375,0.8492279052734375
1772702654944954400,3.753954345703125,-0.25634765625,0.4659576416015625,0.8494415283203125
1772702654955004400,3.76400439453125,-0.256561279296875,0.465545654296875,0.847412109375
1772702654965054500,3.774054443359375,-0.2582855224609375,0.46466064453125,0.849273681640625
1772702654975104500,3.7841044921875,-0.2582855224609375,0.4651947021484375,0.849212646484375
1772702654985154300,3.794154296875,-0.25958251953125,0.463836669921875,0.849853515625
1772702654995204400,3.804204345703125,-0.2589263916015625,0.4652099609375,0.849639892578125
1772702655005253600,3.814253662109375,-0.25848388671875,0.464691162109375,0.84820556640625
1772702655015303700,3.8243037109375,-0.257110595703125,0.46533203125,0.8493804931640625
1772702655025353500,3.834353515625,-0.2550811767578125,0.4644775390625,0.8480072021484375
1772702655035403500,3.844403564453125,-0.25604248046875,0.4647369384765625,0.8478240966796875
1772702655045453600,3.85445361328125,-0.256103515625,0.4650421142578125,0.8493194580078125
1772702655055503600,3.864503662109375,-0.2593994140625,0.46368408203125,0.849609375
1772702655065553400,3.874553466796875,-0.25958251953125,0.46234130859375,0.8494720458984375
1772702655075603500,3.884603515625,-0.2575531005859375,0.463775634765625,0.8514556884765625
1772702655085652500,3.894652587890625,-0.2571563720703125,0.4651031494140625,0.85040283203125
1772702655095702500,3.90470263671875,-0.255645751953125,0.4636383056640625,0.848114013671875
1772702655105752600,3.914752685546875,-0.2548828125,0.4652557373046875,0.847991943359375
1772702655115802600,3.924802734375,-0.257110595703125,0.4649200439453125,0.84619140625
1772702655125852700,3.934852783203125,-0.258758544921875,0.4648895263671875,0.845458984375
1772702655135902500,3.94490234375,-0.2611083984375,0.464202880859375,0.850189208984375
1772702655145952500,3.954952392578125,-0.2603302001953125,0.466033935546875,0.8530120849609375
1772702655156002600,3.96500244140625,-0.2568206787109375,0.467498779296875,0.8539581298828125
1772702655166051300,3.97505126953125,-0.2538909912109375,0.4666595458984375,0.8513641357421875
1772702655176101400,3.985101318359375,-0.251861572265625,0.467987060546875,0.8500213623046875
1772702655186151400,3.9951513671875,-0.252777099609375,0.4662628173828125,0.8491973876953125
1772702655196201500,4.005201416015625,-0.2553863525390625,0.4659576416015625,0.845855712890625
1772702655206251300,4.015251220703125,-0.260162353515625,0.4627838134765625,0.8473968505859375
1772702655216301600,4.025301513671875,-0.2610321044921875,0.460540771484375,0.8507080078125
1772702655226351600,4.0353515625,-0.2591400146484375,0.46063232421875,0.8491058349609375
1772702655236401700,4.045401611328125,-0.2573699951171875,0.4616241455078125,0.846954345703125
1772702655246450400,4.055450439453125,-0.2548980712890625,0.4627685546875,0.8475494384765625
1772702655256500500,4.06550048828125,-0.2537689208984375,0.4634552001953125,0.8434906005859375
1772702655266550500,4.075550537109375,-0.2555694580078125,0.46405029296875,0.845245361328125
1772702655276600600,4.0856005859375,-0.2560577392578125,0.464996337890625,0.8502655029296875
1772702655286650400,4.095650390625,-0.259979248046875,0.4650421142578125,0.852783203125
1772702655296700400,4.105700439453125,-0.2589874267578125,0.4631500244140625,0.8524169921875
1772702655306750500,4.11575048828125,-0.25634765625,0.4638214111328125,0.8530731201171875
1772702655316800500,4.125800537109375,-0.2562255859375,0.462799072265625,0.85430908203125
1772702655326849500,4.135849609375,-0.257171630859375,0.46240234375,0.8522796630859375
1772702655336899600,4.145899658203125,-0.257171630859375,0.46356201171875,0.8491058349609375
1772702655346949600,4.15594970703125,-0.2569427490234375,0.4630279541015625,0.8491363525390625
1772702655356999400,4.16599951171875,-0.2575531005859375,0.4631195068359375,0.8495635986328125
1772702655367049500,4.176049560546875,-0.2567901611328125,0.463134765625,0.8467864990234375
1772702655377099500,4.186099609375,-0.2578582763671875,0.463775634765625,0.84515380859375
1772702655387149600,4.196149658203125,-0.2564239501953125,0.463592529296875,0.8450775146484375
1772702655397199400,4.206199462890625,-0.2570343017578125,0.4642486572265625,0.8457489013671875
1772702655407248400,4.216248291015625,-0.2563018798828125,0.464813232421875,0.846893310546875
1772702655417298400,4.22629833984375,-0.2577362060546875,0.4632415771484375,0.8497772216796875
1772702655427348500,4.236348388671875,-0.2573394775390625,0.4637451171875,0.850860595703125
1772702655437398500,4.2463984375,-0.2584228515625,0.46435546875,0.8495941162109375
1772702655447448600,4.256448486328125,-0.2561492919921875,0.46392822265625,0.8483734130859375
1772702655457498600,4.26649853515625,-0.2587127685546875,0.4637451171875,0.8486480712890625
1772702655467548700,4.276548583984375,-0.2602386474609375,0.4628448486328125,0.8495330810546875
1772702655477598500,4.286598388671875,-0.258758544921875,0.462158203125,0.8490753173828125
1772702655487647500,4.2966474609375,-0.2582855224609375,0.4607391357421875,0.8491668701171875
1772702655497697500,4.306697509765625,-0.2606658935546875,0.4624481201171875,0.848968505859375
1772702655507747300,4.316747314453125,-0.2602996826171875,0.4635009765625,0.8474884033203125
1772702655517797400,4.32679736328125,-0.258636474609375,0.4618377685546875,0.8453826904296875
1772702655527847400,4.336847412109375,-0.2560272216796875,0.4626617431640625,0.8473968505859375
1772702655537897500,4.3468974609375,-0.2568817138671875,0.464263916015625,0.8484344482421875
1772702655547947500,4.356947509765625,-0.260162353515625,0.4636993408203125,0.8493804931640625
1772702655557997600,4.36699755859375,-0.260986328125,0.4644622802734375,0.8469085693359375
1772702655568046600,4.377046630859375,-0.2603759765625,0.4658050537109375,0.8466949462890625
1772702655578096400,4.387096435546875,-0.259246826171875,0.4635009765625,0.84564208984375
1772702655588146400,4.397146484375,-0.2576904296875,0.46435546875,0.8477325439453125
1772702655598196500,4.407196533203125,-0.2581024169921875,0.4647369384765625,0.84832763671875
1772702655608246500,4.41724658203125,-0.259857177734375,0.465545654296875,0.8483123779296875
1772702655618296300,4.42729638671875,-0.2599029541015625,0.462738037109375,0.847564697265625
1772702655628346400,4.437346435546875,-0.2606201171875,0.4633636474609375,0.849456787109375
1772702655638396400,4.447396484375,-0.2601318359375,0.46502685546875,0.8498992919921875
1772702655648445700,4.45744580078125,-0.2580108642578125,0.4661102294921875,0.8491058349609375
1772702655658495500,4.46749560546875,-0.2593231201171875,0.4658050537109375,0.8493499755859375
1772702655668545500,4.477545654296875,-0.25958251953125,0.463043212890625,0.8484344482421875
1772702655678595600,4.487595703125,-0.259979248046875,0.4633941650390625,0.8502960205078125
1772702655688645600,4.497645751953125,-0.2611541748046875,0.4638519287109375,0.8509521484375
1772702655698695400,4.5076953125,-0.2599945068359375,0.4638671875,0.8473968505859375
1772702655708745500,4.517745361328125,-0.2587432861328125,0.464019775390625,0.8464202880859375
1772702655718795500,4.52779541015625,-0.257476806640625,0.464508056640625,0.8487701416015625
1772702655728844300,4.53784423828125,-0.2592315673828125,0.4641265869140625,0.8486785888671875
1772702655738894300,4.547894287109375,-0.25927734375,0.4630126953125,0.849273681640625
1772702655748944600,4.557944580078125,-0.2614288330078125,0.4627227783203125,0.8483123779296875
1772702655758994700,4.56799462890625,-0.263336181640625,0.4644622802734375,0.8470458984375
1772702655769044500,4.57804443359375,-0.260650634765625,0.4626312255859375,0.8485565185546875
1772702655779094500,4.588094482421875,-0.2584686279296875,0.46405029296875,0.8487091064453125
1772702655789144600,4.59814453125,-0.2576751708984375,0.46307373046875,0.8476715087890625
1772702655799194600,4.608194580078125,-0.2574005126953125,0.4646759033203125,0.8477935791015625
1772702655809243400,4.618243408203125,-0.2605133056640625,0.463348388671875,0.847137451171875
1772702655819293400,4.62829345703125,-0.2596435546875,0.4638671875,0.84619140625
1772702655829343500,4.638343505859375,-0.2608642578125,0.4647064208984375,0.847991943359375
1772702655839393300,4.648393310546875,-0.2611846923828125,0.46435546875,0.8485565185546875
1772702655849443300,4.658443359375,-0.2593231201171875,0.46392822265625,0.8519134521484375
1772702655859493400,4.668493408203125,-0.257354736328125,0.463836669921875,0.85406494140625
1772702655869543700,4.678543701171875,-0.2570648193359375,0.4626617431640625,0.851470947265625
1772702655879593700,4.68859375,-0.2587432861328125,0.4618988037109375,0.849334716796875
1772702655889642800,4.698642822265625,-0.2603607177734375,0.46343994140625,0.8480224609375
1772702655899692800,4.70869287109375,-0.260498046875,0.4623565673828125,0.8477783203125
1772702655909742800,4.718742919921875,-0.260833740234375,0.4604949951171875,0.849853515625
1772702655919793000,4.72879296875,-0.25927734375,0.460968017578125,0.84967041015625
1772702655929842700,4.7388427734375,-0.2603912353515625,0.4623565673828125,0.848602294921875
1772702655939892700,4.748892822265625,-0.2600555419921875,0.461395263671875,0.848876953125
1772702655949942800,4.75894287109375,-0.2595977783203125,0.4625701904296875,0.8472747802734375
1772702655959992800,4.768992919921875,-0.2611541748046875,0.4596405029296875,0.8483428955078125
1772702655970041900,4.779041748046875,-0.260467529296875,0.4588775634765625,0.8510589599609375
1772702655980092000,4.789091796875,-0.2574615478515625,0.46112060546875,0.8481903076171875
1772702655990142000,4.799141845703125,-0.2584381103515625,0.4621734619140625,0.8514556884765625
1772702656000192000,4.80919189453125,-0.2585296630859375,0.4642333984375,0.8516387939453125
1772702656010241800,4.81924169921875,-0.2605438232421875,0.464935302734375,0.8527984619140625
1772702656020291800,4.829291748046875,-0.25775146484375,0.464813232421875,0.852264404296875
1772702656030342000,4.839341796875,-0.2591552734375,0.4638824462890625,0.8482513427734375
1772702656040392000,4.849391845703125,-0.2600860595703125,0.462646484375,0.850555419921875
1772702656050440700,4.859440673828125,-0.2598419189453125,0.4636383056640625,0.8503875732421875
1772702656060490800,4.86949072265625,-0.2587432861328125,0.4644012451171875,0.849029541015625
1772702656070540800,4.879540771484375,-0.25921630859375,0.46124267578125,0.848724365234375
1772702656080590800,4.8895908203125,-0.2581329345703125,0.459381103515625,0.8469696044921875
1772702656090641000,4.899640869140625,-0.2587127685546875,0.4601287841796875,0.8498992919921875
1772702656100691000,4.90969091796875,-0.257720947265625,0.4610443115234375,0.8481292724609375
1772702656110741000,4.919740966796875,-0.2589111328125,0.462554931640625,0.848419189453125
1772702656120790800,4.929790771484375,-0.258392333984375,0.4603271484375,0.8503265380859375
1772702656130839800,4.93983984375,-0.257049560546875,0.460296630859375,0.851287841796875
1772702656140889900,4.949889892578125,-0.25799560546875,0.4667816162109375,0.84735107421875
1772702656150940000,4.95993994140625,-0.2601470947265625,0.4647369384765625,0.848663330078125
1772702656160989700,4.96998974609375,-0.261260986328125,0.463714599609375,0.8473052978515625
1772702656171039700,4.980039794921875,-0.2606201171875,0.4640045166015625,0.847137451171875
1772702656181089800,4.99008984375,-0.2596588134765625,0.4610443115234375,0.848541259765625
1772702656191139800,5.000139892578125,-0.2603302001953125,0.4617156982421875,0.85064697265625
1772702656201189600,5.010189697265625,-0.259063720703125,0.4613494873046875,0.8499298095703125
1772702656211239000,5.020239013671875,-0.257781982421875,0.4609527587890625,0.850250244140625
1772702656221289000,5.0302890625,-0.257781982421875,0.4611358642578125,0.847747802734375
1772702656231338800,5.0403388671875,-0.259246826171875,0.463409423828125,0.8481292724609375
1772702656241388800,5.050388916015625,-0.2611846923828125,0.463409423828125,0.8496856689453125
1772702656251438800,5.06043896484375,-0.26171875,0.463653564453125,0.848541259765625
1772702656261489000,5.070489013671875,-0.264495849609375,0.4610137939453125,0.8480377197265625
1772702656271538700,5.08053857421875,-0.2646942138671875,0.45941162109375,0.8481597900390625
1772702656281588700,5.090588623046875,-0.2620391845703125,0.4607696533203125,0.848114013671875
1772702656291638000,5.100637939453125,-0.260284423828125,0.4607086181640625,0.8487396240234375
1772702656301687800,5.110687744140625,-0.2601776123046875,0.462066650390625,0.8502349853515625
1772702656311737900,5.12073779296875,-0.259246826171875,0.46392822265625,0.848297119140625
1772702656321788000,5.130787841796875,-0.2599029541015625,0.465576171875,0.8474884033203125
1772702656331838000,5.140837890625,-0.26202392578125,0.46234130859375,0.84747314453125
1772702656341887700,5.1508876953125,-0.2644805908203125,0.460693359375,0.8484954833984375
1772702656351937800,5.160937744140625,-0.2624053955078125,0.462432861328125,0.8512725830078125
1772702656361987800,5.17098779296875,-0.261138916015625,0.4637603759765625,0.85284423828125
1772702656372036900,5.181036865234375,-0.2595672607421875,0.4627685546875,0.85223388671875
1772702656382086700,5.191086669921875,-0.2608642578125,0.4635162353515625,0.8505859375
1772702656392136700,5.20113671875,-0.2608795166015625,0.4658660888671875,0.8517608642578125
1772702656402186800,5.211186767578125,-0.261322021484375,0.465423583984375,0.84893798828125
1772702656412237000,5.221237060546875,-0.2647552490234375,0.4644775390625,0.845977783203125
1772702656422286800,5.231286865234375,-0.265411376953125,0.4628143310546875,0.8466796875
1772702656432337000,5.2413369140625,-0.2637176513671875,0.46307373046875,0.84613037109375
1772702656442387000,5.251386962890625,-0.26446533203125,0.4632568359375,0.8466339111328125
1772702656452435700,5.261435791015625,-0.26416015625,0.4611053466796875,0.849151611328125
1772702656462485800,5.27148583984375,-0.2658233642578125,0.4583892822265625,0.8485260009765625
1772702656472535800,5.281535888671875,-0.2640533447265625,0.4588775634765625,0.84967041015625
1772702656482585900,5.2915859375,-0.264129638671875,0.459869384765625,0.84857177734375
1772702656492635600,5.3016357421875,-0.2616119384765625,0.46234130859375,0.84423828125
1772702656502685000,5.311684814453125,-0.2640838623046875,0.4614105224609375,0.8451080322265625
1772702656512735000,5.32173486328125,-0.264984130859375,0.4598541259765625,0.8457183837890625
1772702656522784800,5.33178466796875,-0.266357421875,0.45941162109375,0.8496246337890625
1772702656532834800,5.341834716796875,-0.2657318115234375,0.4610595703125,0.850067138671875
1772702656542884900,5.351884765625,-0.2662506103515625,0.4607391357421875,0.8520050048828125
1772702656552935000,5.361934814453125,-0.265472412109375,0.458648681640625,0.8524322509765625
1772702656562983700,5.371983642578125,-0.263275146484375,0.4609832763671875,0.8522186279296875
1772702656573033700,5.38203369140625,-0.2617034912109375,0.46075439453125,0.8496551513671875
1772702656583083800,5.392083740234375,-0.2621307373046875,0.4633941650390625,0.84844970703125
1772702656593133800,5.4021337890625,-0.26239013671875,0.462066650390625,0.8465423583984375
1772702656603183900,5.412183837890625,-0.264923095703125,0.46392822265625,0.8472137451171875
1772702656613234000,5.42223388671875,-0.26361083984375,0.462249755859375,0.848114013671875
1772702656623284000,5.432283935546875,-0.2658538818359375,0.4599151611328125,0.8472900390625
1772702656633334000,5.442333984375,-0.26483154296875,0.459808349609375,0.8477630615234375
1772702656643382800,5.4523828125,-0.2649383544921875,0.4600372314453125,0.8480072021484375
1772702656653432800,5.462432861328125,-0.2640228271484375,0.459747314453125,0.8474273681640625
1772702656663483000,5.47248291015625,-0.265380859375,0.4625396728515625,0.8497467041015625
1772702656673532700,5.48253271484375,-0.264251708984375,0.4597930908203125,0.849853515625
1772702656683582700,5.492582763671875,-0.2648773193359375,0.461456298828125,0.8496551513671875
1772702656693632800,5.5026328125,-0.2649688720703125,0.4608917236328125,0.84954833984375
1772702656703682800,5.512682861328125,-0.263916015625,0.458526611328125,0.85137939453125
1772702656713731800,5.52273193359375,-0.262298583984375,0.458892822265625,0.85284423828125
1772702656723782000,5.532781982421875,-0.261138916015625,0.460906982421875,0.855194091796875
1772702656733832000,5.54283203125,-0.2614288330078125,0.46063232421875,0.8527679443359375
1772702656743882000,5.552882080078125,-0.26153564453125,0.4600372314453125,0.849639892578125
1772702656753931800,5.562931884765625,-0.264739990234375,0.461578369140625,0.8477325439453125
1772702656763981800,5.57298193359375,-0.265777587890625,0.4614715576171875,0.85125732421875
1772702656774032000,5.583031982421875,-0.2648162841796875,0.4614410400390625,0.8488311767578125
1772702656784082000,5.59308203125,-0.2631683349609375,0.4603118896484375,0.8492279052734375
1772702656794131700,5.603131591796875,-0.2636566162109375,0.4585113525390625,0.8496551513671875
1772702656804180700,5.6131806640625,-0.2637481689453125,0.4612884521484375,0.8484649658203125
1772702656814231000,5.62323095703125,-0.260986328125,0.4618988037109375,0.8481903076171875
1772702656824280800,5.63328076171875,-0.2615966796875,0.461273193359375,0.848114013671875
1772702656834331000,5.643330810546875,-0.263641357421875,0.46087646484375,0.849395751953125
1772702656844381000,5.653380859375,-0.265533447265625,0.4640350341796875,0.848297119140625
1772702656854431000,5.663430908203125,-0.2668304443359375,0.466461181640625,0.8458251953125
1772702656864480800,5.673480712890625,-0.26409912109375,0.4599456787109375,0.8458404541015625
1772702656874531300,5.68353125,-0.2613372802734375,0.4601287841796875,0.846099853515625
1772702656884581400,5.693581298828125,-0.260528564453125,0.4604339599609375,0.8481903076171875
1772702656894631400,5.70363134765625,-0.2617034912109375,0.459625244140625,0.85137939453125
1772702656904681500,5.713681396484375,-0.262969970703125,0.458526611328125,0.850189208984375
1772702656914730200,5.723730224609375,-0.2639923095703125,0.459930419921875,0.846893310546875
1772702656924780300,5.7337802734375,-0.262939453125,0.4612884521484375,0.8473052978515625
1772702656934830300,5.743830322265625,-0.260345458984375,0.461334228515625,0.8507537841796875
1772702656944880400,5.75388037109375,-0.260101318359375,0.4618988037109375,0.8516845703125
1772702656954930400,5.763930419921875,-0.2586517333984375,0.4636993408203125,0.8505096435546875
1772702656964980500,5.77398046875,-0.261199951171875,0.466522216796875,0.8480224609375
1772702656975030500,5.784030517578125,-0.26531982421875,0.4669189453125,0.8465576171875
1772702656985080600,5.79408056640625,-0.2665252685546875,0.465576171875,0.8472900390625
1772702656995130400,5.80413037109375,-0.26904296875,0.463714599609375,0.8471527099609375
1772702657005179400,5.814179443359375,-0.2628326416015625,0.4600067138671875,0.847930908203125
1772702657015229400,5.8242294921875,-0.2557525634765625,0.4612884521484375,0.8462677001953125
1772702657025279200,5.834279296875,-0.256988525390625,0.4615478515625,0.8510894775390625
1772702657035329300,5.844329345703125,-0.2580413818359375,0.46124267578125,0.8473358154296875
1772702657045379300,5.85437939453125,-0.2586212158203125,0.45977783203125,0.8457489013671875
1772702657055429400,5.864429443359375,-0.2626800537109375,0.4577484130859375,0.853271484375
1772702657065479200,5.874479248046875,-0.2671051025390625,0.46221923828125,0.85205078125
1772702657075529200,5.884529296875,-0.271453857421875,0.4639739990234375,0.8466033935546875
1772702657085578500,5.89457861328125,-0.26104736328125,0.4611663818359375,0.841033935546875
1772702657095628300,5.904628173828125,-0.241302490234375,0.4637603759765625,0.8596649169921875
1772702657105678300,5.91467822265625,-0.2718658447265625,0.461456298828125,0.85723876953125
1772702657115728400,5.924728271484375,-0.2939300537109375,0.4619903564453125,0.8399505615234375
1772702657125778400,5.9347783203125,-0.260833740234375,0.4620361328125,0.84332275390625
1772702657135828200,5.944828125,-0.2322235107421875,0.461395263671875,0.8556060791015625
