time,seconds_elapsed,z,y,x
1772702651246601500,0.0556015625,0.008863266557455063,0.022913571447134018,0.003194994293153286
1772702651256651500,0.065651611328125,0.0076238312758505344,0.011990349739789963,-0.0006399576086550951
1772702651266701800,0.075701904296875,0.003924434073269367,-0.001332912128418684,-0.01258157193660736
1772702651276751600,0.085751708984375,0.0007776430575177073,-0.008128766901791096,-0.01555152889341116
1772702651286801700,0.0958017578125,-0.0015427692560479045,-0.010603375732898712,-0.014730476774275303
1772702651296851700,0.105851806640625,-0.0006492786924354732,-0.012866529636085033,-0.009548497386276722
1772702651306901800,0.11590185546875,-0.0009006810723803937,-0.014709170907735825,-0.007925300858914852
1772702651316950500,0.125950439453125,0.0005182511522434652,-0.00908377580344677,-0.0022767363116145134
1772702651327000600,0.13600048828125,-0.0007629956235177815,-0.0031305458396673203,-0.004796619527041912
1772702651337050600,0.146050537109375,-0.002296443795785308,-0.007923702709376812,-0.01041429117321968
1772702651347100700,0.1561005859375,-0.004232561681419611,-0.0057678744196891785,-0.010318417102098465
1772702651357150500,0.166150390625,-0.00765898497775197,-0.0013198626693338156,-0.004806206561625004
1772702651367200500,0.176200439453125,-0.004835501778870821,-0.0009896307019516826,-0.0036738307680934668
1772702651377250600,0.18625048828125,-0.006189452484250069,0.002625077962875366,-0.0012626046082004905
1772702651387300600,0.196300537109375,-0.005472263321280479,0.003689809702336788,0.003023220458999276
1772702651397349600,0.206349609375,-0.005385976750403643,-0.0046445527113974094,0.0029342707712203264
1772702651407399700,0.216399658203125,-0.003999269101768732,0.0009512811084277928,0.0062096924521028996
1772702651417449700,0.22644970703125,-0.007187339011579752,0.009102418087422848,0.007261907681822777
1772702651427499500,0.23649951171875,-0.00860121101140976,0.014712633565068245,0.010957309976220131
1772702651437549600,0.246549560546875,-0.00752156600356102,0.011806592345237732,0.012477442622184753
1772702651447599600,0.256599609375,-0.008992962539196014,0.014030331745743752,0.01613529399037361
1772702651457649700,0.266649658203125,-0.009032110683619976,0.015424762852489948,0.014857775531709194
1772702651467699500,0.276699462890625,-0.0070400661788880825,0.015961922705173492,0.014342720620334148
1772702651477748700,0.286748779296875,-0.0070861391723155975,0.014185327105224133,0.01840084418654442
1772702651487798800,0.296798828125,-0.006936203222721815,0.01004810631275177,0.021132981404662132
1772702651497848600,0.3068486328125,-0.00851385947316885,0.011120561510324478,0.01865331269800663
1772702651507898600,0.316898681640625,-0.011536546982824802,0.011381817981600761,0.017970478162169456
1772702651517948700,0.32694873046875,-0.008785502053797245,0.015264173969626427,0.016748886555433273
1772702651527998700,0.336998779296875,-0.010520551353693008,0.019710054621100426,0.01804904080927372
1772702651538048500,0.347048583984375,-0.00863396842032671,0.015974972397089005,0.01726127788424492
1772702651548098600,0.3570986328125,-0.0071766865439713,0.014936605468392372,0.01684156432747841
1772702651558147600,0.367147705078125,-0.011680091731250286,0.022948458790779114,0.0161824319511652
1772702651568197600,0.37719775390625,-0.009048622101545334,0.023855797946453094,0.016875652596354485
1772702651578247400,0.387247314453125,-0.004817125853151083,0.015431953594088554,0.018370218575000763
1772702651588297700,0.397297607421875,-0.008020375855267048,0.0073529877699911594,0.015988286584615707
1772702651598347800,0.40734765625,-0.009947439655661583,0.011782091110944748,0.012704876251518726
1772702651608397800,0.417397705078125,-0.006491455249488354,0.02611522376537323,0.01563861407339573
1772702651618447600,0.427447509765625,-0.011173292063176632,0.031087610870599747,0.013068930245935917
1772702651628497700,0.43749755859375,-0.011603925377130508,0.02123311720788479,0.013658554293215275
1772702651638546700,0.447546630859375,-0.011620703153312206,0.01840483956038952,0.013835920952260494
1772702651648596500,0.457596435546875,-0.011258247308433056,0.021563082933425903,0.013364807702600956
1772702651658646500,0.467646484375,-0.01233522966504097,0.01938168704509735,0.010717625729739666
1772702651668696600,0.477696533203125,-0.01344843115657568,0.011463310569524765,0.012459066696465015
1772702651678746600,0.48774658203125,-0.013624199666082859,0.00845420453697443,0.007839281111955643
1772702651688796400,0.49779638671875,-0.01248196978121996,0.011916580609977245,0.01025556679815054
1772702651698846500,0.507846435546875,-0.010438526049256325,0.013102752156555653,0.008592156693339348
1772702651708896500,0.517896484375,-0.008705341257154942,0.011986088939011097,0.012029765173792839
1772702651718945500,0.527945556640625,-0.002701510675251484,0.010976484976708889,0.010302438400685787
1772702651728995600,0.53799560546875,-0.000020506340661086142,0.013458018191158772,0.012679575942456722
1772702651739045600,0.548045654296875,-0.0002711098059080541,0.01926530711352825,0.013408216647803783
1772702651749095700,0.558095703125,-0.0032445292454212904,0.022835275158286095,0.010430004447698593
1772702651759145700,0.568145751953125,-0.002516420790925622,0.0231734961271286,0.0115559883415699
1772702651769195500,0.578195556640625,-0.0011643340112641454,0.016157131642103195,0.012949087657034397
1772702651779245600,0.58824560546875,-0.0031100395135581493,0.012094746343791485,0.012042813934385777
1772702651789295600,0.598295654296875,-0.00010572749306447804,0.007689877413213253,0.015067100524902344
1772702651799344600,0.6083447265625,-0.0036874127108603716,0.003631486324593425,0.008990298956632614
1772702651809394700,0.618394775390625,-0.005277053453028202,0.0038248319178819656,0.009167931973934174
1772702651819444700,0.62844482421875,-0.004101534374058247,0.007136472500860691,0.010939733125269413
1772702651829494800,0.638494873046875,-0.0030399984680116177,0.0062613580375909805,0.010304835624992847
1772702651839544600,0.648544677734375,-0.003323092358186841,0.006351905409246683,0.012582104653120041
1772702651849594600,0.6585947265625,-0.0020506340079009533,0.005865079816430807,0.011713647283613682
1772702651859643600,0.6686435546875,-0.0031414648983627558,0.011834288947284222,0.009719472378492355
1772702651869693700,0.678693603515625,-0.0025214808993041515,0.016880713403224945,0.009528257884085178
1772702651879742700,0.68874267578125,-0.0008631304954178631,0.008596683852374554,0.00902758352458477
1772702651889792800,0.698792724609375,-0.0012626046082004905,0.0057194046676158905,0.009385778568685055
1772702651899842800,0.7088427734375,0.0017321199411526322,0.010446782223880291,0.0041305627673864365
1772702651909892900,0.718892822265625,-0.0004370247188489884,0.017307883128523827,0.004430701024830341
1772702651919942700,0.728942626953125,0.0012370382901281118,0.013171462342143059,0.005505286622792482
1772702651929992700,0.73899267578125,0.0026967169251292944,0.0036727653350681067,0.006637129932641983
1772702651940042800,0.749042724609375,0.0021462414879351854,0.0028365328907966614,0.005657086614519358
1772702651950092800,0.7590927734375,0.0013305152533575892,0.009783654473721981,0.001698830397799611
1772702651960141600,0.7691416015625,0.004481567535549402,0.008473113179206848,0.0036421390250325203
1772702651970191600,0.779191650390625,0.0030277478508651257,0.0067971860989928246,0.003349191276356578
1772702651980241700,0.78924169921875,0.0025297366082668304,0.009521067142486572,0.004957740660756826
1772702651990291700,0.799291748046875,-0.0004950816510245204,0.005063468124717474,0.0017116136150434613
1772702652000341800,0.809341796875,0.0008317052270285785,0.0023792681749910116,0.004245877731591463
1772702652010391800,0.819391845703125,-0.0006468818173743784,0.0060296631418168545,-0.0007185208378359675
1772702652020441900,0.82944189453125,-0.00007856325100874528,0.003879959462210536,0.00009267800487577915
1772702652030491600,0.83949169921875,-0.001228516222909093,0.003832288784906268,0.002511360915377736
1772702652040540700,0.849540771484375,-0.00061279337387532,-0.00126713200006634,0.002663161139935255
1772702652050590700,0.8595908203125,-0.0012535499408841133,-0.0012857741676270962,0.002581668319180608
1772702652060640800,0.869640869140625,0.0005094627267681062,-0.0005060005933046341,0.0004972121678292751
1772702652070690600,0.879690673828125,0.00013209278404247016,0.008358864113688469,0.003400590270757675
1772702652080740600,0.88974072265625,0.0030157635919749737,0.012077967636287212,0.006681072060018778
1772702652090790700,0.899790771484375,-0.00010652644414221868,0.01022787019610405,0.004082093480974436
1772702652100840700,0.9098408203125,-0.0007992146420292556,0.0076153092086315155,0.004162254277616739
1772702652110890800,0.919890869140625,0.00003062635369133204,0.010951451025903225,0.001748897833749652
1772702652120939800,0.929939697265625,0.0004932174342684448,0.006612629164010286,0.006521548610180616
1772702652130989800,0.93998974609375,-0.0007334345718845725,0.006359628401696682,0.004218713380396366
1772702652141039600,0.95003955078125,-0.0008088020258583128,0.012229768559336662,0.0029795446898788214
1772702652151089700,0.960089599609375,-0.003358246060088277,0.011292868293821812,0.003177683800458908
1772702652161139700,0.9701396484375,0.00040852889651432633,0.010508300736546516,0.004687163513153791
1772702652171189800,0.980189697265625,-0.0037169738207012415,0.004175303969532251,0.002034388715401292
1772702652181239600,0.990239501953125,-0.0006809702608734369,0.009977000765502453,0.0017294568242505193
1772702652191289600,1.00028955078125,-0.0034261567052453756,0.014995461329817772,-0.0004980111261829734
1772702652201339000,1.0103388671875,0.00013369068619795144,0.014121411368250847,-0.0007299724384211004
1772702652211388700,1.020388671875,-0.0015108112711459398,0.013162673451006413,0.0006114617572166026
1772702652221438700,1.030438720703125,-0.001811482128687203,0.011628692969679832,0.00018748654110822827
1772702652231488800,1.04048876953125,-0.0015462313313037157,0.012142150662839413,-0.0010151970200240612
1772702652241538800,1.050538818359375,-0.0021784657146781683,0.004726844374090433,-0.00469435378909111
1772702652251588600,1.060588623046875,-0.0014540859265252948,0.00811944529414177,-0.00512924836948514
1772702652261638700,1.070638671875,-0.0007254450465552509,0.013491307385265827,-0.005820072256028652
1772702652271688700,1.080688720703125,-0.0023664848413318396,0.012044145725667477,-0.00538491178303957
1772702652281737700,1.09073779296875,-0.005821403581649065,0.009879528544843197,-0.004098871257156134
1772702652291787500,1.10078759765625,-0.00041971419705078006,0.008023837581276894,-0.00395745737478137
1772702652301837600,1.110837646484375,-0.0017856494523584843,0.009387643076479435,-0.004510063212364912
1772702652311887600,1.1208876953125,-0.000003728425554072601,0.007132211700081825,-0.003371029393747449
1772702652321938000,1.13093798828125,-0.0020447750575840473,0.017406953498721123,-0.0024170849937945604
1772702652331987700,1.14098779296875,-0.00196408131159842,0.026334667578339577,-0.004806472919881344
1772702652342037800,1.151037841796875,-0.0021310613956302404,0.01931244507431984,-0.005248824134469032
1772702652352087800,1.161087890625,-0.0034818167332559824,0.01569853536784649,-0.003846403444185853
1772702652362136600,1.171136474609375,-0.008913866244256496,0.013701697811484337,-0.012621519155800343
1772702652372186600,1.1811865234375,-0.004899151157587767,0.007837150245904922,-0.010192183777689934
1772702652382236700,1.191236572265625,-0.00552366254851222,0.004254399798810482,-0.008498946204781532
1772702652392286700,1.20128662109375,-0.0036695697344839573,-0.0006263754912652075,-0.010521883144974709
1772702652402336500,1.21133642578125,-0.0005749764968641102,0.0070555126294493675,-0.005302353762090206
1772702652412386600,1.221386474609375,0.0032173648942261934,0.014907577075064182,-0.0073476615361869335
1772702652422436600,1.2314365234375,0.0036338833160698414,0.009413741528987885,-0.004083691164851189
1772702652432486700,1.241486572265625,0.0019481023773550987,0.006486129015684128,0.00008069378236541525
1772702652442535700,1.25153564453125,0.006538859568536282,0.0067511131055653095,-0.0026788737159222364
1772702652452585700,1.261585693359375,0.004490622319281101,0.005176386330276728,-0.006127933505922556
1772702652462635800,1.2716357421875,0.002990197157487273,-0.002311091171577573,-0.005970807280391455
1772702652472685800,1.281685791015625,0.0006074670236557722,0.00802996288985014,-0.0076003954745829105
1772702652482735600,1.291735595703125,-0.00019467707898002118,0.020024308934807777,-0.005049886181950569
1772702652492785700,1.30178564453125,-0.0044144559651613235,0.003057841444388032,-0.005980394314974546
1772702652502835700,1.311835693359375,-0.003834951901808381,0.0016671388875693083,-0.010219081304967403
1772702652512885800,1.3218857421875,-0.002398176584392786,0.007276555057615042,-0.009680590592324734
1772702652522934800,1.331934814453125,-0.0015132081462070346,-0.016471916809678078,-0.006879211403429508
1772702652532984800,1.34198486328125,-0.0010879012988880277,0.003969441633671522,-0.008400941267609596
1772702652543035000,1.352034912109375,0.002404301892966032,0.011335745453834534,-0.0046538738533854485
1772702652553084700,1.362084716796875,0.0009504822082817554,0.020124442875385284,-0.0031350732315331697
1772702652563134700,1.372134765625,0.0020519655663520098,0.01810789667069912,-0.003724164329469204
1772702652573184800,1.382184814453125,0.002226136391982436,0.008051002398133278,-0.005628857295960188
1772702652583234800,1.39223486328125,0.0015907060587778687,0.006875749211758375,-0.0049095372669398785
1772702652593284600,1.40228466796875,-0.0004918858758173883,0.004791026934981346,-0.009799634106457233
1772702652603333600,1.412333740234375,-0.0008404936525039375,0.010761567391455173,-0.010047308169305325
1772702652613383700,1.4223837890625,-0.0005185174522921443,0.00875168014317751,-0.005875199567526579
1772702652623433500,1.43243359375,-0.002430400811135769,0.009029979817569256,-0.004289287142455578
1772702652633483800,1.44248388671875,-0.001945705502294004,0.007669903803616762,-0.003623230615630746
1772702652643533800,1.452533935546875,0.0012013519881293178,0.01215519942343235,-0.0007795072160661221
1772702652653584000,1.462583984375,0.0009257147903554142,0.009814281016588211,-0.0032469260040670633
1772702652663633700,1.472633544921875,-0.004423776641488075,0.00932239554822445,-0.0021667478140443563
1772702652673683700,1.48268359375,-0.002017078222706914,0.006983074825257063,-0.00039228363311849535
1772702652683732700,1.492732666015625,-0.0007297061383724213,0.006458698306232691,0.0006564692012034357
1772702652693782800,1.50278271484375,-0.0022335932590067387,0.007936486043035984,0.0018378474051132798
1772702652703832600,1.51283251953125,-0.0036458675749599934,0.012461462989449501,0.001017593895085156
1772702652713882600,1.522882568359375,-0.001885784324258566,0.016463661566376686,-0.0008575378451496363
1772702652723932700,1.5329326171875,-0.0036133769899606705,0.014024739153683186,0.0015310513554140925
1772702652733982700,1.542982666015625,-0.0034961977507919073,0.010341853834688663,0.0024234766606241465
1772702652744032500,1.553032470703125,-0.004544151946902275,0.007459514308720827,-0.0008431567694060504
1772702652754082600,1.56308251953125,-0.003275954397395253,0.0037497307639569044,0.0014317154418677092
1772702652764131800,1.5731318359375,-0.003938016481697559,0.0054576159454882145,0.0020069582387804985
1772702652774181600,1.583181640625,0.00019893812714144588,0.0059867859818041325,0.0038746329955756664
1772702652784231700,1.593231689453125,0.00009241169027518481,0.007427556440234184,0.0035654399544000626
1772702652794281700,1.60328173828125,-0.0016919062472879887,0.009547166526317596,0.0010793792316690087
1772702652804331800,1.613331787109375,-0.0028184233233332634,0.013494770042598248,0.0021702100057154894
1772702652814381600,1.623381591796875,-0.00361763802357018,0.008629441261291504,0.0011534150689840317
1772702652824431600,1.633431640625,-0.0012242551892995834,0.011746937409043312,0.003766242414712906
1772702652834481700,1.643481689453125,-0.001222390914335847,0.01733744516968727,0.0013797837309539318
1772702652844531000,1.653531005859375,-0.0008697884040884674,0.011209244839847088,0.0005882922559976578
1772702652854580700,1.663580810546875,-0.0019022959750145674,0.004186755511909723,0.0057316552847623825
1772702652864631300,1.67363134765625,-0.0024082965683192015,0.006350839976221323,0.00754979532212019
1772702652874681300,1.683681396484375,-0.003993942867964506,0.008478705771267414,0.001716939965263009
1772702652884731400,1.6937314453125,-0.0039039277471601963,0.009600695222616196,0.0000881506348378025
1772702652894781400,1.703781494140625,-0.003623230615630746,0.012507270090281963,-0.0006785734440200031
1772702652904831200,1.713831298828125,-0.0068089039996266365,0.015294534154236317,-0.0026019082870334387
1772702652914881300,1.72388134765625,-0.0047060721553862095,0.015341405756771564,-0.0007275756215676665
1772702652924930300,1.733930419921875,-0.005420331843197346,0.004707669839262962,0.0009094694978557527
1772702652934980000,1.74397998046875,-0.003367567202076316,0.00688933115452528,0.00012969593808520585
1772702652945030100,1.754030029296875,-0.0021252024453133345,0.01321061048656702,-0.00035499935620464385
1772702652955080200,1.764080078125,-0.00564004248008132,0.00746164470911026,-0.0015238607302308083
1772702652965130200,1.774130126953125,-0.003938548732548952,0.0016508935950696468,-0.0014468954177573323
1772702652975180000,1.784179931640625,-0.004634166602045298,0.003442668356001377,-0.0014303837670013309
1772702652985230000,1.79422998046875,-0.0026991136837750673,0.013135775923728943,-0.0014572817599400878
1772702652995279400,1.804279296875,-0.002630404196679592,0.015896940603852272,-0.0012322446564212441
1772702653005329200,1.8143291015625,-0.004554804414510727,0.015152054838836193,-0.003637877991423011
1772702653015379200,1.824379150390625,-0.005757221486419439,0.02148691564798355,-0.0017052220646291971
1772702653025429200,1.83442919921875,-0.006088785361498594,0.019837886095046997,-0.0029579729307442904
1772702653035479300,1.844479248046875,-0.00523790530860424,0.01648576557636261,-0.006368150934576988
1772702653045529000,1.854529052734375,-0.005254416726529598,0.021411815658211708,-0.004916728008538485
1772702653055579100,1.8645791015625,-0.004316984210163355,0.017134511843323708,-0.006140450481325388
1772702653065629200,1.874629150390625,-0.004295945167541504,0.0047849016264081,-0.004274373408406973
1772702653075679200,1.88467919921875,-0.0046964846551418304,0.00029348034877330065,-0.00714739179238677
1772702653085728300,1.894728271484375,-0.0027537085115909576,0.011742942035198212,-0.008215852081775665
1772702653095778300,1.9047783203125,-0.002709500025957823,0.01453047338873148,-0.005456284619867802
1772702653105828400,1.914828369140625,-0.0013915016315877438,0.010342918336391449,-0.005857622716575861
1772702653115878400,1.92487841796875,-0.0007334345718845725,0.010645720176398754,-0.00481339730322361
1772702653125928200,1.93492822265625,0.0020327907986938953,0.010635600425302982,-0.005647765472531319
1772702653135978200,1.944978271484375,0.003513242118060589,0.011231615208089352,-0.008706672117114067
1772702653146028300,1.9550283203125,0.002826679265126586,0.01703357882797718,-0.00911493506282568
1772702653156078300,1.965078369140625,0.0006862966110929847,0.01924906112253666,-0.011117366142570972
1772702653166127000,1.975127197265625,0.0003608583356253803,0.01465697307139635,-0.008829976432025433
1772702653176177200,1.98517724609375,0.0008404936525039375,0.0073351445607841015,-0.010588728822767735
1772702653186227200,1.995227294921875,-0.002514024032279849,0.0012325108982622623,-0.011405786499381065
1772702653196277200,2.00527734375,-0.0007344998302869499,-0.0022485069930553436,-0.015050321817398071
1772702653206327300,2.015327392578125,-0.004656004719436169,0.003635214874520898,-0.013307017274200916
1772702653216377300,2.02537744140625,-0.004854942671954632,0.010267551057040691,-0.0111621068790555
1772702653226427400,2.035427490234375,0.0001310275256400928,0.010640393942594528,-0.00944969430565834
1772702653236477200,2.045477294921875,0.0006761765689589083,0.013889184221625328,-0.009394566528499126
1772702653246526200,2.055526123046875,0.0019166769925504923,0.017669009044766426,-0.008174040354788303
1772702653256576300,2.065576171875,0.0007430219557136297,0.016206134110689163,-0.00872131995856762
1772702653266626300,2.075626220703125,0.0014234596164897084,0.01738724671304226,-0.010059824213385582
1772702653276676000,2.085676025390625,-0.0001680454588495195,0.016351010650396347,-0.008330367505550385
1772702653286726100,2.09572607421875,-0.0017638115677982569,0.014815697446465492,-0.008341286331415176
1772702653296776200,2.105776123046875,-0.001442900625988841,0.009050486609339714,-0.006667490117251873
1772702653306826200,2.115826171875,-0.0029148298781365156,0.01113414391875267,-0.005126585252583027
1772702653316875300,2.125875244140625,-0.0017656758427619934,0.008372179232537746,-0.008929313160479069
1772702653326925300,2.13592529296875,-0.005783853121101856,0.010863833129405975,-0.009119195863604546
1772702653336975400,2.145975341796875,-0.0006580671179108322,0.010479272343218327,-0.005884254351258278
1772702653347025200,2.156025146484375,-0.0017116136150434613,0.01182203833013773,-0.0046850331127643585
1772702653357075200,2.1660751953125,-0.002516420790925622,0.00956873781979084,-0.005675728898495436
1772702653367125200,2.176125244140625,-0.0015792545164003968,0.016956878826022148,-0.0043657198548316956
1772702653377175300,2.18617529296875,-0.002156894188374281,0.02261742763221264,-0.003454386256635189
1772702653387225000,2.19622509765625,0.0000010652644277797663,0.016749152913689613,-0.006455768831074238
1772702653397274400,2.2062744140625,-0.003973702434450388,0.014791995286941528,-0.005083708092570305
1772702653407324400,2.216324462890625,-0.000883636821527034,0.00503923324868083,-0.0031968585681170225
1772702653417374200,2.226374267578125,-0.006106628105044365,0.006836866959929466,-0.006584665738046169
1772702653427424300,2.23642431640625,-0.004173972178250551,0.009004147723317146,-0.00640756543725729
1772702653437474300,2.246474365234375,-0.004292216617614031,0.011602859944105148,-0.007967112585902214
1772702653447524400,2.2565244140625,-0.00729493098333478,0.014657505787909031,-0.006629673298448324
1772702653457574100,2.26657421875,-0.008019576780498028,0.016530772671103477,-0.0041641187854111195
1772702653467624200,2.276624267578125,-0.005398227367550135,0.01702665351331234,-0.0011475561186671257
1772702653477673200,2.286673095703125,-0.006759635638445616,0.017415475100278854,-0.0022628880105912685
1772702653487723300,2.29672314453125,-0.008501608856022358,0.016091885045170784,-0.003382747294381261
1772702653497773000,2.30677294921875,-0.008255532942712307,0.020566793158650398,-0.003486344125121832
1772702653507823000,2.316822998046875,-0.01047208160161972,0.02027970552444458,0.00035180358099751174
1772702653517873400,2.326873291015625,-0.00600409647449851,0.01607270911335945,0.005622465629130602
1772702653527923500,2.33692333984375,-0.0073013221845030785,0.017484717071056366,-0.0010484865633770823
1772702653537973200,2.34697314453125,-0.008310927078127861,0.018073009327054024,0.002441585995256901
1772702653548023300,2.357023193359375,-0.009999637492001057,0.015620239078998566,0.0008820389630272985
1772702653558072300,2.367072265625,-0.009719738736748695,0.020310863852500916,0.0011347729014232755
1772702653568122000,2.3771220703125,-0.007095726206898689,0.02082378976047039,0.005744970869272947
1772702653578172200,2.387172119140625,-0.009466738440096378,0.022189991548657417,0.006695985794067383
1772702653588222200,2.39722216796875,-0.007529555354267359,0.02346963994204998,0.005139101762324572
1772702653598272300,2.407272216796875,-0.009562612511217594,0.02262035757303238,0.006697317585349083
1772702653608322000,2.417322021484375,-0.007875766605138779,0.02436153218150139,0.003724963404238224
1772702653618372000,2.4273720703125,-0.007218498270958662,0.019291672855615616,0.005137237720191479
1772702653628422100,2.437422119140625,-0.008685100823640823,0.020237892866134644,0.0030426615849137306
1772702653638471200,2.44747119140625,-0.009093097411096096,0.0180000402033329,0.00307621737010777
1772702653648521200,2.457521240234375,-0.0112824821844697,0.01631292700767517,0.0012181298807263374
1772702653658571300,2.4675712890625,-0.008448345586657524,0.014597318135201931,0.001362473238259554
1772702653668621300,2.477621337890625,-0.00720411678776145,0.015172561630606651,0.00532685499638319
1772702653678671400,2.48767138671875,-0.003709516953676939,0.013682256452739239,0.009396431036293507
1772702653688721200,2.49772119140625,-0.007690942846238613,0.024041153490543365,0.007632353343069553
1772702653698771200,2.507771240234375,-0.006971889175474644,0.034145984798669815,0.007761782966554165
1772702653708821200,2.5178212890625,-0.010152502916753292,0.037454962730407715,0.00016005597717594355
1772702653718870300,2.527870361328125,-0.007407582364976406,0.03292465955018997,0.006208094768226147
1772702653728920300,2.53792041015625,-0.007896272465586662,0.029734192416071892,0.003540672594681382
1772702653738970400,2.547970458984375,-0.011437477543950081,0.023787355050444603,0.0011893677292391658
1772702653749020400,2.5580205078125,-0.01095597818493843,0.01950685679912567,0.0002564624010119587
1772702653759070200,2.5680703125,-0.012078766711056232,0.017787253484129906,-0.00022556974727194756
1772702653769120300,2.578120361328125,-0.0101402522996068,0.017424529418349266,0.002891660202294588
1772702653779170300,2.58817041015625,-0.009857158176600933,0.01871483214199543,-0.0005185174522921443
1772702653789220400,2.598220458984375,-0.0059782639145851135,0.02352956123650074,0.00021731393644586205
1772702653799269000,2.60826904296875,-0.006405435036867857,0.03087588958442211,-0.0014439659425988793
1772702653809319200,2.618319091796875,-0.003650128608569503,0.03321121633052826,0.0003182477375958115
1772702653819369200,2.628369140625,-0.005762814078480005,0.026497654616832733,-0.0035984632559120655
1772702653829419300,2.638419189453125,-0.004453337751328945,0.020965470001101494,-0.0044075315818190575
1772702653839469300,2.64846923828125,-0.001413339632563293,0.017139306291937828,-0.006444583646953106
1772702653849519400,2.658519287109375,-0.0007571366732008755,0.012676380574703217,-0.008400674909353256
1772702653859569400,2.6685693359375,-0.0002892192860599607,0.01637071743607521,-0.010747719556093216
1772702653869620200,2.6786201171875,-0.002752376953139901,0.016355004161596298,-0.009106412529945374
1772702653879669200,2.688669189453125,-0.0023704797495156527,0.017680993303656578,-0.013228986412286758
1772702653889719300,2.69871923828125,-0.0026900589000433683,0.012309929355978966,-0.014995194971561432
1772702653899769300,2.708769287109375,-0.0013970943400636315,0.008942894637584686,-0.012869193218648434
1772702653909819100,2.718819091796875,-0.003667971817776561,0.010529073886573315,-0.014014085754752159
1772702653919869200,2.728869140625,-0.0009574064170010388,0.011117632500827312,-0.016399480402469635
1772702653929919200,2.738919189453125,0.003206445835530758,0.008172442205250263,-0.014823953621089458
1772702653939969300,2.74896923828125,0.003210440743714571,0.00881905760616064,-0.01260873582214117
1772702653950019300,2.759019287109375,0.0022021678742021322,0.01824238710105419,-0.013966947793960571
1772702653960068400,2.769068359375,0.00004500742215896025,0.019889818504452705,-0.014140053652226925
1772702653970118400,2.779118408203125,-0.002514290390536189,0.012491024099290371,-0.014474013820290565
1772702653980168400,2.78916845703125,0.0021281319204717875,0.008915198035538197,-0.01290754321962595
1772702653990218200,2.79921826171875,0.0010271812789142132,0.008104532025754452,-0.011935755610466003
1772702654000268300,2.809268310546875,0.0010785802733153105,0.009090167470276356,-0.015117966569960117
1772702654010318300,2.819318359375,0.0011646003695204854,0.007480286993086338,-0.010575146414339542
1772702654020368400,2.829368408203125,0.00336197461001575,0.004040281753987074,-0.013658287934958935
1772702654030418200,2.839418212890625,0.004289819858968258,0.008103466592729092,-0.011121626943349838
1772702654040467200,2.84946728515625,0.002046372974291444,0.01702931709587574,-0.01167316734790802
1772702654050517200,2.859517333984375,0.005149488337337971,0.014637532643973827,-0.013250024989247322
1772702654060567000,2.869567138671875,0.004254666157066822,0.008755674585700035,-0.011119762435555458
1772702654070617000,2.8796171875,0.0028506475500762463,0.007799599785357714,-0.011922705918550491
1772702654080667100,2.889667236328125,0.0021054951939731836,0.013111541047692299,-0.015599199570715427
1772702654090717400,2.899717529296875,0.005564941558986902,0.010355701670050621,-0.014636999927461147
1772702654100767200,2.909767333984375,-0.0007853662245906889,0.0038077877834439278,-0.015615977346897125
1772702654110817300,2.9198173828125,0.0010138654615730047,-0.00018801917030941695,-0.011269698850810528
1772702654120866300,2.9298662109375,0.0001704423048067838,0.006057626102119684,-0.01593875326216221
1772702654130916400,2.939916259765625,-0.00014913702034391463,0.006817159708589315,-0.013746438547968864
1772702654140966100,2.949966064453125,0.0014447649009525776,0.004485296085476875,-0.009877131320536137
1772702654151016200,2.96001611328125,0.0015574166318401694,0.004777444526553154,-0.008578840643167496
1772702654161066200,2.970066162109375,0.0028767467010766268,0.008284028619527817,-0.010971690528094769
1772702654171116300,2.9801162109375,0.0010159959783777595,0.011387410573661327,-0.010573548264801502
1772702654181166000,2.990166015625,0.0021084246691316366,0.005875732284039259,-0.006972155533730984
1772702654191216000,3.000216064453125,0.002597647253423929,0.0014048174489289522,-0.00688986387103796
1772702654201265400,3.010265380859375,-0.0004873584839515388,0.0010961571242660284,-0.005360410548746586
1772702654211315200,3.020315185546875,0.003994475118815899,0.0037121803034096956,-0.004101800732314587
1772702654221365200,3.030365234375,0.0017379788914695382,0.0006711165769957006,-0.0064834654331207275
1772702654231415300,3.040415283203125,0.0018903117161244154,0.003175287041813135,-0.006325007416307926
1772702654241465300,3.05046533203125,0.002213353058323264,0.00999191403388977,-0.0038812910206615925
1772702654251515100,3.06051513671875,0.003266633255407214,0.009375392459332943,-0.0015478292480111122
1772702654261565200,3.070565185546875,0.0013909690314903855,0.008153533563017845,-0.004503937903791666
1772702654271615200,3.080615234375,0.003413107246160507,0.007275755982846022,-0.006836600601673126
1772702654281664300,3.090664306640625,0.0018184063956141472,0.006059224251657724,-0.004948153160512447
1772702654291714300,3.10071435546875,0.0008815063047222793,0.0051873051561415195,-0.006554571911692619
1772702654301764400,3.110764404296875,-0.0006450176006183028,0.0028455876745283604,-0.0023813985753804445
1772702654311814400,3.120814453125,0.000056459015468135476,0.006226470693945885,-0.002409628126770258
1772702654321864200,3.1308642578125,-0.001990180229768157,0.009822270832955837,-0.002798982197418809
1772702654331914200,3.140914306640625,0.002180063631385565,0.010305368341505527,-0.00033928672201000154
1772702654341964300,3.15096435546875,0.0013789847726002336,0.009080580435693264,0.0005840312223881483
1772702654352014300,3.161014404296875,0.00041784998029470444,0.003346261801198125,0.00236222380772233
1772702654362063000,3.17106298828125,0.00003728425508597866,0.00899722333997488,0.0019624833948910236
1772702654372113200,3.181113037109375,-0.0015249260468408465,0.0038866172544658184,-0.0013635384384542704
1772702654382163200,3.1911630859375,-0.001062334980815649,0.0005520732956938446,0.0009448895580135286
1772702654392213200,3.201213134765625,-0.0014612764352932572,-0.004450674634426832,0.0033931334037333727
1772702654402263000,3.211262939453125,-0.0010980212828144431,0.004336691461503506,0.005375590641051531
1772702654412313300,3.221313232421875,0.0015398397808894515,0.007468569092452526,0.007812116760760546
1772702654422363400,3.23136328125,0.0001358212175546214,0.009425992146134377,0.006554838269948959
1772702654432413400,3.241413330078125,-0.0022218753583729267,0.008158594369888306,0.006021939683705568
1772702654442462200,3.251462158203125,-0.0044133905321359634,0.0031281490810215473,0.0054703992791473866
1772702654452512300,3.26151220703125,-0.0035116442013531923,0.0031129689887166023,0.004318315535783768
1772702654462562300,3.271562255859375,-0.0019446401856839657,0.010568222030997276,0.00284958234988153
1772702654472612000,3.281612060546875,-0.004827245604246855,0.007601993158459663,0.004400873556733131
1772702654482662100,3.291662109375,-0.007780691608786583,0.00119629199616611,0.00395745737478137
1772702654492712200,3.301712158203125,-0.006376140285283327,-0.0041430797427892685,0.005774265620857477
1772702654502762200,3.31176220703125,-0.00574843306094408,-0.0010197244118899107,0.0027534421533346176
1772702654512812000,3.32181201171875,-0.0022660838440060616,0.0057164751924574375,0.006788664031773806
1772702654522861300,3.331861328125,-0.0015704660909250379,0.011036938056349754,0.009268865920603275
1772702654532911400,3.341911376953125,0.00021118867152836174,0.010301372967660427,0.015691611915826797
1772702654542961400,3.35196142578125,-0.0005099953268654644,0.01236079540103674,0.013540309853851795
1772702654553011200,3.36201123046875,0.0010703244479373097,0.013795174658298492,0.011475827544927597
1772702654563061200,3.372061279296875,0.00336144189350307,0.00734366662800312,0.012080098502337933
1772702654573111300,3.382111328125,0.0005842975224368274,0.0019345202017575502,0.010663563385605812
1772702654583161300,3.392161376953125,-0.0012389025650918484,0.0007094661123119295,0.008502940647304058
1772702654593211100,3.402211181640625,-0.0038685076870024204,0.0002324939559912309,0.0031699605751782656
1772702654603260200,3.41226025390625,-0.001794171635992825,-0.000984570593573153,0.003972903825342655
1772702654613310500,3.422310546875,-0.0029885992407798767,0.000467118457891047,0.005524727515876293
1772702654623360300,3.4323603515625,-0.0016700683627277613,0.0002825613773893565,0.00523710623383522
1772702654633410300,3.442410400390625,0.00009800432599149644,0.0008202536264434457,0.002157160546630621
1772702654643460400,3.45246044921875,-0.003197657410055399,0.000898550555575639,0.007241934072226286
1772702654653510400,3.462510498046875,-0.002478870330378413,0.009967679157853127,0.0025126924738287926
1772702654663560200,3.472560302734375,-0.0024349282030016184,0.006040848325937986,0.004737497307360172
1772702654673610200,3.4826103515625,-0.0014439659425988793,0.0027417242527008057,0.0023883229587227106
1772702654683659300,3.4926591796875,-0.000862864195369184,0.004700745455920696,0.0027984497137367725
1772702654693709000,3.502708984375,0.0008173241512849927,0.009163138456642628,0.0024924525059759617
1772702654703759000,3.512759033203125,-0.0037649108562618494,0.0034386736806482077,0.00352868833579123
1772702654713809200,3.52280908203125,-0.00202240445651114,0.001505484920926392,0.0017273263074457645
1772702654723859200,3.532859130859375,-0.0020897823851555586,0.0025843314360827208,0.006859770510345697
1772702654733909200,3.5429091796875,-0.001160339335910976,0.0017845842521637678,0.0029590383637696505
1772702654743959300,3.552959228515625,-0.0014900385867804289,0.006533799227327108,0.0034751589410007
1772702654754009300,3.56300927734375,-0.001404018490575254,0.01299409568309784,0.004466920159757137
1772702654764058400,3.573058349609375,0.0014652712270617485,0.020417923107743263,0.0027481159195303917
1772702654774108200,3.583108154296875,-0.0003531351685523987,0.01667564921081066,0.0010090717114508152
1772702654784158200,3.593158203125,-0.00037710359902121127,0.015016233548521996,0.005260808393359184
1772702654794208300,3.603208251953125,-0.0034972631838172674,0.015928633511066437,0.0011914982460439205
1772702654804258300,3.61325830078125,-0.0013283847365528345,0.006073871627449989,-0.0005185174522921443
1772702654814308000,3.62330810546875,-0.004328702110797167,0.0006596649764105678,-0.000940095866099
1772702654824358100,3.633358154296875,-0.007897870615124702,0.003582484321668744,-0.0007238471880555153
1772702654834408200,3.643408203125,-0.003635214874520898,0.00794687308371067,0.0020881847012788057
1772702654844457200,3.653457275390625,-0.0026996464002877474,0.009838515892624855,0.00618146313354373
1772702654854507300,3.66350732421875,-0.0014881744282320142,0.00757988914847374,0.004824049770832062
1772702654864555500,3.673555419921875,-0.004759867675602436,0.00948245171457529,0.0010394317796453834
1772702654874605300,3.683605224609375,-0.0009134642314165831,0.007713047321885824,0.00021278657368384302
1772702654884655400,3.6936552734375,-0.001698830397799611,0.004865595139563084,-0.001374457380734384
1772702654894705400,3.703705322265625,-0.0028850024100393057,0.004941229242831469,-0.0008114652009680867
1772702654904755700,3.713755615234375,0.00023675501870457083,0.00857457984238863,-0.0008162588928826153
1772702654914805500,3.723805419921875,-0.003907922655344009,0.012783173471689224,0.0005262406193651259
1772702654924854500,3.7338544921875,-0.003020290983840823,0.005544435232877731,-0.000755805114749819
1772702654934904600,3.743904541015625,-0.0007515440811403096,0.008904279209673405,-0.00013928332191426307
1772702654944954400,3.753954345703125,-0.0026056368369609118,0.010484598577022552,0.0010120011866092682
1772702654955004400,3.76400439453125,0.000627973407972604,0.007741010282188654,-0.0003281014505773783
1772702654965054500,3.774054443359375,-0.001555552356876433,0.0062432484701275826,-0.00012863067968282849
1772702654975104500,3.7841044921875,-0.002168079372495413,0.004324973560869694,0.005154281854629517
1772702654985154300,3.794154296875,-0.0016056197928264737,0.0009717874927446246,0.002228533150628209
1772702654995204400,3.804204345703125,-0.0004916195175610483,0.002793123247101903,0.0018314558546990156
1772702655005253600,3.814253662109375,-0.0015464976895600557,0.004001399502158165,0.004832838196307421
1772702655015303700,3.8243037109375,0.0009741843095980585,0.005144428461790085,0.0018716695485636592
1772702655025353500,3.834353515625,-0.001017061178572476,0.003748665563762188,0.003313771216198802
1772702655035403500,3.844403564453125,-0.0026314693968743086,0.009809487499296665,0.0004468784318305552
1772702655045453600,3.85445361328125,0.0001304948964389041,0.002936401404440403,0.004787564743310213
1772702655055503600,3.864503662109375,-0.0023313311394304037,0.0018639464396983385,0.0006471481174230576
1772702655065553400,3.874553466796875,-0.0008407599525526166,0.007162838242948055,0.0017936390358954668
1772702655075603500,3.884603515625,-0.0019598202779889107,0.006449643522500992,0.004378769546747208
1772702655085652500,3.894652587890625,-0.002906840294599533,0.005386243108659983,0.00301656243391335
1772702655095702500,3.90470263671875,-0.00039547940832562745,0.007345264777541161,0.0007307713967747986
1772702655105752600,3.914752685546875,-0.00033422670094296336,0.009030778892338276,-0.00032890037982724607
1772702655115802600,3.924802734375,-0.002600310370326042,0.01218848954886198,0.000916393706575036
1772702655125852700,3.934852783203125,-0.000025832661776803434,0.005434979218989611,0.0027206854429095984
1772702655135902500,3.94490234375,0.0011566109023988247,0.0036464000586420298,0.0023675502743571997
1772702655145952500,3.954952392578125,-0.0002956108655780554,-0.0032956618815660477,0.004747883416712284
1772702655156002600,3.96500244140625,-0.0004471447318792343,-0.00043995422311127186,0.003355050226673484
1772702655166051300,3.97505126953125,0.0026381274219602346,0.008498946204781532,0.002016811864450574
1772702655176101400,3.985101318359375,0.002287389012053609,0.016639163717627525,0.0018730012234300375
1772702655186151400,3.9951513671875,0.0014183996245265007,0.012761334888637066,0.005327120888978243
1772702655196201500,4.005201416015625,0.0018522285390645266,-0.002445048186928034,0.0008223841432482004
1772702655206251300,4.015251220703125,-0.0011888351291418076,0.001237571006640792,0.002100435085594654
1772702655216301600,4.025301513671875,-0.000639424950350076,0.0009733853512443602,-0.00006524744821945205
1772702655226351600,4.0353515625,-0.0007819040911272168,-0.000877511571161449,0.00041971419705078006
1772702655236401700,4.045401611328125,-0.0014524880098178983,0.0018074874533340335,0.000520647969096899
1772702655246450400,4.055450439453125,0.0024956483393907547,0.008382033556699753,0.006577741354703903
1772702655256500500,4.06550048828125,0.0027449200861155987,0.014344051480293274,0.0031166973058134317
1772702655266550500,4.075550537109375,0.0017917747609317303,0.013258014805614948,0.003942543640732765
1772702655276600600,4.0856005859375,0.0033004553988575935,0.0062765381298959255,0.005195294506847858
1772702655286650400,4.095650390625,0.0018753979820758104,0.004858671221882105,0.0031766186002641916
1772702655296700400,4.105700439453125,0.0024258734192699194,0.005584116093814373,0.0006005428149364889
1772702655306750500,4.11575048828125,-0.0003480751474853605,0.0044200485572218895,0.003281546989455819
1772702655316800500,4.125800537109375,0.00027537086862139404,0.001972869737073779,0.0021819279063493013
1772702655326849500,4.135849609375,0.0016490293201059103,-0.0012974920682609081,0.003856257302686572
1772702655336899600,4.145899658203125,0.0008839031797833741,-0.003565173828974366,0.0017843178939074278
1772702655346949600,4.15594970703125,0.0016980315558612347,-0.00634844321757555,-0.0017683389596641064
1772702655356999400,4.16599951171875,0.0011321097845211625,-0.0049066077917814255,-0.0034266894217580557
1772702655367049500,4.176049560546875,0.002299106912687421,0.0005052016349509358,-0.00276089902035892
1772702655377099500,4.186099609375,0.0017933726776391268,0.00401737866923213,-0.0004010720585938543
1772702655387149600,4.196149658203125,0.0007424892974086106,0.00851545762270689,0.0001699096756055951
1772702655397199400,4.206199462890625,0.0033712955191731453,0.0068326061591506,0.0024658208712935448
1772702655407248400,4.216248291015625,0.004862132947891951,0.007547664921730757,0.002778209513053298
1772702655417298400,4.22629833984375,0.004491953644901514,0.0028277444653213024,0.0005518069956451654
1772702655427348500,4.236348388671875,0.0017984326696023345,-0.0010253170039504766,0.001981391804292798
1772702655437398500,4.2463984375,0.0016841830220073462,-0.001258343574590981,-0.001121457084082067
1772702655447448600,4.256448486328125,0.001805623178370297,0.0004700479330495,-0.0016176040517166257
1772702655457498600,4.26649853515625,0.000931041082367301,0.0017973673529922962,-0.0009060074225999415
1772702655467548700,4.276548583984375,0.0007717840489931405,0.006895722821354866,0.0015925703337416053
1772702655477598500,4.286598388671875,0.0020935109350830317,0.00785659160465002,0.0010351707460358739
1772702655487647500,4.2966474609375,0.0035340148024260998,0.0007752461824566126,-0.00007776429993100464
1772702655497697500,4.306697509765625,0.004000866785645485,0.0021704763639718294,0.005394499283283949
1772702655507747300,4.316747314453125,0.0021856562234461308,0.005826730281114578,0.0015928366919979453
1772702655517797400,4.32679736328125,0.0015430354978889227,0.010626278817653656,-0.0024506407789885998
1772702655527847400,4.336847412109375,-0.001853826455771923,0.009954363107681274,-0.002092179376631975
1772702655537897500,4.3468974609375,0.0021441110875457525,0.0029433255549520254,-0.0006117281154729426
1772702655547947500,4.356947509765625,-0.0025925873778760433,0.004474110435694456,-0.0017350494163110852
1772702655557997600,4.36699755859375,0.0016993631143122911,0.005155080929398537,-0.005081577692180872
1772702655568046600,4.377046630859375,-0.0014628743520006537,0.005061337724328041,-0.0014495585346594453
1772702655578096400,4.387096435546875,-0.0009736517095007002,0.007292001508176327,-0.0039047268219292164
1772702655588146400,4.397146484375,0.0011829761788249016,0.007903463207185268,0.000040746363083599135
1772702655598196500,4.407196533203125,-0.0014066817238926888,0.008393218740820885,-0.0015531554818153381
1772702655608246500,4.41724658203125,-0.0015992282424122095,0.00726323900744319,0.0014769891276955605
1772702655618296300,4.42729638671875,0.000056459015468135476,0.007194529753178358,0.0028477180749177933
1772702655628346400,4.437346435546875,0.0010133327450603247,0.007299990858882666,0.000737695605494082
1772702655638396400,4.447396484375,-0.0018455706303939223,0.0055031562224030495,-0.00027856664382852614
1772702655648445700,4.45744580078125,-0.002998719457536936,0.004591289907693863,0.00032570460462011397
1772702655658495500,4.46749560546875,-0.0006327670416794717,0.009813215583562851,0.0014452975010499358
1772702655668545500,4.477545654296875,-0.004701278172433376,0.003733751829713583,0.0025449167005717754
1772702655678595600,4.487595703125,-0.003412574529647827,-0.0012503541074693203,-0.00049108691746369
1772702655688645600,4.497645751953125,-0.0018338527297601104,0.0026170883793383837,-0.001216531964018941
1772702655698695400,4.5076953125,-0.001172323478385806,0.007709851488471031,-0.0011526161106303334
1772702655708745500,4.517745361328125,-0.0020599551498889923,0.010194314643740654,0.0023646207991987467
1772702655718795500,4.52779541015625,-0.0023731428664177656,0.009635583497583866,-0.0007536745979450643
1772702655728844300,4.53784423828125,-0.003147856332361698,0.008624913170933723,0.0002442118711769581
1772702655738894300,4.547894287109375,-0.0033910030033439398,0.009335710667073727,-0.0017190704820677638
1772702655748944600,4.557944580078125,-0.001311873085796833,0.0046970173716545105,0.004281830508261919
1772702655758994700,4.56799462890625,-0.002305498579517007,0.003989148885011673,0.0012303803814575076
1772702655769044500,4.57804443359375,-0.0008072041091509163,0.007483216468244791,0.0011350392596796155
1772702655779094500,4.588094482421875,-0.003358512418344617,0.006604905705899,0.0009720537927933037
1772702655789144600,4.59814453125,-0.0017933726776391268,0.0023102923296391964,0.002424541860818863
1772702655799194600,4.608194580078125,-0.00005672533006872982,0.009031844325363636,0.006956176832318306
1772702655809243400,4.618243408203125,-0.0021347899455577135,0.015050055459141731,0.006903712637722492
1772702655819293400,4.62829345703125,-0.0026168220210820436,0.014187191613018513,0.0026021746452897787
1772702655829343500,4.638343505859375,-0.000606668065302074,0.009072324261069298,0.0049470881931483746
1772702655839393300,4.648393310546875,-0.0036703685764223337,0.008615326136350632,0.006727943662554026
1772702655849443300,4.658443359375,-0.004263720940798521,0.007934888824820518,0.0044168527238070965
1772702655859493400,4.668493408203125,-0.0026636936236172915,0.0111059146001935,0.00506932707503438
1772702655869543700,4.678543701171875,-0.00065460498444736,0.00983532052487135,0.006644587032496929
1772702655879593700,4.68859375,-0.00012250541476532817,0.009533317759633064,0.0036477316170930862
1772702655889642800,4.698642822265625,-0.0023118900135159492,0.012659602798521519,0.001982190879061818
1772702655899692800,4.70869287109375,-0.0008828379213809967,0.00794580765068531,0.0020538298413157463
1772702655909742800,4.718742919921875,-0.003442401997745037,0.002781405346468091,-0.0011848403373733163
1772702655919793000,4.72879296875,-0.0028397287242114544,-0.0015425028977915645,-0.001198955113068223
1772702655929842700,4.7388427734375,-0.004503937903791666,-0.004150270018726587,-0.0014998923288658261
1772702655939892700,4.748892822265625,-0.0015374429058283567,-0.0035635759122669697,-0.00045619948650710285
1772702655949942800,4.75894287109375,-0.000360059377271682,-0.002082858234643936,-0.0002884203568100929
1772702655959992800,4.768992919921875,0.0006889597862027586,0.006028597708791494,-0.0001882854849100113
1772702655970041900,4.779041748046875,0.004325772635638714,0.0037942056078463793,0.0018165421206504107
1772702655980092000,4.789091796875,0.0036935380194336176,0.008072840049862862,0.001181111903861165
1772702655990142000,4.799141845703125,0.006822752300649881,0.010241452604532242,-0.0008282430935651064
1772702656000192000,4.80919189453125,0.007378287613391876,0.002438922878354788,0.0006383596919476986
1772702656010241800,4.81924169921875,0.005390770733356476,0.002429601736366749,0.0003403519804123789
1772702656020291800,4.829291748046875,0.0044378917664289474,-0.0020847225096076727,-0.0007685882737860084
1772702656030342000,4.839341796875,0.0030660973861813545,-0.004320712294429541,-0.002013882389292121
1772702656040392000,4.849391845703125,0.0017744642682373524,-0.007836883887648582,-0.003656520042568445
1772702656050440700,4.859440673828125,0.004650145769119263,-0.01450144499540329,-0.00007856325100874528
1772702656060490800,4.86949072265625,0.0035712989047169685,-0.012732306495308876,-0.005304217804223299
1772702656070540800,4.879540771484375,0.005995308049023151,-0.0076115806587040424,0.00037630466977134347
1772702656080590800,4.8895908203125,0.005708485841751099,-0.004612594842910767,0.000291616132017225
1772702656090641000,4.899640869140625,0.005616073962301016,-0.001050084363669157,0.003427221905440092
1772702656100691000,4.90969091796875,0.006166815757751465,0.00472657848149538,0.001439971150830388
1772702656110741000,4.919740966796875,0.005195028148591518,0.00381471193395555,0.0006146575906313956
1772702656120790800,4.929790771484375,0.004776911810040474,0.007512511219829321,-0.0011821772204712033
1772702656130839800,4.93983984375,0.004173972178250551,0.0008748483960516751,0.0023406522814184427
1772702656140889900,4.949889892578125,0.003917243797332048,-0.0059993029572069645,0.0010626012226566672
1772702656150940000,4.95993994140625,0.0036392095498740673,-0.0012956279097124934,0.002213885774835944
1772702656160989700,4.96998974609375,0.004210191313177347,-0.009309878572821617,0.0020421119406819344
1772702656171039700,4.980039794921875,0.004381432663649321,-0.008137288503348827,0.003151052165776491
1772702656181089800,4.99008984375,0.004811533261090517,-0.004216316621750593,0.0033776871860027313
1772702656191139800,5.000139892578125,0.003263437654823065,0.0002564624010119587,-0.0019294602097943425
1772702656201189600,5.010189697265625,0.001466602785512805,0.003064233111217618,0.0002681803307496011
1772702656211239000,5.020239013671875,0.0022096247412264347,0.007351389620453119,-0.003966245800256729
1772702656221289000,5.0302890625,-0.0004540689697023481,0.0021076255943626165,-0.0023960459511727095
1772702656231338800,5.0403388671875,-0.001600826159119606,0.0005643238546326756,-0.0035230957437306643
1772702656241388800,5.050388916015625,0.002567820018157363,-0.0009688580175861716,0.0008210525847971439
1772702656251438800,5.06043896484375,-0.0003587277897167951,-0.002898051869124174,0.0009478190331719816
1772702656261489000,5.070489013671875,0.0008729841792955995,-0.006957774516195059,-0.002635730430483818
1772702656271538700,5.08053857421875,0.0009046758059412241,-0.005760683678090572,-0.0010546117555350065
1772702656281588700,5.090588623046875,-0.0007502124644815922,-0.003946272190660238,-0.0017267935909330845
1772702656291638000,5.100637939453125,0.0015454323729500175,0.00020959076937288046,-0.00401498144492507
1772702656301687800,5.110687744140625,-0.001320927869528532,0.002995523624122143,-0.005906358826905489
1772702656311737900,5.12073779296875,-0.0003510046226438135,0.003683950752019882,-0.0035808864049613476
1772702656321788000,5.130787841796875,-0.0000679106087773107,-0.0008791094878688455,-0.0014112089993432164
1772702656331838000,5.140837890625,0.0003834952076431364,-0.0024772724136710167,-0.00367143377661705
1772702656341887700,5.1508876953125,0.0008969526388682425,-0.00032890037982724607,0.00014913702034391463
1772702656351937800,5.160937744140625,0.0024517059791833162,0.000788561999797821,-0.0043649207800626755
1772702656361987800,5.17098779296875,0.003041330026462674,0.0013393036788329482,-0.0007789746159687638
1772702656372036900,5.181036865234375,0.0031965922098606825,0.006250705569982529,0.0047031426802277565
1772702656382086700,5.191086669921875,0.0017694041598588228,0.010686200112104416,0.007137271575629711
1772702656392136700,5.20113671875,0.00042051312630064785,0.00962439738214016,0.007391870021820068
1772702656402186800,5.211186767578125,0.002296976512297988,0.003001915058121085,0.004997687879949808
1772702656412237000,5.221237060546875,-0.0006346312584355474,0.006229133810847998,0.010026535019278526
1772702656422286800,5.231286865234375,-0.0025984463281929493,0.0073410035111010075,0.00936181005090475
1772702656432337000,5.2413369140625,-0.0015941682504490018,0.007799333427101374,0.006393983494490385
1772702656442387000,5.251386962890625,-0.0026770094409585,0.00649704784154892,0.008913067169487476
1772702656452435700,5.261435791015625,-0.0033923345617949963,0.00455613574013114,0.009034507907927036
1772702656462485800,5.27148583984375,-0.0034285534638911486,0.008945291861891747,0.009076585993170738
1772702656472535800,5.281535888671875,-0.000720118754543364,0.01341753825545311,0.01070777140557766
1772702656482585900,5.2915859375,-0.0012274509062990546,0.012651080265641212,0.008866728283464909
1772702656492635600,5.3016357421875,0.0011749867117032409,0.006962568499147892,0.009032643400132656
1772702656502685000,5.311684814453125,0.0008993495139293373,0.004087686073035002,0.008773784153163433
1772702656512735000,5.32173486328125,-0.0021960425656288862,0.009068862535059452,0.004108458757400513
1772702656522784800,5.33178466796875,-0.002210689941421151,0.013109676539897919,0.004945223685353994
1772702656532834800,5.341834716796875,-0.00056219327962026,0.007231014780700207,0.0008759136544540524
1772702656542884900,5.351884765625,0.00048176583368331194,0.0030208237003535032,0.006416886579245329
1772702656552935000,5.361934814453125,0.000597879639826715,0.005957757588475943,0.004839229863137007
1772702656562983700,5.371983642578125,-0.0027720844373106956,0.01209820806980133,0.005357481073588133
1772702656573033700,5.38203369140625,-0.0023995081428438425,0.016578976064920425,0.0054815844632685184
1772702656583083800,5.392083740234375,-0.0024146882351487875,0.015622102655470371,0.006060555577278137
1772702656593133800,5.4021337890625,-0.0031992553267627954,0.011893677525222301,0.0038485340774059296
1772702656603183900,5.412183837890625,-0.0052048820070922375,0.012293151579797268,0.002371811307966709
1772702656613234000,5.42223388671875,-0.006773750297725201,0.017066868022084236,0.0013904364313930273
1772702656623284000,5.432283935546875,-0.009252887219190598,0.008350341580808163,0.0004492752777878195
1772702656633334000,5.442333984375,-0.00908350944519043,0.00535455159842968,0.0027166905347257853
1772702656643382800,5.4523828125,-0.008384429849684238,0.01347559504210949,0.0030029804911464453
1772702656653432800,5.462432861328125,-0.004220843780785799,0.014990401454269886,0.00008921589324017987
1772702656663483000,5.47248291015625,-0.006502640433609486,0.012379970401525497,0.002954244613647461
1772702656673532700,5.48253271484375,-0.004254666157066822,0.006737264804542065,0.0028035095892846584
1772702656683582700,5.492582763671875,-0.0020580908749252558,0.0067575047723948956,0.004938832018524408
1772702656693632800,5.5026328125,-0.0034202977549284697,0.016450611874461174,0.004780374001711607
1772702656703682800,5.512682861328125,-0.001627457677386701,0.019838951528072357,0.005050418432801962
1772702656713731800,5.52273193359375,0.0016793893883004785,0.011932559311389923,0.007950867526233196
1772702656723782000,5.532781982421875,-0.0035577169619500637,0.01164813432842493,0.005263205152004957
1772702656733832000,5.54283203125,-0.0003789678157772869,0.017000820487737656,0.0035412053111940622
1772702656743882000,5.552882080078125,-0.0014141384745016694,0.013195962645113468,-0.001172323478385806
1772702656753931800,5.562931884765625,0.0002854908525478095,0.0006442186422646046,-0.0007896272582001984
1772702656763981800,5.57298193359375,0.000606934423558414,0.0006103964988142252,0.0013395700370892882
1772702656774032000,5.583031982421875,-0.003363838652148843,0.0011464908020570874,-0.001100950757972896
1772702656784082000,5.59308203125,0.002083390951156616,0.007842742837965488,0.001912948559038341
1772702656794131700,5.603131591796875,0.002205097349360585,0.011385013349354267,0.0009238505735993385
1772702656804180700,5.6131806640625,0.0026144252624362707,0.008778044953942299,-0.0029201561119407415
1772702656814231000,5.62323095703125,0.00290417717769742,0.018575282767415047,-0.001585646066814661
1772702656824280800,5.63328076171875,0.002843989757820964,0.016943562775850296,-0.00481286458671093
1772702656834331000,5.643330810546875,-0.002683667466044426,0.007779093459248543,-0.003634415799751878
1772702656844381000,5.653380859375,-0.0027973842807114124,-0.004733236040920019,-0.004343083128333092
1772702656854431000,5.663430908203125,-0.003939081449061632,0.0010772485984489322,-0.004546282347291708
1772702656864480800,5.673480712890625,-0.0031467911321669817,0.013825002126395702,-0.00791358295828104
1772702656874531300,5.68353125,-0.003631486324593425,0.014785603620111942,-0.0025896579027175903
1772702656884581400,5.693581298828125,-0.003665042342618108,0.008994294330477715,0.00011984224693151191
1772702656894631400,5.70363134765625,-0.00020719393796753138,0.00549197057262063,-0.002246642718091607
1772702656904681500,5.713681396484375,-0.000023169501218944788,0.009008941240608692,-0.000952080066781491
1772702656914730200,5.723730224609375,0.0023065637797117233,0.016415191814303398,-0.005881591234356165
1772702656924780300,5.7337802734375,0.0003414172388147563,0.01830097660422325,-0.004825381562113762
1772702656934830300,5.743830322265625,0.001577123999595642,0.019469838589429855,-0.0002849582233466208
1772702656944880400,5.75388037109375,0.002428004052489996,0.01774677261710167,0.00040666470886208117
1772702656954930400,5.763930419921875,0.0016495619202032685,0.02058596909046173,-0.0019683423452079296
1772702656964980500,5.77398046875,-0.0014788532862439752,0.021954568102955818,-0.002091646660119295
1772702656975030500,5.784030517578125,-0.0034815503749996424,0.014003166928887367,-0.004706338047981262
1772702656985080600,5.79408056640625,-0.006827545817941427,-0.009971673600375652,-0.006736465729773045
1772702656995130400,5.80413037109375,-0.005726329050958157,0.021202223375439644,-0.005587311927229166
1772702657005179400,5.814179443359375,-0.002073803450912237,0.02185150235891342,-0.0006870955694466829
1772702657015229400,5.8242294921875,-0.004533232655376196,0.009667274542152882,0.0006053365068510175
1772702657025279200,5.834279296875,-0.0012173309223726392,0.02834988199174404,-0.0004881574132014066
1772702657035329300,5.844329345703125,0.0009435579413548112,0.04031786322593689,-0.0015254586469382048
1772702657045379300,5.85437939453125,-0.0005195827106945217,0.03291134536266327,-0.0021547635551542044
1772702657055429400,5.864429443359375,-0.002121740486472845,0.01811269111931324,-0.0007424892974086106
1772702657065479200,5.874479248046875,-0.0021054951939731836,0.0017635452095419168,0.002514290390536189
1772702657075529200,5.884529296875,-0.000055926382628967986,0.02250664122402668,0.057796720415353775
1772702657085578500,5.89457861328125,-0.0027891285717487335,-0.005429120268672705,0.034977689385414124
1772702657095628300,5.904628173828125,-0.0007755124825052917,-0.032880451530218124,-0.043967992067337036
1772702657105678300,5.91467822265625,-0.0014154701493680477,-0.0005163869354873896,-0.04622635245323181
1772702657115728400,5.924728271484375,0.0006215817993506789,0.028434837237000465,-0.011423096992075443
1772702657125778400,5.9347783203125,-0.0015387744642794132,0.017556356266140938,0.010566890239715576
1772702657135828200,5.944828125,-0.0030634342692792416,-0.012959741055965424,0.006459497381001711
