time,seconds_elapsed,z,y,x
1772702651252882700,0.061882568359375,0.009293063543736935,0.009522246196866035,0.0004320687148720026
1772702651262932500,0.071932373046875,0.0042620208114385605,-0.004182819277048111,-0.00829724408686161
1772702651272982500,0.081982421875,0.001174085307866335,-0.0124849583953619,-0.014693091623485088
1772702651283032600,0.092032470703125,0.000718951050657779,-0.020708000287413597,-0.009573963470757008
1772702651293082600,0.10208251953125,-0.0015636442694813013,-0.018575340509414673,-0.008910037577152252
1772702651303132400,0.11213232421875,-0.0006221331423148513,-0.02345910854637623,-0.0066446345299482346
1772702651313182700,0.1221826171875,-0.001753976452164352,-0.02033362351357937,-0.007324539590626955
1772702651323231700,0.132231689453125,0.0002366023836657405,-0.008390198461711407,-0.00645005889236927
1772702651333281500,0.142281494140625,-0.00014076754450798035,-0.013024897314608097,-0.007315586321055889
1772702651343331600,0.15233154296875,-0.0015374282374978065,-0.014495731331408024,-0.00863222312182188
1772702651353381600,0.162381591796875,-0.003079664893448353,-0.010494331829249859,-0.004566641058772802
1772702651363431700,0.172431640625,-0.0039066714234650135,-0.009462248533964157,-0.0007742361049167812
1772702651373481500,0.1824814453125,-0.004510676488280296,-0.0072624776512384415,-0.0018634689040482044
1772702651383531500,0.192531494140625,-0.004669545218348503,-0.0026293862611055374,0.001110827550292015
1772702651393580800,0.202580810546875,-0.0035510172601789236,-0.007433196529746056,0.0017036471981555223
1772702651403630800,0.212630859375,-0.007193883880972862,-0.008904987014830112,0.007868959568440914
1772702651413680600,0.2226806640625,-0.005135792773216963,-0.0018065976910293102,0.006726196501404047
1772702651423730700,0.232730712890625,-0.004726608749479055,0.009161620400846004,0.011364702135324478
1772702651433780700,0.24278076171875,-0.007513073738664389,0.0025963960215449333,0.014788461849093437
1772702651443830800,0.252830810546875,-0.006620748434215784,0.002809213474392891,0.01800532452762127
1772702651453880600,0.262880615234375,-0.010171541944146156,0.0066510895267128944,0.014832169748842716
1772702651463930600,0.2729306640625,-0.009696067310869694,0.009205029346048832,0.01643349789083004
1772702651473979600,0.282979736328125,-0.009237471036612988,0.008544831536710262,0.016456134617328644
1772702651484029400,0.293029541015625,-0.006883308291435242,0.0025704242289066315,0.017360981553792953
1772702651494079500,0.30307958984375,-0.011171530932188034,0.005966220982372761,0.01897565647959709
1772702651504129500,0.313129638671875,-0.007624204270541668,0.003514436073601246,0.019914919510483742
1772702651514179600,0.3231796875,-0.00868946872651577,0.006137116812169552,0.02146088518202305
1772702651524229600,0.333229736328125,-0.007369047496467829,0.010602273978292942,0.017985070124268532
1772702651534279700,0.34327978515625,-0.009752043522894382,0.008233924396336079,0.016430050134658813
1772702651544329700,0.353329833984375,-0.008460667915642262,0.007862748578190804,0.017109183594584465
1772702651554378500,0.36337841796875,-0.009175194427371025,0.010620184242725372,0.017771245911717415
1772702651564428500,0.373428466796875,-0.006535427179187536,0.0177156925201416,0.017921138554811478
1772702651574478600,0.383478515625,-0.006296009290963411,0.010920905508100986,0.01937256194651127
1772702651584528600,0.393528564453125,-0.008070113137364388,0.0004524439573287964,0.017440907657146454
1772702651594578400,0.403578369140625,-0.005774201825261116,0.0011291531845927238,0.015571102499961853
1772702651604628500,0.41362841796875,-0.00822625681757927,0.0136517733335495,0.01709371991455555
1772702651614678500,0.423678466796875,-0.010470502078533173,0.02159012481570244,0.015908878296613693
1772702651624728600,0.433728515625,-0.010208148509263992,0.015018749982118607,0.01625794731080532
1772702651634777600,0.443777587890625,-0.00766616128385067,0.012387014925479889,0.014595335349440575
1772702651644827600,0.45382763671875,-0.012900820933282375,0.014349350705742836,0.016128769144415855
1772702651654877700,0.463877685546875,-0.010628079064190388,0.010792965069413185,0.014306900091469288
1772702651664927700,0.473927734375,-0.012071412988007069,0.007209917530417442,0.008327272720634937
1772702651674977500,0.4839775390625,-0.011253556236624718,0.0039368923753499985,0.009054847992956638
1772702651685027600,0.494027587890625,-0.010652395896613598,0.0019051027484238148,0.01191786490380764
1772702651695077600,0.50407763671875,-0.01057889312505722,0.003685159143060446,0.007832309231162071
1772702651705127700,0.514127685546875,-0.008676188066601753,0.0063653793185949326,0.009120403788983822
1772702651715176700,0.5241767578125,-0.005360819399356842,0.005806381814181805,0.011689023114740849
1772702651725226800,0.534226806640625,-0.003355058841407299,0.005314705893397331,0.013129955157637596
1772702651735276800,0.54427685546875,0.0018711285665631294,0.006426309235394001,0.011423135176301003
1772702651745326600,0.55432666015625,0.0009763064444996417,0.013756660744547844,0.012139258906245232
1772702651755376600,0.564376708984375,0.0030499158892780542,0.01449529267847538,0.011508450843393803
1772702651765426700,0.5744267578125,-0.001972460187971592,0.013253403827548027,0.011158367618918419
1772702651775476700,0.584476806640625,-0.00017163052689284086,0.0053976126946508884,0.014155754819512367
1772702651785526500,0.594526611328125,0.00032792717684060335,0.0033532544039189816,0.013102758675813675
1772702651795575600,0.604575439453125,-0.0011421376839280128,-0.0017312527634203434,0.01163189485669136
1772702651805625600,0.61462548828125,-0.0028223046101629734,-0.002678516786545515,0.008822637610137463
1772702651815675600,0.624675537109375,-0.00207981513813138,0.0015026465989649296,0.010173392482101917
1772702651825725400,0.634725341796875,-0.0038676674012094736,0.0013387231156229973,0.011110997758805752
1772702651835775500,0.644775390625,-0.0027185131330043077,-0.0012850225903093815,0.012681730091571808
1772702651845825800,0.65482568359375,-0.0011573380324989557,-0.002345934510231018,0.011784648522734642
1772702651855875800,0.664875732421875,-0.0016106078401207924,0.0032323230989277363,0.010500739328563213
1772702651865924600,0.674924560546875,-0.0035671680234372616,0.008871633559465408,0.008820349350571632
1772702651875973600,0.6849736328125,0.00039321882650256157,0.006525920704007149,0.009757249616086483
1772702651886023700,0.695023681640625,0.0024398579262197018,-0.0005594193935394287,0.010333024896681309
1772702651896073700,0.70507373046875,0.0035469341091811657,0.0015601906925439835,0.005617898423224688
1772702651906123500,0.71512353515625,0.00047421915223822,0.006253105588257313,0.004375164862722158
1772702651916173800,0.725173828125,0.0012587864184752107,0.009309082292020321,0.0037919324822723866
1772702651926224000,0.735223876953125,0.0029640677385032177,0.001209421083331108,0.004024498164653778
1772702651936274000,0.74527392578125,0.0024343649856746197,-0.0049395509995520115,0.007858118042349815
1772702651946323700,0.75532373046875,0.0017642141319811344,0.0005990555509924889,0.006016307510435581
1772702651956372700,0.765372802734375,0.004491557367146015,0.0021388959139585495,0.002364314626902342
1772702651966422800,0.7754228515625,0.0035645184107124805,0.0003093765117228031,0.007069084327667952
1772702651976472600,0.78547265625,0.0019192172912880778,0.000585546251386404,0.001710803946480155
1772702651986522600,0.795522705078125,0.0038455240428447723,-0.0015864823944866657,0.004871399141848087
1772702651996572700,0.80557275390625,0.0018132658442482352,-0.0023497440852224827,0.0012353853089734912
1772702652006622700,0.815622802734375,0.0020775236189365387,-0.005344863049685955,-0.0020910752937197685
1772702652016672500,0.825672607421875,0.0024508987553417683,-0.0029892968013882637,-0.0012985185021534562
1772702652026722600,0.83572265625,0.0001856369199231267,-0.005646579898893833,0.00004701910074800253
1772702652036771800,0.845771728515625,0.0010927096009254456,-0.0071225035935640335,0.0012816605158150196
1772702652046821600,0.855821533203125,0.0013797841966152191,-0.010443681851029396,0.0036185032222419977
1772702652056871700,0.86587158203125,0.0018828553147614002,-0.008601839654147625,0.001652823993936181
1772702652066921700,0.875921630859375,0.0045746550895273685,-0.003612660337239504,0.0020841790828853846
1772702652076971800,0.8859716796875,0.0010046877432614565,0.00170487305149436,0.0022210655733942986
1772702652087021600,0.896021484375,0.002899664454162121,0.0035967198200523853,0.003920586779713631
1772702652097071600,0.906071533203125,-0.0013874922879040241,0.0041152373887598515,0.0023565124720335007
1772702652107121700,0.91612158203125,0.00009419536218047142,0.0021563246846199036,0.0021224841475486755
1772702652117170700,0.926170654296875,0.002865214366465807,0.00007719453424215317,0.004877524450421333
1772702652127220700,0.936220703125,0.0012426725588738918,0.0021949298679828644,0.005991336423903704
1772702652137270800,0.946270751953125,-0.001329674618318677,0.0038032131269574165,0.00465735886245966
1772702652147320800,0.95632080078125,-0.001300984644331038,0.005165014415979385,0.006333458703011274
1772702652157371000,0.966370849609375,-0.0015696975169703364,0.003725842572748661,0.00429081404581666
1772702652167420700,0.976420654296875,-0.0008376870537176728,-0.0011532311327755451,0.0032836669124662876
1772702652177470700,0.986470703125,-0.0006486027268692851,-0.001471745315939188,0.0017771166749298573
1772702652187520800,0.996520751953125,0.00017128291074186563,0.006287941709160805,-0.0008873421465978026
1772702652197569500,1.006569580078125,-0.0021318187937140465,0.005212024785578251,0.003248813096433878
1772702652207619600,1.01661962890625,0.00003771448973566294,0.005897778086364269,-0.002838828833773732
1772702652217669600,1.026669677734375,0.0007719479617662728,0.005261548794806004,0.0003263381076976657
1772702652227719700,1.0367197265625,-0.0004095021868124604,0.006527476478368044,-0.003184601664543152
1772702652237769700,1.046769775390625,0.0007974423933774233,-0.000723512377589941,-0.002606162801384926
1772702652247819800,1.05681982421875,-0.0011873920448124409,-0.00070200115442276,-0.0004619769752025604
1772702652257869800,1.066869873046875,-0.00003477581776678562,0.006107967812567949,-0.00587724894285202
1772702652267920000,1.076919921875,0.0006085469503886998,0.005789299961179495,-0.0039629023522138596
1772702652277968600,1.08696875,-0.002800299320369959,0.002588979434221983,-0.0031658185180276632
1772702652288018700,1.097018798828125,0.0007350020459853113,0.002857118844985962,-0.005747172515839338
1772702652298068700,1.10706884765625,0.0002732098801061511,-0.00034080445766448975,-0.002870159689337015
1772702652308118800,1.117118896484375,0.0031249537132680416,-0.0011809412389993668,-0.003750729840248823
1772702652318168600,1.12716845703125,0.0014351779827848077,0.004565627779811621,-0.005377388559281826
1772702652328218600,1.137218505859375,-0.0000756849767640233,0.015991007909178734,-0.0036889268085360527
1772702652338268700,1.1472685546875,-0.0002605083864182234,0.014504963532090187,-0.007925749756395817
1772702652348318700,1.157318603515625,-0.0014847943093627691,0.009482329711318016,-0.0050933873280882835
1772702652358367700,1.16736767578125,-0.004780189599841833,0.008041558787226677,-0.010497207753360271
1772702652368417800,1.177417724609375,-0.004433783236891031,0.004749039653688669,-0.010057310573756695
1772702652378467800,1.1874677734375,-0.005093181971460581,-0.0016739722341299057,-0.0072455452755093575
1772702652388517600,1.197517578125,-0.0025753574445843697,-0.007076322566717863,-0.008546670898795128
1772702652398567700,1.207567626953125,0.00044839578913524747,-0.0026821065694093704,-0.008407920598983765
1772702652408617700,1.21761767578125,0.004696075804531574,0.005344057455658913,-0.007459637708961964
1772702652418667800,1.227667724609375,0.004614316858351231,0.003352012485265732,-0.007428479380905628
1772702652428717600,1.237717529296875,0.004869785159826279,-0.0004178187809884548,-0.0025468096137046814
1772702652438766600,1.2477666015625,0.006121204700320959,-0.001226088497787714,-0.0030373637564480305
1772702652448817000,1.25781689453125,0.005437151528894901,-0.002030441537499428,-0.00011635699775069952
1772702652458866700,1.26786669921875,0.006275780498981476,-0.008349590003490448,-0.00608024001121521
1772702652468916700,1.277916748046875,0.004862585105001926,-0.005751666147261858,-0.006081117317080498
1772702652478966800,1.287966796875,0.002546966541558504,0.009918906725943089,-0.005734107457101345
1772702652489016800,1.298016845703125,-0.0043330141343176365,0.006175660528242588,-0.006182976998388767
1772702652499066600,1.308066650390625,-0.0011113883228972554,-0.012262734584510326,-0.0037368638440966606
1772702652509116700,1.31811669921875,-0.0015951198292896152,0.013231473043560982,-0.008359544910490513
1772702652519166700,1.328166748046875,0.0024765869602560997,-0.025362523272633553,-0.008960354141891003
1772702652529215700,1.3382158203125,-0.00023666780907660723,-0.011059317737817764,-0.007647025864571333
1772702652539265500,1.348265625,0.0022403383627533913,0.0028533022850751877,-0.004221402108669281
1772702652549315600,1.358315673828125,0.003935006447136402,0.007274387404322624,-0.006630260962992907
1772702652559365600,1.36836572265625,0.002893177792429924,0.013573828153312206,-0.006055018398910761
1772702652569415700,1.378415771484375,-0.00018337811343371868,0.0030004079453647137,-0.004348292481154203
1772702652579465700,1.3884658203125,0.0027961665764451027,-0.0012238980270922184,-0.004472661763429642
1772702652589515800,1.398515869140625,0.0012237641494721174,-0.003979076631367207,-0.005275699310004711
1772702652599565800,1.40856591796875,0.0036597575526684523,0.0008529629558324814,-0.006200082134455442
1772702652609614600,1.418614501953125,0.0022454969584941864,0.003044222481548786,-0.008220966905355453
1772702652619664600,1.42866455078125,0.0034705507569015026,0.0026191817596554756,-0.0025273950304836035
1772702652629714700,1.438714599609375,-0.0013745379401370883,0.000924878753721714,-0.0032477800268679857
1772702652639764700,1.4487646484375,-0.0003699936205521226,0.004604834131896496,-0.0023351148702204227
1772702652649814500,1.458814453125,-0.00036183162592351437,0.0025702849961817265,-0.0009070661617442966
1772702652659864600,1.468864501953125,-0.0013072537258267403,0.0030232886783778667,-0.0017635388066992164
1772702652669914600,1.47891455078125,0.0002935441443696618,0.001953934319317341,-0.0016305209137499332
1772702652679963600,1.488963623046875,0.0015502899186685681,-0.0017015207558870316,0.002398575423285365
1772702652690013700,1.499013671875,-0.0023413076996803284,0.0006715669296681881,0.0009201114880852401
1772702652700063700,1.509063720703125,-0.0009316966170445085,0.005461262073367834,0.00011237472062930465
1772702652710113800,1.51911376953125,-0.0009551839902997017,0.01027853786945343,0.0020530372858047485
1772702652720163600,1.52916357421875,-0.0014239002484828234,0.007730692159384489,0.001409884076565504
1772702652730213600,1.539213623046875,-0.0018822881393134594,0.0032514426857233047,0.004231163300573826
1772702652740263700,1.549263671875,-0.00014137965627014637,0.001014120876789093,-0.000015513243852183223
1772702652750313700,1.559313720703125,-0.0006990160327404737,-0.00393271679058671,0.0029154950752854347
1772702652760363800,1.56936376953125,-0.00005106884054839611,-0.005334338638931513,0.003430816810578108
1772702652770412800,1.579412841796875,-0.0008532048668712378,-0.0011054342612624168,0.002288615331053734
1772702652780462800,1.589462890625,0.00033989117946475744,0.0010677049867808819,0.0025586597621440887
1772702652790513000,1.599512939453125,-0.0002850649179890752,0.003183671273291111,0.0029292788822203875
1772702652800562700,1.609562744140625,0.0005295959999784827,0.003467031754553318,0.0004426855011843145
1772702652810612700,1.61961279296875,-0.0015901819569990039,0.0034800544381141663,0.002637633588165045
1772702652820662800,1.629662841796875,0.0013824384659528732,0.004305100999772549,0.003661086317151785
1772702652830712800,1.639712890625,-0.002074438612908125,0.006599253974854946,0.00018359269597567618
1772702652840761600,1.64976171875,-0.002365788444876671,0.004319322295486927,0.0044952500611543655
1772702652850811600,1.659811767578125,-0.0017070223111659288,-0.00039097899571061134,0.003433479927480221
1772702652860862200,1.6698623046875,-0.00021165749058127403,-0.0016964604146778584,0.0043128556571900845
1772702652870912300,1.679912353515625,-0.004432405345141888,-0.0003862958401441574,0.0013404370984062552
1772702652880962000,1.689962158203125,-0.001343138748779893,0.0019775256514549255,-0.0005570651846937835
1772702652891012000,1.70001220703125,-0.004199497401714325,0.0005472321063280106,0.00005594949470832944
1772702652901062100,1.710062255859375,-0.004212546162307262,0.008919412270188332,0.001556907081976533
1772702652911112200,1.7201123046875,-0.002559133805334568,0.01062488928437233,-0.0009940571617335081
1772702652921161200,1.7301611328125,-0.001765245571732521,0.0003104656934738159,-0.003043093252927065
1772702652931211300,1.740211181640625,-0.0003676463384181261,-0.0012638252228498459,0.00014723290223628283
1772702652941261300,1.75026123046875,-0.004358659498393536,0.0025926977396011353,0.0013043764047324657
1772702652951311400,1.760311279296875,-0.0034270361065864563,0.004553968086838722,-0.001978517509996891
1772702652961361200,1.770361083984375,-0.0031836233101785183,-0.0013662390410900116,-0.0020189976785331964
1772702652971411200,1.7804111328125,-0.0030710138380527496,-0.0048294588923454285,0.00017069795285351574
1772702652981461200,1.790461181640625,-0.0006025299662724137,0.0023701307363808155,0.0001006568199954927
1772702652991511300,1.80051123046875,-0.003111545229330659,0.006137855816632509,-0.00047110667219385505
1772702653001560300,1.810560302734375,-0.0014039266388863325,0.004241684917360544,-0.0021813889034092426
1772702653011610400,1.8206103515625,-0.0016911878483369946,0.01257620844990015,-0.0019683975260704756
1772702653021660400,1.830660400390625,-0.0020813411101698875,0.013948268257081509,-0.004599866922944784
1772702653031710200,1.840710205078125,-0.0015518234577029943,0.011115938425064087,-0.0015730629675090313
1772702653041760300,1.85076025390625,-0.0031166968401521444,0.009169433265924454,-0.0020859879441559315
1772702653051810300,1.860810302734375,-0.0014430307783186436,0.011798446998000145,-0.004520489368587732
1772702653061860400,1.8708603515625,-0.0052161975763738155,0.005070236511528492,-0.008501915261149406
1772702653071910100,1.88091015625,-0.004338730126619339,-0.008638693951070309,-0.006293842103332281
1772702653081959200,1.890959228515625,-0.003099827328696847,-0.0029693562537431717,-0.007528217509388924
1772702653092009200,1.90100927734375,0.0005476097576320171,0.009359385818243027,-0.0047586699947714806
1772702653102059000,1.91105908203125,-0.0023286042269319296,0.00760383065789938,-0.0058841221034526825
1772702653112109300,1.921109375,0.0014301813207566738,0.0030410364270210266,-0.006429803557693958
1772702653122159400,1.931159423828125,0.0028576357290148735,0.006016320548951626,-0.003898734925314784
1772702653132209400,1.94120947265625,0.002011332893744111,0.004618810955435038,-0.006856990046799183
1772702653142259500,1.951259521484375,0.0036241430789232254,0.008387716487050056,-0.008827462792396545
1772702653152309200,1.961309326171875,0.0014296487206593156,0.010834511369466782,-0.009940648451447487
1772702653162358300,1.971358154296875,0.0035652376245707273,0.008387865498661995,-0.008662598207592964
1772702653172408300,1.981408203125,0.003592319320887327,0.00024408893659710884,-0.007864894345402718
1772702653182458000,1.9914580078125,0.002484444295987487,-0.004467841703444719,-0.0117267444729805
1772702653192508200,2.001508056640625,-0.0008230193052440882,-0.0061658089980483055,-0.0124805374071002
1772702653202558200,2.01155810546875,-0.002160458592697978,-0.0062060230411589146,-0.01419508084654808
1772702653212608300,2.021608154296875,-0.003821572521701455,0.001545138657093048,-0.011963319964706898
1772702653222658000,2.031657958984375,0.0010157935321331024,0.0022721821442246437,-0.008444751612842083
1772702653232708000,2.0417080078125,0.0016209636814892292,0.0038287676870822906,-0.008677543140947819
1772702653242757400,2.05175732421875,0.001942140981554985,0.00803682953119278,-0.006133159156888723
1772702653252807200,2.06180712890625,0.0037863398902118206,0.007890838198363781,-0.007785608991980553
1772702653262857200,2.071857177734375,0.0022606151178479195,0.007026642560958862,-0.008291875943541527
1772702653272907300,2.0819072265625,0.0019077584147453308,0.006501685827970505,-0.008725620806217194
1772702653282957300,2.091957275390625,-0.000021968036890029907,0.007610892876982689,-0.010643629357218742
1772702653293007000,2.102007080078125,-0.000794645631685853,0.0026356829330325127,-0.004469826351851225
1772702653303057200,2.11205712890625,0.00014864595141261816,0.0050778016448020935,-0.0065079438500106335
1772702653313107200,2.122107177734375,0.0007538108038716018,0.0028188005089759827,-0.008475815877318382
1772702653323156500,2.132156494140625,0.0010856406297534704,-0.001761570107191801,-0.004839536268264055
1772702653333206300,2.142206298828125,-0.003863167017698288,0.0038984562270343304,-0.006401292979717255
1772702653343256300,2.15225634765625,-0.0003035857807844877,0.0014017424546182156,-0.0053195166401565075
1772702653353306400,2.162306396484375,-0.00133272644598037,0.001338999718427658,-0.006300028879195452
1772702653363356400,2.1723564453125,0.0023815843742340803,0.008295976556837559,-0.003120747394859791
1772702653373406200,2.18240625,-0.0002611641539260745,0.011816779151558876,-0.0037049828097224236
1772702653383456300,2.192456298828125,-0.002115789568051696,0.010381069034337997,-0.0011954865185543895
1772702653393506300,2.20250634765625,0.0007487065740860999,0.006142649333924055,-0.005522590596228838
1772702653403555000,2.21255517578125,-0.001887023914605379,0.00322169391438365,-0.0037286849692463875
1772702653413605000,2.222605224609375,-0.002365419175475836,0.0004971162416040897,-0.007204050663858652
1772702653423655200,2.2326552734375,-0.0023502393160015345,-0.0008831997402012348,-0.0029387320391833782
1772702653433705200,2.242705322265625,-0.007112893275916576,0.004927830304950476,-0.009338918142020702
1772702653443755300,2.25275537109375,-0.003711237572133541,0.004672700073570013,-0.005870682653039694
1772702653453805300,2.262805419921875,-0.00500995758920908,0.009239714592695236,-0.005345810670405626
1772702653463855400,2.27285546875,-0.006558585446327925,0.008882319554686546,-0.003473341930657625
1772702653473905400,2.282905517578125,-0.004108957014977932,0.0060118092224001884,-0.0034384739119559526
1772702653483954200,2.2929541015625,-0.005296460352838039,0.00954395905137062,-0.0017082183621823788
1772702653494004200,2.303004150390625,-0.007530834525823593,0.010110974311828613,-0.0018780133686959743
1772702653504054300,2.31305419921875,-0.007009919732809067,0.013734737411141396,0.0007910066051408648
1772702653514104000,2.32310400390625,-0.004127275198698044,0.01177923008799553,0.0008306464878842235
1772702653524154000,2.333154052734375,-0.008804052136838436,0.011216236278414726,0.0012463659513741732
1772702653534204200,2.3432041015625,-0.007706447504460812,0.010233977809548378,0.00413754116743803
1772702653544254200,2.353254150390625,-0.007749856449663639,0.007646184414625168,0.00450878543779254
1772702653554304300,2.36330419921875,-0.010910704731941223,0.011088507249951363,0.00033722230000421405
1772702653564353300,2.373353271484375,-0.00905474741011858,0.010932445526123047,0.007171959150582552
1772702653574403300,2.3834033203125,-0.006845253054052591,0.012277815490961075,0.006335886660963297
1772702653584453400,2.393453369140625,-0.009466337040066719,0.014072254300117493,0.0007352589163929224
1772702653594503200,2.403503173828125,-0.008381146937608719,0.014515550807118416,0.004894332028925419
1772702653604553200,2.41355322265625,-0.0055238413624465466,0.017781652510166168,0.006277311593294144
1772702653614603300,2.423603271484375,-0.005351558327674866,0.014356276020407677,0.009581653401255608
1772702653624653300,2.4336533203125,-0.009050688706338406,0.011701636016368866,0.004485428333282471
1772702653634703000,2.443703125,-0.007697198074311018,0.01074729673564434,0.007604350335896015
1772702653644752400,2.45375244140625,-0.008755804970860481,0.008629817515611649,0.0075308470986783504
1772702653654802400,2.463802490234375,-0.005650509614497423,0.006777707487344742,0.004414134193211794
1772702653664852200,2.473852294921875,-0.005476605147123337,0.004931604489684105,0.0066455970518291
1772702653674902300,2.48390234375,-0.0036934742238372564,0.00601019524037838,0.007605853956192732
1772702653684952300,2.493952392578125,-0.0036950723733752966,0.013194603845477104,0.009512145072221756
1772702653695002400,2.50400244140625,-0.006032553967088461,0.02248733676970005,0.00547518115490675
1772702653705052200,2.51405224609375,-0.0088352644816041,0.029446976259350777,0.004597403109073639
1772702653715102200,2.524102294921875,-0.009531822055578232,0.026246458292007446,0.005040931981056929
1772702653725151200,2.534151123046875,-0.0064217825420200825,0.022079942747950554,0.004565824288874865
1772702653735201300,2.544201171875,-0.007206656038761139,0.020899049937725067,0.0016281330026686192
1772702653745251000,2.5542509765625,-0.011656532064080238,0.015459275804460049,0.0003878989373333752
1772702653755301000,2.564301025390625,-0.00953582115471363,0.013402487151324749,0.0001300303847528994
1772702653765351200,2.57435107421875,-0.006328043527901173,0.0068034399300813675,0.00010979035869240761
1772702653775401500,2.5844013671875,-0.006491291336715221,0.010653916746377945,0.0013937330804765224
1772702653785451300,2.594451171875,-0.009751799516379833,0.011860329657793045,0.0007021101773716509
1772702653795500300,2.604500244140625,-0.002389107132330537,0.020619645714759827,0.0020166931208223104
1772702653805550300,2.61455029296875,-0.004697268828749657,0.024329960346221924,-0.002505088225007057
1772702653815600000,2.62460009765625,-0.001425769180059433,0.023947402834892273,-0.0005411797319538891
1772702653825650200,2.634650146484375,-0.0023086071014404297,0.015101712197065353,-0.0029987446032464504
1772702653835700200,2.6447001953125,-0.0015730876475572586,0.012476595118641853,-0.00639502564445138
1772702653845750300,2.654750244140625,-0.0002790576545521617,0.0044927047565579414,-0.008478416129946709
1772702653855800000,2.664800048828125,0.0006171464337967336,0.008603408932685852,-0.009592699818313122
1772702653865851100,2.67485107421875,0.002596141304820776,0.008944293484091759,-0.00831944216042757
1772702653875901200,2.684901123046875,0.0006481328746303916,0.009674162603914738,-0.00991713348776102
1772702653885950200,2.6949501953125,-0.0009660091018304229,0.00866615492850542,-0.01319788210093975
1772702653896000300,2.705000244140625,-0.0011970903724431992,0.0015908763743937016,-0.015069430693984032
1772702653906050300,2.71505029296875,-0.0026045709382742643,0.0019259029068052769,-0.013849702663719654
1772702653916100400,2.725100341796875,-0.0007446194067597389,0.0005618310533463955,-0.01675467938184738
1772702653926150400,2.735150390625,0.0025254760403186083,0.0038313944824039936,-0.01400230173021555
1772702653936200200,2.7452001953125,0.0012510725064203143,0.00007426505908370018,-0.013538233935832977
1772702653946250200,2.755250244140625,0.004095861222594976,0.006147337146103382,-0.009367191232740879
1772702653956300300,2.76530029296875,0.0007973420433700085,0.01313055120408535,-0.012130126357078552
1772702653966349000,2.77534912109375,0.0016660651890560985,0.009410114958882332,-0.012250501662492752
1772702653976399000,2.785399169921875,0.004648405127227306,0.0007194774225354195,-0.011922297067940235
1772702653986449200,2.79544921875,0.003544525010511279,0.001979951746761799,-0.008936626836657524
1772702653996499200,2.805499267578125,0.0027207378298044205,0.0035944865085184574,-0.013878749683499336
1772702654006549200,2.81554931640625,0.0011143190786242485,0.0005624773912131786,-0.012629994191229343
1772702654016599300,2.825599365234375,0.0032694400288164616,-0.0011007669381797314,-0.010298987850546837
1772702654026649300,2.8356494140625,0.005114744417369366,-0.0019423258490860462,-0.008291496895253658
1772702654036699400,2.845699462890625,0.004048118367791176,0.007684641983360052,-0.009106295183300972
1772702654046748200,2.855748046875,0.005918456241488457,0.010912125930190086,-0.011099937371909618
1772702654056798200,2.865798095703125,0.006499802693724632,0.0031846766360104084,-0.013951228931546211
1772702654066848300,2.87584814453125,0.0022789589129388332,0.000232029240578413,-0.010170339606702328
1772702654076898300,2.885898193359375,0.0036514606326818466,0.005566976498812437,-0.008219247683882713
1772702654086948000,2.895947998046875,0.004812865052372217,0.004909441340714693,-0.011636083945631981
1772702654096998100,2.905998046875,0.0023814132437109947,-0.001622543204575777,-0.016205454245209694
1772702654107048200,2.916048095703125,0.00222375406883657,-0.005577870178967714,-0.015747923403978348
1772702654117098200,2.92609814453125,0.005012640729546547,-0.0033858055248856544,-0.013342182151973248
1772702654127147300,2.936147216796875,0.0010855431901291013,-0.00003954349085688591,-0.01329903956502676
1772702654137197300,2.946197265625,0.004764409735798836,-0.0034279003739356995,-0.010204819031059742
1772702654147247400,2.956247314453125,0.0021127003710716963,-0.0005144020542502403,-0.00886764656752348
1772702654157297200,2.966297119140625,0.0021558101288974285,0.0012949728406965733,-0.008373558521270752
1772702654167347200,2.97634716796875,0.003641587682068348,0.00437278812751174,-0.007041445467621088
1772702654177397200,2.986397216796875,0.004483473487198353,0.004050620831549168,-0.010253146290779114
1772702654187447300,2.996447265625,0.005994284525513649,-0.0008200346492230892,-0.007871215231716633
1772702654197497000,3.0064970703125,0.0030574225820600986,-0.005845281295478344,-0.0038659940473735332
1772702654207546000,3.016546142578125,0.007191447541117668,-0.003945115953683853,-0.006284942850470543
1772702654217596400,3.026596435546875,0.0024785734713077545,-0.005291621200740337,-0.0049056136049330235
1772702654227646500,3.036646484375,0.0038431771099567413,-0.0010044644586741924,-0.006688333582133055
1772702654237696300,3.0466962890625,0.004521372728049755,-0.0026371702551841736,-0.001525049563497305
1772702654247746300,3.056746337890625,0.0059488266706466675,0.00228728074580431,-0.0015005485620349646
1772702654257796400,3.06679638671875,0.0040275901556015015,-0.0006782389245927334,-0.0006681805243715644
1772702654267846400,3.076846435546875,0.0045690108090639114,0.0008554761298000813,-0.0033316081389784813
1772702654277896200,3.086896240234375,0.0011518559185788035,0.00045394012704491615,-0.004472790751606226
1772702654287945200,3.0969453125,0.0009039156138896942,-0.0009902920573949814,-0.006008369382470846
1772702654297995300,3.106995361328125,-0.00003701751120388508,-0.004921351093798876,-0.006276205647736788
1772702654308045000,3.117045166015625,0.0006008095806464553,-0.0036907042376697063,-0.0012894363608211279
1772702654318095000,3.12709521484375,-0.0007078677881509066,0.0010369396768510342,-0.0014910376630723476
1772702654328145200,3.137145263671875,0.0038673400413244963,0.0025949254631996155,0.0030211908742785454
1772702654338195200,3.1471953125,0.001925384858623147,0.001997866667807102,0.001439649728126824
1772702654348245200,3.157245361328125,0.0024777245707809925,-0.0013225628063082695,0.0020833357702940702
1772702654358294300,3.167294189453125,0.0009729579905979335,-0.0028710239566862583,0.0016474599251523614
1772702654368344300,3.17734423828125,-0.0011927246814593673,-0.0003609945997595787,-0.0012503255857154727
1772702654378394000,3.18739404296875,0.00047527183778584003,-0.003958581015467644,0.00017906533321365714
1772702654388444200,3.197444091796875,0.0001319904113188386,-0.009552285075187683,0.004149571992456913
1772702654398494200,3.207494140625,0.0006196370231918991,-0.006297348067164421,0.004741969518363476
1772702654408544300,3.217544189453125,0.0022636062931269407,0.00018425378948450089,0.005401101894676685
1772702654418594300,3.22759423828125,0.0030484399758279324,0.001966174691915512,0.006882351823151112
1772702654428644000,3.23764404296875,0.0002665019128471613,0.003091360442340374,0.006728421431034803
1772702654438694100,3.247694091796875,-0.0023588845506310463,-0.0034462129697203636,0.006475731730461121
1772702654448743400,3.257743408203125,0.0024712905287742615,-0.0024336790665984154,0.005655478220432997
1772702654458793200,3.267793212890625,0.0014727284433320165,0.00101110665127635,0.0067178900353610516
1772702654468843300,3.27784326171875,-0.0006846983451396227,0.0034034238196909428,0.002580136526376009
1772702654478893300,3.287893310546875,-0.0019592533353716135,-0.005348170641809702,0.0056122783571481705
1772702654488943400,3.297943359375,-0.006430700421333313,-0.010526154190301895,0.006693788338452578
1772702654498993200,3.3079931640625,-0.005769276991486549,-0.009256318211555481,0.0003839991404674947
1772702654509043200,3.318043212890625,-0.0027966564521193504,-0.003418402746319771,0.003761153668165207
1772702654519092200,3.32809228515625,-0.0007473854348063469,0.000889170914888382,0.011818677186965942
1772702654529142000,3.33814208984375,0.00009417347609996796,0.0019096937030553818,0.012499913573265076
1772702654539192300,3.3481923828125,0.0017591315554454923,0.008843116462230682,0.01599825732409954
1772702654549242400,3.358242431640625,0.002332243835553527,0.007423385512083769,0.011047176085412502
1772702654559292400,3.36829248046875,0.004784748889505863,0.0011356626637279987,0.01229140441864729
1772702654569342200,3.37834228515625,0.0035626241005957127,-0.004949660040438175,0.010989918373525143
1772702654579392300,3.388392333984375,0.003941858187317848,-0.006025843787938356,0.007640193682163954
1772702654589442300,3.3984423828125,-0.00036793528124690056,-0.008691668510437012,0.004416436888277531
1772702654599492400,3.408492431640625,0.001033021486364305,-0.008749938569962978,0.007315123453736305
1772702654609541000,3.418541015625,-0.0015377277741208673,-0.009293755516409874,0.007180367596447468
1772702654619591200,3.428591064453125,-0.003095320425927639,-0.0068139201030135155,0.005720364861190319
1772702654629641200,3.43864111328125,-0.003343526739627123,-0.0054961880668997765,0.0032657289411872625
1772702654639691300,3.448691162109375,-0.004055348224937916,-0.002667065244168043,0.002995906863361597
1772702654649741000,3.458740966796875,-0.0036361664533615112,0.0013212845660746098,0.004706455394625664
1772702654659791000,3.468791015625,-0.0013861749321222305,0.0015916754491627216,0.0036411399487406015
1772702654669841400,3.47884130859375,-0.0004282358568161726,-0.0034084091894328594,0.005854493007063866
1772702654679891500,3.488891357421875,0.0014200613368302584,-0.0025691785849630833,0.004607134964317083
1772702654689940200,3.498940185546875,-0.001674531726166606,0.0026077404618263245,0.0024062986485660076
1772702654699990300,3.508990234375,0.0003882584860548377,-0.0022737267427146435,0.0032508496660739183
1772702654710040300,3.519040283203125,0.001778694917447865,-0.006188307423144579,0.004190412815660238
1772702654720090000,3.529090087890625,-0.00046397384721785784,-0.004739305004477501,0.00814855843782425
1772702654730140200,3.53914013671875,-0.00003840075805783272,-0.006066890433430672,0.004777794703841209
1772702654740190200,3.549190185546875,-0.0016556726768612862,-0.005748312454670668,0.003617785405367613
1772702654750240300,3.559240234375,-0.002683918923139572,0.0022510248236358166,0.0052787987515330315
1772702654760290000,3.5692900390625,0.001597477588802576,0.008608492091298103,0.0063688005320727825
1772702654770339300,3.57933935546875,0.0007479292689822614,0.008316343650221825,0.003351705614477396
1772702654780389400,3.589389404296875,-0.001210159040056169,0.00696217967197299,0.005170746240764856
1772702654790439200,3.599439208984375,-0.0011747389798983932,0.0076271709986031055,0.003005596110597253
1772702654800489200,3.6094892578125,-0.002454594010487199,-0.0009744982235133648,0.00020588547340594232
1772702654810539300,3.619539306640625,-0.0006220727227628231,-0.004293329548090696,-0.0009978633606806397
1772702654820589300,3.62958935546875,-0.0061607928946614265,-0.003980685491114855,-0.0009184233495034277
1772702654830639400,3.639639404296875,-0.002814797218888998,0.0005994187667965889,-0.00010589289013296366
1772702654840688000,3.649688232421875,-0.0014430796727538109,0.0016841748729348183,0.0036477064713835716
1772702654850738200,3.65973828125,-0.0019799729343503714,-0.0017433133907616138,0.00243490282446146
1772702654860788200,3.669788330078125,-0.00320175988599658,0.0019086617976427078,0.000388563668821007
1772702654870836500,3.67983642578125,-0.004399383440613747,-0.0016578431241214275,0.0024394639767706394
1772702654880886500,3.689886474609375,-0.001326377154327929,-0.0011545629240572453,0.0001997264043893665
1772702654890936300,3.699936279296875,-0.003953319042921066,-0.0032573947682976723,-0.0024905989412218332
1772702654900986400,3.709986328125,0.000008319620974361897,0.000035925768315792084,0.0008954873774200678
1772702654911036400,3.720036376953125,-0.0001663836883381009,0.0033542243763804436,-0.0009921612218022346
1772702654921086500,3.73008642578125,-0.002238927874714136,-0.000542384572327137,-0.0026354254223406315
1772702654931135500,3.740135498046875,0.001334235304966569,-0.0029986179433763027,0.0032027564011514187
1772702654941185500,3.750185546875,0.0016501361969858408,0.0020577767863869667,0.0015885987086221576
1772702654951235600,3.760235595703125,-0.00008757633622735739,0.0002718614414334297,0.0008402504026889801
1772702654961285600,3.77028564453125,0.0032545686699450016,0.0005424488335847855,0.002183470642194152
1772702654971335400,3.78033544921875,0.0011815640609711409,-0.002610734198242426,0.003587489016354084
1772702654981385500,3.790385498046875,-0.0007991509046405554,-0.006566849537193775,0.0047940886579453945
1772702654991435500,3.800435546875,0.000692752015311271,-0.006284288130700588,0.003104313276708126
1772702655001484300,3.810484375,0.0018510331865400076,-0.002636951394379139,0.002552067395299673
1772702655011534300,3.820534423828125,-0.0002272977726534009,-0.0013450519181787968,0.003117989283055067
1772702655021584400,3.83058447265625,-0.0013926379615440965,-0.0037949734833091497,0.005281019490212202
1772702655031634700,3.840634765625,0.0004539978108368814,0.0009792749769985676,0.004080732818692923
1772702655041684500,3.8506845703125,-0.0010238215327262878,-0.00044374121353030205,0.0031700616236776114
1772702655051734500,3.860734619140625,0.000611891970038414,-0.005260867066681385,0.0020717738661915064
1772702655061784600,3.87078466796875,0.001739914994686842,-0.0035507488064467907,0.0009666221449151635
1772702655071834600,3.880834716796875,-0.0006662509404122829,-0.001597053837031126,0.001351981540210545
1772702655081883400,3.89088330078125,-0.00015179975889623165,-0.0028925547376275063,0.004535429645329714
1772702655091933400,3.900933349609375,0.0058714719489216805,-0.0002962392754852772,0.002697315765544772
1772702655101983500,3.9109833984375,0.001989206997677684,0.0006794403307139874,0.0009078781586140394
1772702655112033500,3.921033447265625,-0.0009772882331162691,0.005835853051394224,-0.0003360843984410167
1772702655122083300,3.931083251953125,0.00031489692628383636,0.0012936079874634743,0.002251396421343088
1772702655132133400,3.94113330078125,0.0002650958485901356,-0.007929184474050999,0.0007661515846848488
1772702655142183400,3.951183349609375,0.000701598939485848,-0.011148296296596527,0.0009714660118333995
1772702655152233700,3.961233642578125,0.004027088172733784,-0.010527246631681919,0.002579482737928629
1772702655162282500,3.971282470703125,0.006039613392204046,0.00026654545217752457,0.002642599632963538
1772702655172332500,3.98133251953125,0.004461158066987991,0.007195823825895786,0.007274369243532419
1772702655182382600,3.991382568359375,0.003800989594310522,0.00672879908233881,0.0024070488288998604
1772702655192432400,4.001432373046875,0.0012574044521898031,-0.0007959622889757156,0.0033439488615840673
1772702655202482400,4.011482421875,0.0011389108840376139,-0.009002283215522766,0.0024859560653567314
1772702655212532500,4.021532470703125,0.00040334585355594754,-0.003896204521879554,0.0013376009883359075
1772702655222582500,4.03158251953125,0.0001415833830833435,-0.00642017787322402,-0.00019248039461672306
1772702655232632300,4.04163232421875,0.0022872923873364925,-0.009665505960583687,0.003530086250975728
1772702655242681600,4.051681640625,0.0021743858233094215,-0.003224271349608898,0.0028389773797243834
1772702655252731600,4.061731689453125,0.005251668393611908,0.0027678408659994602,0.00460438709706068
1772702655262781400,4.071781494140625,0.008063426241278648,0.0037600798532366753,0.005696978885680437
1772702655272831500,4.08183154296875,0.004412765149027109,0.004561158828437328,0.00726611353456974
1772702655282881500,4.091881591796875,0.007180199958384037,-0.004749508574604988,0.0063642882741987705
1772702655292931600,4.101931640625,0.006139703094959259,-0.00558733893558383,0.0016233292408287525
1772702655302981400,4.1119814453125,0.003395871724933386,-0.0015387828461825848,0.0027480905409902334
1772702655313031400,4.122031494140625,0.0008669339003972709,-0.007639818359166384,0.003044500481337309
1772702655323080400,4.13208056640625,0.0008639810257591307,-0.006751406472176313,0.005432714708149433
1772702655333130500,4.142130615234375,0.0019707907922565937,-0.008554899133741856,0.003665441181510687
1772702655343180500,4.1521806640625,0.0035377456806600094,-0.013291716575622559,0.00031280258554033935
1772702655353230600,4.162230712890625,0.004691693000495434,-0.013048303313553333,-0.0011474087368696928
1772702655363280600,4.17228076171875,0.004278765991330147,-0.010789613239467144,-0.0023403966333717108
1772702655373330700,4.18233056640625,0.001838777563534677,-0.0031644506379961967,-0.002715369686484337
1772702655383380500,4.19238037109375,0.003528676461428404,0.00020523415878415108,0.002401971025392413
1772702655393430500,4.202430419921875,0.005082098301500082,-0.0013340730220079422,0.0033708291593939066
1772702655403479600,4.2124794921875,0.006013230886310339,-0.000711261760443449,0.004863737616688013
1772702655413529300,4.222529296875,0.004428383894264698,-0.0036380761303007603,0.0012263922253623605
1772702655423579400,4.232579345703125,0.004090818110853434,-0.008188631385564804,0.0011910495813935995
1772702655433629400,4.24262939453125,0.0037304924335330725,-0.008638172410428524,-0.003556034993380308
1772702655443679500,4.252679443359375,0.006109228357672691,-0.007842952385544777,-0.0008590518264099956
1772702655453729300,4.262729248046875,0.001013269298709929,-0.0037416848354041576,-0.0015826327726244926
1772702655463779300,4.272779296875,0.002177452202886343,-0.003151345532387495,0.0005822996608912945
1772702655473829600,4.28282958984375,0.005938900634646416,-0.0014256169088184834,-0.0010070749558508396
1772702655483878700,4.292878662109375,0.00559170451015234,-0.0040044113993644714,-0.0007273199153132737
1772702655493928400,4.302928466796875,0.0019141449593007565,-0.0018065045587718487,0.004323365166783333
1772702655503978500,4.312978515625,0.004392769653350115,-0.0030637593008577824,0.0020078581292182207
1772702655514028500,4.323028564453125,0.0023509240709245205,-0.0006472067907452583,0.0013362087775021791
1772702655524078600,4.33307861328125,0.0015588495880365372,0.003168985713273287,-0.0024334792979061604
1772702655534128400,4.34312841796875,0.0015322179533541203,-0.0018460126593708992,-0.004248690325766802
1772702655544178400,4.353178466796875,0.0006290789460763335,-0.0025678020901978016,-0.0013312664814293385
1772702655554228500,4.363228515625,0.002855747938156128,-0.0037955192383378744,-0.0007581542013213038
1772702655564277500,4.373277587890625,0.0006199412164278328,-0.002687049563974142,-0.002331668511033058
1772702655574327600,4.38332763671875,0.0024375487118959427,0.001601971685886383,-0.0026126320008188486
1772702655584377600,4.393377685546875,0.001314933761022985,0.001242282334715128,-0.000910279166419059
1772702655594427600,4.403427734375,0.0010986850829795003,0.0009549274109303951,-0.0038759750314056873
1772702655604477400,4.4134775390625,0.0021972544491291046,0.0005853371694684029,0.0017286662477999926
1772702655614527500,4.423527587890625,-0.0007055912865325809,-0.000508955679833889,-0.0008495399379171431
1772702655624577500,4.43357763671875,0.003917246125638485,-0.0012899143621325493,0.001384458621032536
1772702655634627600,4.443627685546875,-0.00044794136192649603,-0.001171404030174017,-0.0013905551750212908
1772702655644676400,4.45367626953125,0.0007403881172649562,-0.0021659964695572853,-0.0002841361565515399
1772702655654726400,4.463726318359375,-0.0000433801906183362,0.002613845281302929,0.0019249559845775366
1772702655664776400,4.4737763671875,-0.0008182157762348652,-0.000688198022544384,0.004206940531730652
1772702655674826500,4.483826416015625,-0.0011945206206291914,-0.008308300748467445,0.0031462032347917557
1772702655684876500,4.49387646484375,-0.0018606757512316108,-0.007981235161423683,0.00021009804913774133
1772702655694926600,4.503926513671875,-0.0018518873257562518,-0.0016061607748270035,0.0006146322120912373
1772702655704976600,4.5139765625,-0.0025434335693717003,0.0013685394078493118,0.003731189528480172
1772702655715026400,4.5240263671875,-0.0016896241577342153,0.0016803955659270287,0.004157295450568199
1772702655725075500,4.534075439453125,0.0011181066511198878,0.0017328104004263878,-0.0007010676781646907
1772702655735125500,4.54412548828125,-0.001303239376284182,-0.0002802726812660694,-0.000758059264626354
1772702655745175600,4.554175537109375,-0.0007873851573094726,-0.001449134200811386,0.0014425106346607208
1772702655755225300,4.564225341796875,0.001561522949486971,-0.006027907133102417,0.0019080312922596931
1772702655765275400,4.574275390625,-0.0014404522953554988,0.0016343547031283379,0.005117929074913263
1772702655775325400,4.584325439453125,-0.004551556892693043,-0.001270354725420475,0.004171708133071661
1772702655785375500,4.59437548828125,-0.0012997060548514128,-0.0033068163320422173,0.005253855139017105
1772702655795425500,4.604425537109375,0.002610347233712673,-0.0010239542461931705,0.00666826032102108
1772702655805474600,4.614474609375,0.001929806312546134,0.005374327767640352,0.004305006470531225
1772702655815524600,4.624524658203125,-0.004392804577946663,0.008388759568333626,0.00714500155299902
1772702655825574400,4.634574462890625,-0.005383817013353109,0.003565126098692417,0.006828634068369865
1772702655835624400,4.64462451171875,-0.0017038610531017184,0.003173908218741417,0.005467492621392012
1772702655845674500,4.654674560546875,-0.0020758325699716806,-0.0030787899158895016,0.007802380248904228
1772702655855724500,4.664724609375,-0.002917125355452299,0.0010629580356180668,0.0021594082936644554
1772702655865774800,4.67477490234375,0.0009763945708982646,0.0003034020774066448,0.006905849557369947
1772702655875825000,4.684824951171875,-0.000831891898997128,0.0025905254296958447,0.0030916701070964336
1772702655885874000,4.6948740234375,0.0015568005619570613,0.004869620781391859,0.0023582004941999912
1772702655895924000,4.704924072265625,-0.0012890533544123173,0.0017971317283809185,0.0028942949138581753
1772702655905974000,4.71497412109375,-0.0031601996161043644,-0.0037108859978616238,-0.0010341606102883816
1772702655916023800,4.72502392578125,-0.0014605703763663769,-0.007689914666116238,-0.0034869317896664143
1772702655926073900,4.735073974609375,-0.0013540168292820454,-0.01333196647465229,-0.0016170835588127375
1772702655936124000,4.7451240234375,-0.003474425757303834,-0.009539891965687275,-0.0016413184348493814
1772702655946174000,4.755174072265625,0.0018027230398729444,-0.012275355868041515,-0.0017930831527337432
1772702655956223700,4.7652236328125,0.002634960925206542,-0.0036120926961302757,-0.0020202510058879852
1772702655966272800,4.775272705078125,0.00426418986171484,0.0008477410301566124,0.0013697476824745536
1772702655976322800,4.78532275390625,0.004530239850282669,-0.004514534026384354,0.0020437936764210463
1772702655986372600,4.79537255859375,0.007156526204198599,0.00415699603036046,0.0034408108331263065
1772702655996422700,4.805422607421875,0.007236953359097242,-0.004569916054606438,0.0016543621895834804
1772702656006472700,4.81547265625,0.0063493940979242325,-0.007361568510532379,0.002136222319677472
1772702656016523000,4.82552294921875,0.00562847638502717,-0.011084933765232563,0.00201105372980237
1772702656026573000,4.835572998046875,0.0056452760472893715,-0.00935678742825985,-0.0024927740450948477
1772702656036622800,4.845622802734375,0.0038846603129059076,-0.011954966932535172,-0.0018195267766714096
1772702656046672000,4.855671875,0.005091555416584015,-0.020872680470347404,-0.0029505561105906963
1772702656056722000,4.865721923828125,0.006610356271266937,-0.02126230113208294,0.0010833339765667915
1772702656066771700,4.875771728515625,0.003236591350287199,-0.01535048708319664,-0.0029154960066080093
1772702656076821800,4.88582177734375,0.005253136623650789,-0.013413837179541588,0.0016568852588534355
1772702656086871800,4.895871826171875,0.007846256718039513,-0.012442048639059067,0.0000968053936958313
1772702656096921900,4.905921875,0.004585482180118561,-0.0059311529621481895,-0.0001367538352496922
1772702656106971600,4.9159716796875,0.005434598308056593,-0.0053474195301532745,-0.0006675535696558654
1772702656117021700,4.926021728515625,0.006630623713135719,-0.0017870399169623852,0.001651527127251029
1772702656127071000,4.936071044921875,0.007314236834645271,-0.0019519133493304253,0.0018767188303172588
1772702656137120800,4.946120849609375,0.005405815318226814,-0.013312691822648048,0.0019065462984144688
1772702656147170800,4.9561708984375,0.004237841814756393,-0.00811917893588543,0.0013735536485910416
1772702656157220900,4.966220947265625,0.005746788810938597,-0.015057778917253017,-0.00001821434125304222
1772702656167271000,4.97627099609375,0.007101443130522966,-0.016839057207107544,0.001257238443940878
1772702656177320700,4.98632080078125,0.00718400115147233,-0.011169453151524067,0.0008729443070478737
1772702656187370800,4.996370849609375,0.004374977201223373,-0.012164996936917305,-0.002475590677931905
1772702656197420800,5.0064208984375,0.0039038644172251225,-0.009464285336434841,-0.0005240262253209949
1772702656207469800,5.0164697265625,0.0035762889310717583,-0.0039870357140898705,-0.0008510924526490271
1772702656217519900,5.026519775390625,0.0009781090775504708,-0.0021324106492102146,-0.00010141258826479316
1772702656227570000,5.03656982421875,0.0020471084862947464,-0.005767018534243107,-0.00025478057796135545
1772702656237620000,5.046619873046875,0.0023544372525066137,-0.008876259438693523,-0.0019978194031864405
1772702656247670000,5.056669921875,-0.000861724023707211,-0.011903006583452225,-0.0019159032963216305
1772702656257719800,5.0667197265625,0.00061127042863518,-0.013229260221123695,-0.0018826138693839312
1772702656267769900,5.076769775390625,0.002183423610404134,-0.015509448014199734,-0.000603881198912859
1772702656277820000,5.08681982421875,0.0016404050402343273,-0.010569017380475998,-0.00241589592769742
1772702656287870000,5.096869873046875,0.0009520374005660415,-0.010205153375864029,-0.0036328891292214394
1772702656297918700,5.106918701171875,0.00376886292360723,-0.0067925783805549145,-0.004302407614886761
1772702656307968800,5.11696875,0.0025375112891197205,-0.003674390260130167,-0.0035437357146292925
1772702656318018800,5.127018798828125,0.0014346964890137315,-0.00740681029856205,-0.004597016144543886
1772702656328068600,5.137068603515625,0.0019229138270020485,-0.010457276366651058,-0.005325380712747574
1772702656338119000,5.147118896484375,0.004398588556796312,-0.009469776414334774,-0.000815050967503339
1772702656348169000,5.1571689453125,0.003563677193596959,-0.007715885993093252,0.0002009195159189403
1772702656358219000,5.167218994140625,0.0062904879450798035,-0.008363832719624043,-0.0005429013399407268
1772702656368267800,5.177267822265625,0.004945908207446337,-0.004920515231788158,0.0038899139035493135
1772702656378317800,5.18731787109375,0.005032194312661886,0.002801853232085705,0.00599727313965559
1772702656388368000,5.197367919921875,0.0025772424414753914,0.004411616828292608,0.004421497229486704
1772702656398417700,5.207417724609375,0.002623048610985279,-0.00206172838807106,0.00793340802192688
1772702656408467700,5.2174677734375,0.0022138941567391157,-0.004472849424928427,0.009279164485633373
1772702656418517800,5.227517822265625,-0.000018900143913924694,0.0013384339399635792,0.008690872229635715
1772702656428567800,5.23756787109375,0.0016938820481300354,-0.0018826969899237156,0.008667666465044022
1772702656438617900,5.247617919921875,-0.00244520278647542,-0.0029788538813591003,0.008822130039334297
1772702656448667600,5.257667724609375,-0.0012420689454302192,-0.002754288725554943,0.008769013918936253
1772702656458717000,5.267717041015625,-0.0005472502671182156,-0.0010312236845493317,0.008828402496874332
1772702656468767000,5.27776708984375,-0.0010532777523621917,0.004721372853964567,0.01062589418143034
1772702656478816800,5.287816650390625,0.003981428220868111,0.007291589397937059,0.011221642605960369
1772702656488866800,5.29786669921875,0.0026036580093204975,0.0030814846977591515,0.011182714253664017
1772702656498916900,5.307916748046875,0.0008805926772765815,-0.0021455013193190098,0.010852215811610222
1772702656508965600,5.317965576171875,-0.00032961962278932333,0.0007169912569224834,0.004246150609105825
1772702656519015700,5.328015625,-0.005062323063611984,0.004882707726210356,0.0050019556656479836
1772702656529065700,5.338065673828125,-0.002156237605959177,0.0010885447263717651,0.002533691469579935
1772702656539116000,5.348115966796875,0.001381505629979074,-0.0035592038184404373,0.00340561056509614
1772702656549165800,5.358165771484375,0.0012009122874587774,-0.0023772739805281162,0.006376168690621853
1772702656559215900,5.3682158203125,0.0007873233989812434,0.0010126642882823944,0.007938645780086517
1772702656569266000,5.378265869140625,-0.0030099167488515377,0.0048039802350103855,0.005244096741080284
1772702656579314700,5.388314697265625,-0.00177767185959965,0.011483721435070038,0.0035854799207299948
1772702656589364700,5.39836474609375,-0.0022934922017157078,0.006102889776229858,0.006401373073458672
1772702656599414800,5.408414794921875,-0.0037518395110964775,0.004366775043308735,0.0023624233435839415
1772702656609464800,5.41846484375,-0.006233293563127518,0.009692132472991943,-0.0018909935606643558
1772702656619515000,5.428514892578125,-0.007843973115086555,0.006208984646946192,-0.00004941760562360287
1772702656629564700,5.438564697265625,-0.009533554315567017,-0.00041310396045446396,0.003211528994143009
1772702656639614700,5.44861474609375,-0.008380139246582985,0.003608003258705139,0.0025505325756967068
1772702656649664800,5.458664794921875,-0.006355522200465202,0.009159035049378872,0.0017402521334588528
1772702656659713800,5.4687138671875,-0.00552807841449976,0.0018324125558137894,0.0025637014769017696
1772702656669763800,5.478763916015625,-0.004689679481089115,0.0038657067343592644,0.003663246054202318
1772702656679814000,5.48881396484375,-0.002819607499986887,-0.005283582955598831,0.006920824758708477
1772702656689864000,5.498864013671875,-0.00009330338798463345,0.005940942093729973,0.0033986710477620363
1772702656699913700,5.508913818359375,0.0017298966413363814,0.01137512270361185,0.0035957449581474066
1772702656709963800,5.5189638671875,0.0004615551442839205,0.01257539913058281,0.004763885401189327
1772702656720013800,5.529013916015625,0.0020775613375008106,0.0055893948301672935,0.004055484663695097
1772702656730064000,5.53906396484375,0.00006523565389215946,0.005149925593286753,0.004388689529150724
1772702656740113000,5.54911279296875,-0.00012464774772524834,0.008080467581748962,0.00023176113609224558
1772702656750163000,5.559162841796875,0.00014202145393937826,-0.0015691425651311874,-0.0014138976112008095
1772702656760213000,5.569212890625,0.0016216738149523735,-0.0074067916721105576,0.0027566126082092524
1772702656770262800,5.5792626953125,0.0020626401528716087,-0.002925759181380272,-0.0006267086719162762
1772702656780312800,5.589312744140625,0.002670107176527381,-0.0020242794416844845,-0.0002107229665853083
1772702656790363000,5.59936279296875,0.004489954560995102,0.004798400681465864,0.0026293282862752676
1772702656800413000,5.609412841796875,0.005707818083465099,-0.0002781166695058346,-0.0006215924513526261
1772702656810462700,5.619462646484375,0.001929755788296461,0.008647236973047256,-0.00014139071572571993
1772702656820511700,5.62951171875,0.00293776229955256,0.011119183152914047,-0.0019880267791450024
1772702656830561800,5.639561767578125,0.0012377225793898106,0.0022657588124275208,-0.001273422734811902
1772702656840611800,5.64961181640625,-0.00007122103124856949,-0.010279593989253044,-0.00010935502359643579
1772702656850661600,5.65966162109375,-0.0024970725644379854,-0.009919246658682823,-0.005218253005295992
1772702656860712000,5.6697119140625,-0.0018757572397589684,0.0021603191271424294,-0.007295785006135702
1772702656870762200,5.67976220703125,0.00030873529613018036,0.004486353136599064,-0.005336467642337084
1772702656880812300,5.689812255859375,-0.001918200054205954,0.004992886446416378,-0.0026746380608528852
1772702656890862600,5.699862548828125,-0.0013325709151104093,-0.00008070189505815506,0.0006029143114574254
1772702656900912400,5.709912353515625,0.0017650597728788853,0.000128129031509161,-0.001771829673089087
1772702656910962400,5.71996240234375,0.004208426922559738,0.00635337783023715,-0.00639352947473526
1772702656921011500,5.730011474609375,0.003466470167040825,0.010019218549132347,-0.004928524140268564
1772702656931061200,5.740061279296875,0.003728430485352874,0.008017139509320259,-0.00257572578266263
1772702656941111300,5.750111328125,0.004315923899412155,0.010512255132198334,0.0019623006228357553
1772702656951161300,5.760161376953125,0.003375658066943288,0.011873528361320496,-0.0017586344620212913
1772702656961211400,5.77021142578125,0.0033772559836506844,0.015313265845179558,-0.0035583986900746822
1772702656971261200,5.78026123046875,-0.0019734858069568872,0.012545915320515633,-0.004580399487167597
1772702656981311200,5.790311279296875,-0.00240411888808012,-0.008122343569993973,-0.0018788889283314347
1772702656991361300,5.800361328125,-0.005226393695920706,-0.0029864246025681496,-0.003304555546492338
1772702657001411300,5.810411376953125,-0.0024575055576860905,0.021150868386030197,-0.004318154416978359
1772702657011460400,5.82046044921875,-0.004304264672100544,0.00314977765083313,0.0012544328346848488
1772702657021510400,5.830510498046875,-0.0029031753074377775,0.013719597831368446,-0.0008742319187149405
1772702657031560400,5.840560546875,-0.0010249493643641472,0.035270996391773224,-0.00046460441080853343
1772702657041610500,5.850610595703125,-0.000274736899882555,0.027022654190659523,-0.0010742020094767213
1772702657051660300,5.860660400390625,0.002601007465273142,0.012991967611014843,-0.0017900530947372317
1772702657061710300,5.87071044921875,0.0004630215698853135,-0.00039627496153116226,-0.002127475570887327
1772702657071760400,5.880760498046875,0.004656350705772638,0.011372564360499382,0.03896045312285423
1772702657081810400,5.890810546875,-0.0009341571712866426,0.005142898764461279,0.055412665009498596
1772702657091859500,5.900859375,-0.0018000940326601267,-0.03908795863389969,-0.02019413374364376
1772702657101909500,5.910909423828125,-0.00017742998898029327,-0.02633061632514,-0.055734552443027496
1772702657111959600,5.92095947265625,-0.0007093144813552499,0.01531285047531128,-0.02460005134344101
1772702657122009300,5.93100927734375,-0.00047389103565365076,0.019916657358407974,0.0023127899039536715
1772702657132059400,5.941059326171875,-0.0026241992600262165,-0.011097324080765247,0.012270787730813026
1772702657142109400,5.951109375,-0.0031363251619040966,-0.026338329538702965,0.004344953689724207
