time,seconds_elapsed,z,y,x
1772697779304192000,0.02819189453125,0.9096540075182914,-0.21030863782167433,0.2284568734526634
1772697779314241000,0.038240966796875,1.3116583526283503,-0.19197014031559229,0.20116481577083467
1772697779324288800,0.048288818359375,1.7807377536237239,-0.6698083095669746,0.5032306769222021
1772697779334338000,0.058338134765625,1.9832336718678474,-0.8121808907598257,0.4321226391937583
1772697779344385800,0.0683857421875,1.673372772926092,-0.9923188467234373,0.20809936427436768
1772697779354435000,0.07843505859375,1.1435288143664597,-0.9610501404955982,0.17551321877241133
1772697779364484000,0.088484130859375,0.9822644856989383,-0.945053676071018,0.865546424113959
1772697779374532000,0.098531982421875,0.946598713555932,-1.3046296230353414,1.2401013290233909
1772697779384580900,0.108580810546875,0.8660603649854659,-0.857826205125451,1.2062857878569513
1772697779394629000,0.118629150390625,1.1583856072366236,-0.2673027369365096,0.6214974292539059
1772697779404678000,0.128677978515625,1.4856103134334087,0.23962489480748772,0.11674122326485813
1772697779414726100,0.13872607421875,1.4915636688798666,0.7313252929337323,0.029550723328813908
1772697779424775000,0.14877490234375,1.309690851947665,0.9721395436562598,-0.2493987583901733
1772697779434824000,0.158823974609375,-0.7369102534592151,1.7861719075016675,-1.2528377687387167
1772697779444872000,0.168871826171875,0.5574772308945656,1.3381285725332797,-0.03152845314256847
1772697779454921000,0.1789208984375,1.163567978310585,0.5749291548244655,0.2684427007518709
1772697779464969000,0.188968994140625,0.31977322114706036,0.45709816356152294,-0.05512991267815232
1772697779475018000,0.19901806640625,-0.009296236133575438,0.5104020298562943,-0.2600527658082545
1772697779485066000,0.20906591796875,0.40488486898243425,1.5432051549203694,-0.9859976808778941
1772697779495115000,0.219114990234375,0.5869768816232681,2.4675305157393215,-1.706939965354651
1772697779505164000,0.2291640625,0.2741179699093103,2.7693144912093874,-1.660951975031197
1772697779515212000,0.2392119140625,-2.907121371921897,2.2390884014643726,0.0669748103812337
1772697779525260800,0.2492607421875,-4.218201632401347,2.0711812737815083,-0.3891341960124671
1772697779535309000,0.25930908203125,-3.724032213813066,2.49642226370275,-1.5102864895284176
1772697779545357800,0.26935791015625,-3.5407466074734923,2.0970102731734515,-0.8540674371138215
1772697779555407000,0.279406982421875,-3.2522312788993117,1.1902018643446266,-0.1581558412581682
1772697779565454800,0.289454833984375,-2.4188538708537815,0.5544324563711881,0.04295885176062584
1772697779575504100,0.299504150390625,-1.4837211386859417,0.18248115808889268,0.1515602423854172
1772697779585552000,0.3095517578125,-0.6672878511786461,0.011994389176368712,0.4451614959217608
1772697779595601000,0.319600830078125,-0.0017728548914194106,-0.07464359144344926,0.7583781350322067
1772697779605649000,0.32964892578125,0.443263407215476,-0.238331932387501,0.5507601975992321
1772697779615698000,0.339697998046875,0.4380255065619945,-0.14148527696430682,-0.6142421974286437
1772697779625747000,0.349746826171875,0.11323474951386452,0.152541654638201,-0.42210035380795596
1772697779635795000,0.359794921875,-0.6448141535639762,0.17413608520030974,0.39013007518202064
1772697779645844000,0.369843994140625,-1.1441723729670048,-0.04719049798101187,0.43186800684556365
1772697779655892000,0.37989208984375,-1.1357868219375609,-0.36084202137738464,0.2003361098617315
1772697779665941000,0.38994091796875,-0.6977227369308471,-0.41811873682588335,0.08927212851569057
1772697779675989000,0.399989013671875,-0.24175416192114352,-0.2663940976589918,0.534366258289665
1772697779686038000,0.4100380859375,0.039870238095521926,-0.1277038582406938,0.45298181428387757
1772697779696086800,0.420086669921875,0.26036124723553655,0.2746132060803473,-0.09167378282994032
1772697779706135000,0.430135009765625,0.02899579285979271,0.7754561110831797,-0.035275019259750844
1772697779716183800,0.440183837890625,-0.3278238411337137,0.5076045080922543,0.41532939836829896
1772697779726232000,0.450232177734375,-0.7849450933098793,0.9208885182380676,0.24326544326692817
1772697779736280800,0.46028076171875,-0.9084019616305827,1.4509351597629487,-0.6085515845716
1772697779746329000,0.4703291015625,-0.9078583562731742,1.8424391536466775,-1.172667230567336
1772697779756377900,0.4803779296875,-1.070685111951828,2.4632898094296456,-1.385013219435513
1772697779766427100,0.49042724609375,-0.9996803154021501,2.4731483556210994,-0.46778380822688337
1772697779776475000,0.500474853515625,-1.0124988804429769,2.1707548699505628,0.5440425797820091
1772697779786524200,0.510524169921875,-0.9307377120792866,2.0031652837842704,0.640463557139039
1772697779796572000,0.520572021484375,-0.6518658256411552,1.853355246067047,0.18265695304721594
1772697779806621200,0.53062109375,-0.36279227866232394,1.8239895969815552,-0.21639760234653949
1772697779816670000,0.540669921875,-0.32933483021855353,2.1272681949235497,-0.9989937944427132
1772697779826718000,0.550718017578125,-0.32857845889329906,2.35102653529644,-1.8585273880079387
1772697779836767000,0.56076708984375,0.059760933479666704,2.198074838552624,-1.8342063089609144
1772697779846815000,0.57081494140625,0.7954027744382619,2.376579201965034,-0.9079080406337976
1772697779856864000,0.580864013671875,1.6779355507969855,3.0298586937963963,0.3102373310387134
1772697779866912000,0.590912109375,2.558594349977374,4.186597118347883,0.7578162633657455
1772697779876961000,0.6009609375,2.647090379554033,4.892268183934688,0.18483692743480204
1772697779887009800,0.611009765625,1.7276111435919999,5.117659824597835,-0.9299357480466365
1772697779897058000,0.62105810546875,1.1985112813979386,5.426615883654356,-2.079943987560272
1772697779907106800,0.63110693359375,1.5666893447518349,6.349201853460073,-2.3185557598024604
1772697779917154800,0.64115478515625,-1.2599930473208427,4.803962123972177,-1.3997574918419122
1772697779927203800,0.651203857421875,-1.2534510783314705,5.222883701613545,0.17682722398042677
1772697779937252900,0.6612529296875,-2.7288866192311048,4.524111747890711,1.5820301217466592
1772697779947300900,0.67130078125,1.9388252058207989,4.6974634047150605,1.7223375871032476
1772697779957350000,0.681349853515625,4.564372446608543,3.968799293814599,1.6887246558368205
1772697779967398000,0.69139794921875,2.9323703794687983,3.615631168065965,1.6891648008197544
1772697779977447000,0.701447021484375,1.6992434195026753,3.551890809561312,1.5846107858896255
1772697779987495000,0.711494873046875,0.3972247096180916,2.9004189516738057,1.6878104636013507
1772697779997544000,0.7215439453125,-0.09975158308446407,1.1054927328955382,1.605822500744462
1772697780007593000,0.731593017578125,0.050044718368351455,-1.1576276284761726,1.2604706017047167
1772697780017640700,0.741640625,0.31890637518465514,-2.82721839864552,0.816467774298787
1772697780027690000,0.75168994140625,0.49760816086530685,-3.9759798529684542,0.25034371109008785
1772697780037737700,0.76173779296875,0.06305822145938873,-4.727013324326276,0.7807166619598865
1772697780047787000,0.771787109375,-0.889061301344633,-4.550903308704495,2.3989924015641213
1772697780057835800,0.781835693359375,-1.536068434908241,-3.988518139763176,3.851183260476589
1772697780067883800,0.7918837890625,-1.1586503956526517,-4.431204916134476,4.676655009964108
1772697780077932800,0.801932861328125,-0.26823841035142537,-5.734801542860269,5.11753882856667
1772697780087980800,0.811980712890625,0.2823112863022834,-6.554968756198883,5.311062335804104
1772697780098029800,0.82202978515625,0.20640337401144204,-6.5767573941588395,5.117163565513492
1772697780108077800,0.832077880859375,-0.49791971103250976,-6.611511896675824,4.721344631040096
1772697780118126800,0.842126953125,-1.6843717213243246,-6.713692168211937,4.090820868635177
1772697780128175600,0.852175537109375,-3.1380969501972196,-6.870760214233398,3.075502254596352
1772697780138223900,0.862223876953125,-6.019782267567515,-7.231279287266731,1.3617057013452052
1772697780148272600,0.872272705078125,-9.674628716951608,-7.863473613232374,-1.1598217775195836
1772697780158321000,0.88232080078125,-14.671493585914373,-7.228665305376053,-4.303408557304739
1772697780168369700,0.89236962890625,-16.13489791275859,-4.336747055543959,-3.5402649614363906
1772697780178419000,0.9024189453125,-8.4391347355932,-5.39225534889102,-2.4327035325080155
1772697780188466700,0.912466796875,-2.3847575399845837,-7.069782903409004,-2.8803800799906254
1772697780198516000,0.922515869140625,-0.5237415500313043,-6.06035568549633,-2.5541496455281973
1772697780208563700,0.932563720703125,1.2406214073747395,-4.945166830429434,-1.4695412221640347
1772697780218613000,0.942613037109375,2.2862498194813727,-4.208122721457481,-0.2430319267719984
1772697780228660700,0.95266064453125,1.3071926053911447,-2.923434501080215,0.6674719755738974
1772697780238710000,0.9627099609375,0.4545481868177652,-1.2780766932830214,1.155656474533677
1772697780248758800,0.9727587890625,0.3137164418587461,-0.2284609651058912,1.4200152669727801
1772697780258807000,0.98280712890625,0.8621692758310586,-0.19776976650506256,0.9829659119665622
1772697780268855800,0.992855712890625,1.8570009090930222,-0.4916138888865709,-0.15646891108453273
1772697780278903800,1.00290380859375,2.912135985213518,-1.0058230559408665,-1.4836334604024886
1772697780288952800,1.012952880859375,3.356546224376559,-1.2727087365090846,-2.336179094776511
1772697780299001900,1.023001953125,3.3027959294885396,-0.7835393181651831,-2.138592575883865
1772697780309049900,1.0330498046875,3.163898330929875,-0.3261363264381885,-1.4256430437266825
1772697780319099000,1.043098876953125,2.842028429764509,0.0199509011387825,-0.5970581306546926
1772697780329147000,1.05314697265625,2.1654064946599303,0.2871133528217673,0.1611807420372963
1772697780339195600,1.063195556640625,1.4126771791696549,0.4324152654647827,0.7821446489363908
1772697780349244000,1.073243896484375,0.5136601548694074,0.09720102181881665,0.8918149839669466
1772697780359292700,1.083292724609375,0.07111234857738018,-0.4244514469787478,0.4134977990269661
1772697780369342000,1.093342041015625,-1.0210767391741276,-0.852406518164277,-0.2464993106216192
1772697780379389700,1.1033896484375,-2.611858322653174,0.23273645046800373,-1.1591752963095903
1772697780389439000,1.11343896484375,-2.9868221006244418,1.4479016372859477,-0.6986299149036407
1772697780399486700,1.12348681640625,-2.0205171083405613,2.021989226719737,0.7707441339999437
1772697780409536000,1.133535888671875,-0.9542255551725626,2.9320006693735716,2.938579755502939
1772697780419583700,1.143583740234375,-0.6518947594746947,2.874114005333185,4.347420132988691
1772697780429633000,1.153633056640625,-0.33751156080290673,3.1895693632811306,4.432207371175289
1772697780439681800,1.163681884765625,0.0420019894272089,4.329536978034675,3.09857684071362
1772697780449729800,1.173729736328125,0.5862130576439202,4.5983737926706665,1.7660890505462883
1772697780459778800,1.18377880859375,0.77221508333534,3.5623026057213543,0.34570319669544697
1772697780469826800,1.193826904296875,0.4201442513041198,1.592778602515161,-1.3542244056791066
1772697780479875800,1.203875732421875,-0.3476103454910219,0.13545681045502422,-2.4088778357625005
1772697780489924900,1.2139248046875,-0.9480565111488103,-1.3260931206941604,-3.059253130584955
1772697780499972900,1.223972900390625,-1.128974219313264,-1.9658093665972352,-3.7166350892990825
1772697780510022000,1.23402197265625,-0.9854125744663178,-1.1519856770664454,-4.344524411547184
1772697780520070000,1.24406982421875,-1.0350637634724378,-0.8846782639548182,-3.371210709545016
1772697780530119000,1.254118896484375,-0.6397124465107917,-0.9776777424305677,-1.9360978266835212
1772697780540167000,1.2641669921875,-0.49330184197351334,-0.23404490271806716,-0.3883919993430376
1772697780550215700,1.274215576171875,-0.4355409962698817,1.3116937162026763,1.2755313927143812
1772697780560264700,1.2842646484375,-0.1659333433918655,2.165278922757506,2.9421967769563198
1772697780570312700,1.294312744140625,0.4703744092419743,2.056999165302515,4.415665401697159
1772697780580361700,1.30436181640625,1.6479672596432267,1.7872697857409714,5.333946367785335
1772697780590409700,1.31440966796875,3.1564936076313255,1.4292898757964372,4.729392328417301
1772697780600458800,1.324458740234375,4.257985945779085,0.6892758111029863,2.9682717139333485
1772697780610507800,1.3345078125,4.366355135083198,0.9822446119546889,1.8264818521887063
1772697780620555800,1.3445556640625,3.4812902098983525,1.491590849147737,1.33353525339365
1772697780630604800,1.354604736328125,2.3543586023285985,1.5188020966783164,1.102319436621666
1772697780640652800,1.36465283203125,1.2650544223636389,1.11325028821975,1.0265203915327787
1772697780650701800,1.374701904296875,-0.20068185455948112,0.23258593608140943,0.4308540074974298
1772697780660749800,1.384749755859375,-1.5836796425193547,-0.25284341895133255,-0.16365969937145708
1772697780670798800,1.394798828125,-2.8743086511224507,-0.351383872680366,-1.0911287650436163
1772697780680848000,1.404847900390625,-4.005779655687511,-0.2137020796522498,-1.8753537273854015
1772697780690896000,1.414895751953125,-4.197045154865086,0.46163171533793207,-2.1774416542381045
1772697780700945000,1.42494482421875,-2.993665390647948,0.7121656883031129,-1.8062030342698097
1772697780710993000,1.434992919921875,-1.3802502428174017,0.27112960174828765,-1.034882561686635
1772697780721042000,1.4450419921875,0.19316811792850494,-0.5199196536555886,-0.4642927512407303
1772697780731090700,1.455090576171875,1.1712635012492536,-1.1081199395939707,-0.2970323970288038
1772697780741139000,1.465138916015625,1.6185177316665649,-0.9198831405878066,-0.5509387690365314
1772697780751187700,1.475187744140625,1.5512661501705645,-0.24062983406633137,-0.45771804902553553
1772697780761236000,1.485236083984375,1.1486261375054716,0.5895429327189922,0.2842880662679672
1772697780771284700,1.49528466796875,0.8841381657287478,1.1730500924050806,1.0612678797870874
1772697780781332700,1.505332763671875,0.7285039519026875,0.9484200837641954,2.04050337305367
1772697780791381800,1.5153818359375,0.634182284912467,0.7781111556366086,2.284786761191487
1772697780801431000,1.52543115234375,0.405718981719017,1.047719539166987,1.4969441928744316
1772697780811478800,1.535478759765625,0.0351417482689023,1.620733069628477,0.3110445557683706
1772697780821527800,1.54552783203125,-0.09989742129594087,1.9215821023359894,-0.4481932648330927
1772697780831575800,1.555575927734375,-0.08049977012574672,1.4744725410863757,-0.691810882538557
1772697780841624800,1.565624755859375,0.1269347735643387,0.8770984763503075,-1.094144897994399
1772697780851673900,1.575673828125,0.4668883206918835,0.6134317578285933,-1.5916069283872842
1772697780861721900,1.585721923828125,0.6593339695647359,0.9418474273756146,-2.0965783114969727
1772697780871771000,1.59577099609375,0.5757055460244417,1.5968632414802908,-2.513141927835345
1772697780881819000,1.60581884765625,0.44561143164634703,1.4577832720920443,-3.724332658064365
1772697780891868000,1.615867919921875,0.23745588020533323,1.0229489627867936,-4.750809210455417
1772697780901916400,1.62591650390625,0.12383680754899978,1.0818477264791726,-4.637797748303413
1772697780911965700,1.635965576171875,0.11267536206543445,0.439061571611464,-3.612885961011052
1772697780922014500,1.646014404296875,-0.08085311360806226,-1.688423627063632,-2.4339275213450193
1772697780932062700,1.656062744140625,-0.6368205244615673,-3.0403020541384813,-1.5649258422106505
1772697780942111500,1.666111572265625,-1.1975254852309822,-2.9018305720373987,-0.48876200658679003
1772697780952159700,1.67615966796875,-1.5911284972205757,-2.0784853131845593,0.8486047877937555
1772697780962208500,1.68620849609375,-1.5792302618950604,-0.43644203676283355,2.2047399955302476
1772697780972256800,1.6962568359375,-1.3952417679831384,2.071018338304758,3.054779200041294
1772697780982305500,1.706305419921875,-1.2608330052763224,3.594676058320701,3.524646536543965
1772697780992354600,1.7163544921875,-1.006902083349228,4.354052702870964,3.308880802360177
1772697781002402600,1.726402587890625,-0.44521132641285655,4.52624729861468,2.742595411109924
1772697781012451600,1.73645166015625,-0.03488017472326755,3.9230309375911947,1.7564508691072462
1772697781022499600,1.74649951171875,0.11311638383120298,2.8314696263492105,1.1028846692889929
1772697781032548600,1.756548583984375,0.1258528235465288,1.7365535978518425,0.4676292021870613
1772697781042597600,1.76659765625,0.2429576924920082,1.1968718436278403,0.026996143475174903
1772697781052645600,1.776645751953125,0.5700245777785777,0.9403466674238443,-0.10782675299048423
1772697781062694700,1.786694580078125,0.7794611089408398,0.9619107028476893,-0.1759153698325157
1772697781072742700,1.79674267578125,0.9874556246012449,1.073824725151807,-0.14182546870410442
1772697781082791700,1.806791748046875,1.2508192685231565,1.656013349585235,-0.0051876317709684365
1772697781092839400,1.81683935546875,1.2864584449201821,2.2848455056414005,-0.26107202585339545
1772697781102888700,1.826888671875,1.2221399942666291,2.418748949174583,-0.37558921639323234
1772697781112937700,1.836937744140625,0.8974375000238418,2.729441330504417,-0.3323059549838304
1772697781122985700,1.84698583984375,0.5838257241159677,4.197810001757741,0.44264556757807727
1772697781133034500,1.857034423828125,0.2060109406277537,5.0151995670765634,0.7157821252346038
1772697781143082500,1.86708251953125,-0.2753168243050575,4.211068711781501,0.2935585834383964
1772697781153131500,1.877131591796875,-1.7206594247579574,2.5136574761420487,-0.17167407900094986
1772697781163180500,1.8871806640625,-2.9552468126654623,0.18279665377885101,-0.666868164461851
1772697781173228500,1.897228515625,-2.5631153345331548,-1.1991671880234032,-1.116771155822277
1772697781183277600,1.907277587890625,-3.164696787831187,-2.3877983689852056,-0.9759785372972488
1772697781193325600,1.91732568359375,-3.190991797299683,-2.9884304126039147,-0.920203458583355
1772697781203374600,1.92737451171875,-2.4057222943410275,-3.153179076255858,-0.9832400527328252
1772697781213422600,1.937422607421875,-1.4136016005381942,-2.997506576246023,-1.0678162785172463
1772697781223471600,1.9474716796875,-0.5346370380550622,-2.724430808866024,-1.056408749318123
1772697781233520400,1.957520263671875,0.16128712502121925,-2.033952928496897,-0.8030179256170987
1772697781243568600,1.967568603515625,0.23868425295650958,-1.0984802237849682,-0.2508241880834102
1772697781253617400,1.977617431640625,0.04443798440247774,-0.4374065344134345,-0.07680792987048625
1772697781263665700,1.987665771484375,-0.28767595514059063,-0.1705813518607989,-0.0861298849672079
1772697781273714400,1.99771435546875,-0.5362839284792542,-0.18507786005120724,0.03740238667726516
1772697781283762700,2.0077626953125,-0.5148299293011427,-0.21741026825411244,0.18497955077588557
1772697781293811500,2.0178115234375,-0.3386670144483447,-0.24590675155594943,0.3472434118747711
1772697781303860700,2.02786083984375,-0.06688683983683585,-0.10178962825071065,0.3487894722729921
1772697781313908500,2.037908447265625,-0.022136136223375794,-0.09681538350209593,0.20875614768266676
1772697781323957800,2.047957763671875,0.14485621470212937,-0.1456662707096897,0.13380232124626637
1772697781334005500,2.058005615234375,0.39046266813725233,-0.2505665600605309,0.02789338457584381
1772697781344054800,2.0680546875,0.6134659523591399,-0.39208471638113257,-0.08212357193529606
1772697781354103600,2.078103515625,0.7222586277723312,-0.48173484789635984,-0.04429974497556686
1772697781364151600,2.088151611328125,0.7214227614700793,-0.4683595622882247,-0.1990823104083538
1772697781374200600,2.09820068359375,0.6560813975095748,-0.4430823150275275,-0.42412616054713725
1772697781384248600,2.10824853515625,0.5729892728030681,-0.3813554517697543,-0.5273726000100374
1772697781394297600,2.118297607421875,0.42695816910266876,-0.3299260741099715,-0.44988311761617655
1772697781404345600,2.128345703125,0.32635727571249007,-0.17511852036640047,-0.4045312332391739
1772697781414394600,2.13839453125,0.054879298917949196,0.07491199658866972,-0.1981710407823324
1772697781424443400,2.148443359375,-0.45817309931665656,0.27648301854021845,0.10482640213072299
1772697781434491600,2.15849169921875,-1.1830503851547836,0.3209343008156866,0.4716624032258987
1772697781444540400,2.16854052734375,-1.9258803840517997,0.2556419636286795,0.5745154594570397
1772697781454588700,2.178588623046875,-2.4596955843299626,0.23893585309740153,0.6272849266141652
1772697781464637400,2.188637451171875,-2.62316823669672,0.17998024465125054,0.3935065658777952
1772697781474685700,2.198685791015625,-2.3699399100810288,0.14017898013871163,0.209956755644083
1772697781484734500,2.208734375,-1.7673285292133687,0.07116890107020735,-0.08968845423161984
1772697781494783700,2.21878369140625,-1.1033514100179076,0.08694598712306469,-0.34446985550820824
1772697781504831500,2.22883154296875,-0.6406114411771298,0.11393416648749262,-0.47479719412028787
1772697781514880800,2.238880859375,-0.3400909097716212,0.0872012405257672,-0.4766606499046087
1772697781524928500,2.248928466796875,-0.1193961947530508,0.07611388319171965,-0.5296148259788751
1772697781534977800,2.258977783203125,0.07182868015319109,0.07651771475225687,-0.3887298529952764
1772697781545026600,2.269026611328125,0.2251198379844427,0.06656403762325644,-0.2036222919255495
1772697781555074800,2.27907470703125,0.41563247296810146,-0.011326426786929368,-0.03521569028794765
1772697781565123600,2.28912353515625,0.5443468234255909,-0.1096554297223687,-0.0022878186762332916
1772697781575171600,2.299171630859375,0.5823161963358521,-0.20222652671821414,0.12809504951536654
1772697781585220600,2.309220703125,0.5617568079099059,-0.264718492596969,0.1594979035168886
1772697781595268600,2.3192685546875,0.3284711991265416,-0.2840660210151225,0.07241583239138126
1772697781605317600,2.329317626953125,-0.0021840660408139227,-0.4075396943401545,0.07820844431817531
1772697781615366700,2.33936669921875,-0.22683424068689345,-0.5391054156407714,-0.05678688610494136
1772697781625414700,2.34941455078125,-0.3440501687914133,-0.6508618362303823,-0.27230945918262
1772697781635463400,2.35946337890625,-0.3025923692435026,-0.7701021097693592,-0.43942660553157326
1772697781645511700,2.36951171875,-0.37133623512387276,-0.761665120813623,-0.5032733470201493
1772697781655560400,2.379560546875,-0.3046019555002451,-0.8338022823940963,-0.5408019904255866
1772697781665608700,2.389608642578125,-0.3641062838703394,-0.7898869336262345,-0.5691974793046712
1772697781675657500,2.399657470703125,-0.36009003396630285,-0.8170289153128862,-0.599321399411559
1772697781685706500,2.40970654296875,-0.4066512941330671,-0.7879373339284211,-0.5033294611215591
1772697781695754500,2.41975439453125,-0.5605111917629838,-0.6911169089250266,-0.37934418501257894
1772697781705803500,2.429803466796875,-0.513329753871262,-0.7191410072084515,-0.39360535007715225
1772697781715851500,2.4398515625,-0.5730559082984924,-0.6041748307920992,-0.3546154019474983
1772697781725900500,2.449900634765625,-0.6412830568283796,-0.5076783039808273,-0.3752355806499719
1772697781735949600,2.459949462890625,-0.6329106575414538,-0.4575144892774522,-0.583166967946291
1772697781745997600,2.46999755859375,-0.5990817454367876,-0.3444840301640332,-0.658345250788331
1772697781756046600,2.480046630859375,-0.6990770741492509,-0.19177768648341298,-0.43276422503292555
1772697781766094600,2.490094482421875,-0.5810957146301865,-0.2069112504683435,-0.3422358128458261
1772697781776143600,2.5001435546875,-0.48543169312030077,-0.2861549561183899,-0.4150876985669136
1772697781786191600,2.510191650390625,-0.5086567936241626,-0.38619149362407623,-0.6015723932087421
1772697781796240600,2.52024072265625,-0.7509612829044461,-0.38792416263557966,-0.691663583022356
1772697781806289700,2.53028955078125,-0.9276698489412665,-0.36556963442116974,-0.6204717394679784
1772697781816337700,2.540337646484375,-1.0602210010826587,-0.3430552394699305,-0.6602841098964214
1772697781826386700,2.55038671875,-1.1104141880109906,-0.291800268528983,-0.7517518487602471
1772697781836434700,2.5604345703125,-1.0887205348581075,-0.22795133508332072,-0.8765589626461266
1772697781846483500,2.5704833984375,-1.1167559582531452,-0.14742233886308967,-0.9150853849172592
1772697781856532500,2.580532470703125,-1.1308876517191528,-0.07940086897313595,-0.8152291724145412
1772697781866580500,2.59058056640625,-1.2096385323509573,-0.07277582481019199,-0.6387333723455667
1772697781876629500,2.60062939453125,-1.3491595235049725,-0.036394926667772234,-0.46730713062584395
1772697781886677500,2.610677490234375,-1.4060811419054866,-0.09051233783513307,-0.34511633671820163
1772697781896726500,2.6207265625,-1.3639113946959376,-0.12527246637530623,-0.2652256384015083
1772697781906774000,2.63077392578125,-1.437390180143714,-0.0995512747393921,-0.16842822894752024
1772697781916822800,2.64082275390625,-1.3159142565071582,-0.2879489999283105,-0.2756400649100542
1772697781926872000,2.6508720703125,-1.3307529291987419,-0.36057792708110065,-0.2489613168209791
1772697781936919800,2.660919921875,-1.2371265509963034,-0.502423488725163,-0.34815994219779967
1772697781946969000,2.670968994140625,-1.1812266768589614,-0.5644446952870116,-0.36612756056487555
1772697781957016800,2.681016845703125,-1.1675041487157345,-0.5944524051357061,-0.4511451003760099
1772697781967066000,2.691066162109375,-1.141350301283598,-0.7418083276990801,-0.47079029656648635
1772697781977113900,2.70111376953125,-1.116310552573204,-0.9482993799939751,-0.41618309258818625
1772697781987163100,2.7111630859375,-1.1876537872970103,-1.1508688749309628,-0.3685223467469215
1772697781997212000,2.7212119140625,-1.2900102921828627,-1.3691254760824143,-0.3382376831203699
1772697782007260000,2.731260009765625,-1.466329274380207,-1.52596628921926,-0.2840186016768217
1772697782017309000,2.741308837890625,-1.706437714920938,-1.629036203071475,-0.3145610394567251
1772697782027357000,2.75135693359375,-1.91929632948637,-1.6134025806099175,-0.2749433148175478
1772697782037406000,2.761406005859375,-1.8251102715745566,-1.6011526092372834,-0.0551993246525526
1772697782047455000,2.771455078125,-1.3184881986483932,-1.5867394684813916,0.5842535941392183
1772697782057503000,2.7815029296875,-0.7948901487410068,-1.5537741874687372,1.4586574245780706
1772697782067551700,2.7915517578125,-0.321646321542561,-1.6167266104660927,2.606310040876269
1772697782077600000,2.80160009765625,-0.09352584043741226,-1.6175572160713374,3.5415777976006266
1772697782087648800,2.811648681640625,-0.04098024516403675,-1.6544490228779614,3.9038317316025495
1772697782097697000,2.821697021484375,0.27990882827043534,-1.8746157684996723,3.4675972001105544
1772697782107745800,2.831745849609375,0.2196346845716238,-1.8560713731579481,2.0906413226634264
1772697782117795000,2.841795166015625,-0.2985162058457732,-1.7186397554986177,0.4419669376641512
1772697782127842800,2.8518427734375,-0.7069172662556171,-1.3688662406243384,-1.0440127936035395
1772697782137892000,2.86189208984375,-0.7359241650313139,-0.9626963733326643,-1.8959826739162207
1772697782147939800,2.87193994140625,-0.49464551166743037,-0.511982284785062,-2.0648183146208523
1772697782157989000,2.881989013671875,-0.05677957958132028,-0.0919282325150445,-1.5992670877516268
1772697782168038000,2.892037841796875,0.2245364851385355,0.28931785886241124,-0.7352227387636899
1772697782178086100,2.902086181640625,0.1590603888824582,0.6137618665657937,0.39901159303486344
1772697782188135000,2.912135009765625,-0.23722674762457607,0.8465266663454473,1.2377531584620476
1772697782198183200,2.92218310546875,-0.2831345123186707,0.7606330743521451,1.4274614913254975
1772697782208232000,2.93223193359375,-0.14350801496356724,0.6410572852484882,1.4413018006294964
1772697782218280200,2.9422802734375,0.17295622776597738,0.40498029218092557,1.2308902869552374
1772697782228329000,2.952328857421875,0.8372501578256487,0.13084811108317226,0.776319888305664
1772697782238378000,2.9623779296875,1.497482245273888,-0.09572108545936643,0.33257249696552754
1772697782248426000,2.972426025390625,1.8611103902384638,-0.25008279513157905,0.12116846512258052
1772697782258475000,2.98247509765625,1.7919634965151547,-0.19249705026652664,-0.05739946504533291
1772697782268523000,2.99252294921875,1.6173545331060886,-0.22009751631040125,-0.15220774650871752
1772697782278571800,3.00257177734375,2.157329132796824,-0.4446120453454554,-0.05675532192289829
1772697782288620000,3.0126201171875,2.1913772406101226,-0.563036399391666,-0.1465700328826904
1772697782298668800,3.022668701171875,2.0769924442782997,-0.6368997271776199,-0.3172995245099067
1772697782308718000,3.032718017578125,1.9235455113634465,-0.6977442911755293,-0.44272740064263344
1772697782318765800,3.042765869140625,1.7805986374139784,-0.7834533934473991,-0.4114233308404684
1772697782328815000,3.052815185546875,1.6749138648882507,-0.8402183599814772,-0.39841771879494187
1772697782338862800,3.06286279296875,1.4332874210000037,-0.7221607934210449,-0.36224516617357727
1772697782348912000,3.072912109375,1.3256515144065022,-0.5140387058582156,-0.27304128058850763
1772697782358961000,3.0829609375,1.3054422545924782,-0.37492198465615506,-0.13667407729029654
1772697782369009000,3.0930087890625,1.6041805787563324,-0.3690503892090171,0.21880758609771728
1772697782379058000,3.103057861328125,1.3694140837654472,-0.24359321391656993,0.3690583533197641
1772697782389106000,3.11310595703125,0.9570058335408568,-0.1735923337124288,0.4859954644829034
1772697782399155000,3.123155029296875,0.5591989401206374,-0.1404568837646395,0.6670458591163158
1772697782409203000,3.133202880859375,0.28210984544605017,-0.050404856917634605,0.8493582365095614
1772697782419252000,3.143251953125,0.12431816132515668,-0.01408208217062056,0.8659183261662721
1772697782429301000,3.153301025390625,-0.11552139914631843,0.023834318443387747,0.6882254252672195
1772697782439349000,3.163348876953125,-0.4059288250774145,0.09023468993753195,0.43004795181155203
1772697782449398000,3.17339794921875,-0.5719289500951766,0.1005139457590878,0.015875614523887634
1772697782459446000,3.183446044921875,-0.6297963249132037,0.13834376406818627,-0.3312245894879102
1772697782469495000,3.1934951171875,-0.4174912525773048,0.19014650508500636,-0.5677729994595051
1772697782479543000,3.20354296875,-0.2052694746106863,0.3040286125916987,-0.7201976035892963
1772697782489592000,3.213592041015625,-0.07647767500281333,0.4045844247311353,-0.7871978406727314
1772697782499640800,3.223640869140625,0.3840463713541627,0.3875886470708996,-0.7779477817684411
1772697782509688800,3.233688720703125,0.2705547244697809,0.5187753789912909,-0.6464087292790412
1772697782519737900,3.24373779296875,0.31427170112133024,0.5953134789444506,-0.3927349969834089
1772697782529785900,3.253785888671875,0.5298223312497139,0.6665178166542202,-0.2976987519830465
1772697782539835000,3.2638349609375,0.34798107849955556,0.6489906355310231,-0.33941549472808835
1772697782549884000,3.2738837890625,0.19454466697871683,0.6441686222020536,-0.3448375197768211
1772697782559932000,3.283931884765625,0.02433189270198345,0.6556444673970341,-0.222331084048748
1772697782569981000,3.29398095703125,-0.14560732533037662,0.6829015268307179,-0.3088473379850387
1772697782580029000,3.30402880859375,-0.2280868710964918,0.703243253917992,-0.4434627291798591
1772697782590078000,3.314077880859375,-0.11130582727789878,0.602369461870566,-0.4194745353490114
1772697782600126000,3.3241259765625,-0.030354513992369173,0.5841208346050232,-0.39116029501259325
1772697782610175000,3.334175048828125,0.2414908348098397,0.45946576947569845,-0.14775018257796763
1772697782620224000,3.34422412109375,0.4334735423460602,0.39164106426686046,0.18924948318004606
1772697782630272000,3.35427197265625,0.40591304298639297,0.2688764890592545,0.4127560407489538
1772697782640321000,3.364321044921875,0.13115735969543457,0.08943579464480281,0.6908586963802575
1772697782650369000,3.374369140625,-0.20426409696042536,-0.16863003512993455,0.8564052324116229
1772697782660418000,3.38441796875,-0.6835580179780721,-0.3804904324382543,0.7987316266000271
1772697782670466800,3.394466796875,-1.0999585527092217,-0.3376044267181307,0.31535189757347104
1772697782680515000,3.40451513671875,-1.3267547994732856,-0.38644137673191725,-0.008148235142230988
1772697782690563800,3.414563720703125,-1.2059312022656201,-0.518889433825016,-0.17337737578749657
1772697782700612000,3.424612060546875,-0.9314239407777786,-0.6077301851861179,-0.2763186948239803
1772697782710660900,3.434660888671875,-0.6827127993255854,-0.8051869402192533,-0.06086275724172592
1772697782720708900,3.444708984375,-0.4230605771422386,-1.0889958446681498,-0.04759586391150951
1772697782730758000,3.4547578125,-0.24538988807499407,-1.1561797677554189,-0.39734161399602885
1772697782740807200,3.46480712890625,-0.2398071195065975,-1.0836536068573595,-0.39525194824039933
1772697782750855000,3.47485498046875,-0.05063362417221069,-0.8956647912628948,-0.41148996633589263
1772697782760904200,3.484904296875,0.23121698581576347,-0.462113069114089,-0.5058826527357101
1772697782770952000,3.494951904296875,0.36595337304174896,0.07078472405821085,-0.7240858431994914
1772697782781001000,3.5050009765625,0.4183461158409714,0.4293469639353454,-0.9302584041297435
1772697782791049000,3.515049072265625,0.47328152886033054,0.5994312895268201,-1.127761920914054
1772697782801098000,3.525097900390625,0.5773296400949358,0.601194938198477,-1.611975178155303
1772697782811147000,3.53514697265625,0.6558192394420505,0.38476270292997355,-1.5988988389611243
1772697782821195000,3.545195068359375,0.48468321284055704,0.04051847287118435,-1.0840841072291134
1772697782831244000,3.555244140625,0.1889890786781907,-0.3030561873629689,-1.099424884223938
1772697782841292000,3.5652919921875,-0.2805971027955413,-0.5065561680831014,-1.130102346560359
1772697782851341000,3.575341064453125,-0.6223176595956087,-0.6679134357310831,-0.9876987857073545
1772697782861389800,3.585389892578125,-0.8518503455862403,-0.8299063709340989,-0.7456523628413677
1772697782871438000,3.59543798828125,-1.119339252744615,-0.9480043425701558,-0.6961661551386118
1772697782881486800,3.60548681640625,-1.3567320045858622,-1.0456542772002517,-0.7076555174022913
1772697782891535000,3.61553515625,-1.478684898084402,-1.0506593920111655,-0.5854904424577951
1772697782901584000,3.625583984375,-1.4361103694662452,-1.1245900128796695,-0.37397242884635923
1772697782911632400,3.63563232421875,-1.5382824576959013,-1.095202225027606,-0.030962124496698377
1772697782921681200,3.64568115234375,-1.710960160781443,-1.0100876545827835,0.07114975797832011
1772697782931730200,3.655730224609375,-1.8470313037425279,-0.7552943436726928,0.1648264050632715
1772697782941778200,3.665778076171875,-1.8156687817513941,-0.32580629076622425,0.2815846525281668
1772697782951827200,3.6758271484375,-1.5129814277008176,0.2753478770304471,0.5563800833076238
1772697782961875200,3.685875244140625,-1.1693389629274606,0.6513922898452729,0.605737111672759
1772697782971924200,3.69592431640625,-1.2185121591582893,0.9435893756721169,0.32562779239416123
1772697782981973200,3.70597314453125,-1.5815715643242,1.0474373612247407,0.002853635865449905
1772697782992021200,3.716021240234375,-1.7783377067446708,1.028494248889014,-0.0609942746669054
1772697783002070300,3.7260703125,-1.7602482155635952,1.2795081873908638,0.38615503407120705
1772697783012118000,3.736117919921875,-1.9123127542093394,1.7074314021334052,1.39715052421391
1772697783022167300,3.746167236328125,-1.9742258972868323,2.2573415587745607,2.5247756670057773
1772697783032215000,3.756215087890625,-2.0082158451721073,2.883281938911974,3.268384541320801
1772697783042264300,3.766264404296875,-2.1955267615050076,3.3971544213578104,3.486568442562222
1772697783052313300,3.776313232421875,-1.873253247974813,3.597928045853972,3.3292274248182774
1772697783062361300,3.786361328125,-1.116495261490345,3.5898312486380335,2.680246799224615
1772697783072410000,3.79641015625,-0.2975675268188119,2.9483456549748777,1.7412708356320856
1772697783082458400,3.806458251953125,0.15053484486043453,1.4471525724843144,0.7988707428097724
1772697783092507100,3.816507080078125,0.09939297890514134,0.1002304526425898,-0.43370647431910037
1772697783102556200,3.82655615234375,-0.22584932130277155,-0.4397575179863721,-1.5239567029625176
1772697783112604200,3.836604248046875,-0.0065092357635498045,-0.4216845395486802,-2.055584037807584
1772697783122653200,3.846653076171875,0.8786106344789266,-0.29983576401174067,-1.7656506591290235
1772697783132701200,3.856701171875,1.6992185773223638,-0.10872658790703862,-1.1994243045896291
1772697783142750200,3.866750244140625,1.8750410081744193,0.154604103593342,-0.5460024816781283
1772697783152798200,3.876798095703125,1.5289613793820143,0.30609014823138714,-0.015991934379935263
1772697783162847200,3.88684716796875,0.9620990650266409,0.20571528214942664,0.22595745785236357
1772697783172896300,3.896896240234375,0.5759779332250357,-0.1862193217039108,0.2616010181635618
1772697783182944300,3.9069443359375,0.5471031363964081,-0.4949966631926596,-0.10260112729668616
1772697783192993300,3.9169931640625,0.7748843025445937,-0.5986467150203884,-0.5129986222207545
1772697783203041300,3.927041259765625,1.142377890765667,-0.6280087108440697,-0.7677385224431753
1772697783213090300,3.93709033203125,1.5529919510498642,-0.6405684057530016,-0.9124275638848542
1772697783223138000,3.947137939453125,1.806570114016533,-0.6839490631222724,-0.9563853635549545
1772697783233187000,3.95718701171875,1.8788970990806817,-0.6407924968324601,-0.8997779256701469
1772697783243236400,3.967236328125,1.8455378503143787,-0.5329494137616828,-0.5567325500071049
1772697783253284000,3.9772841796875,1.8689923756599425,-0.3167855105731636,-0.02400163783431053
1772697783263333400,3.98733349609375,1.8869521029815077,-0.04242964025475084,0.5892892502188682
1772697783273381000,3.997381103515625,1.7955372633486986,0.22161973917530847,1.074687333330512
1772697783283430100,4.00743017578125,1.6880647306233643,0.4651140044957399,1.3750287087768316
1772697783293479200,4.017479248046875,1.5952654508948325,0.7052922954022884,1.4486521633923053
1772697783303527200,4.027527099609375,1.5778908299848435,0.8752759370982647,1.3611276091963052
1772697783313576200,4.037576171875,1.631238681551814,0.9504019052311777,1.0539905822604894
1772697783323624200,4.047624267578125,1.6471145883366465,0.9873419350937008,0.8648732010275125
1772697783333673200,4.057673095703125,1.588632588751614,1.0356688897587358,0.7155272736907005
1772697783343721200,4.06772119140625,1.356788410948217,0.9805725140240042,0.6521119093567133
1772697783353770200,4.077770263671875,0.9530103341639041,0.895922711546719,0.6232844588011502
1772697783363819000,4.087819091796875,0.3987845062807202,0.824730721861869,0.3470078495532274
1772697783373867300,4.0978671875,-0.1403138950973749,0.7342590813633054,0.07167115150392055
1772697783383916000,4.107916015625,-0.595557955224812,0.6791442201238125,-0.1742851382821798
1772697783393964300,4.11796435546875,-0.8123232218399643,0.6151639153834432,-0.37846798669993875
1772697783404013000,4.128012939453125,-0.9439961298421025,0.5822968705808743,-0.4602916989058256
1772697783414062300,4.138062255859375,-1.0141805499196053,0.4901165264682844,-0.44995442928671836
1772697783424110000,4.148110107421875,-0.7491510186120868,0.32325174744520335,-0.3867044846475124
1772697783434159400,4.158159423828125,-0.39959056196659803,0.2139849882468581,-0.36621640789210796
1772697783444207000,4.16820703125,-0.08595745100975036,0.029130278560193255,-0.3591594751179218
1772697783454256400,4.17825634765625,0.05323825371265411,-0.11236511793932877,-0.4028600851565599
1772697783464304000,4.18830419921875,0.03883826469928026,-0.19088766057481987,-0.41164252654910083
1772697783474353400,4.198353515625,-0.017028876212239266,-0.2672609070887789,-0.42070846105813975
1772697783484402200,4.208402099609375,-0.13092121285200117,-0.2991403838924132,-0.43003801493942734
1772697783494450200,4.2184501953125,-0.23278028960973024,-0.26523144708778706,-0.3512187452465296
1772697783504499200,4.228499267578125,-0.3347609469205141,-0.1287449556583073,-0.18805647400319575
1772697783514547200,4.238547119140625,-0.32342472939193245,-0.04569172449035104,0.037619828820228574
1772697783524596200,4.24859619140625,-0.26434680974036456,-0.01975235092595685,0.07657002946138382
1772697783534644200,4.258644287109375,-0.2555184833794832,0.026317495294939725,0.06881167041957378
1772697783544693200,4.268693359375,-0.11355302168279885,0.15293372269570826,0.1679629495233297
1772697783554742000,4.278741943359375,0.1546606926187873,0.20094328197464345,0.08571019825041294
1772697783564790300,4.288790283203125,0.18310002063959835,0.15820817423360423,0.018527590337395667
1772697783574839000,4.298839111328125,0.23014672623574733,0.1124201999942772,-0.0005307458758354186
1772697783584887300,4.30888720703125,0.35156419768333436,0.06922551648404915,-0.13332301329672336
1772697783594936000,4.31893603515625,0.6169844818741083,-0.057857351180934345,-0.15966975295245647
1772697783604985300,4.3289853515625,0.9225067670896648,-0.17170388961732386,-0.30399755986630916
1772697783615033000,4.339033203125,0.998289153304696,-0.22146474954299628,-0.5432540597528219
1772697783625082400,4.349082275390625,0.9632251464471221,-0.23445377577990292,-0.6501233658879995
1772697783635130000,4.359130126953125,0.8389534546121954,-0.2249673143038526,-0.6554127044677734
1772697783645179400,4.369179443359375,0.5770557915896177,-0.12329367711562662,-0.6222457634031773
1772697783655227100,4.37922705078125,0.36120267138332124,-0.005311685125611257,-0.43516251834630965
1772697783665276400,4.3892763671875,0.2077335266366601,0.14611922037526964,-0.2605827810317278
1772697783675325200,4.3993251953125,-0.001339139649271965,0.20949593319930135,-0.14345453121066093
1772697783685373200,4.409373291015625,-0.22234160544276235,0.3022772388797253,-0.19036591998934746
1772697783695422200,4.419422119140625,-0.3895212956339121,0.4326793962936848,-0.29497371093332764
1772697783705470200,4.42947021484375,-0.44627427946925163,0.5429263256357982,-0.36049861476719375
1772697783715519200,4.439519287109375,-0.4693997189909219,0.5681128258731216,-0.4657587321400642
1772697783725568300,4.449568359375,-0.4962731128692627,0.5322749120336026,-0.6118178928911686
1772697783735616300,4.4596162109375,-0.5196566188052296,0.4906620680544525,-0.6986924587458372
1772697783745665300,4.469665283203125,-0.515325311602652,0.316549290664494,-0.6994733799904584
1772697783755713300,4.47971337890625,-0.41318858694732186,0.05390951317087747,-0.6714391256392002
1772697783765762000,4.489761962890625,-0.32818273757398125,-0.21563544060131534,-0.6209259129762649
1772697783775810300,4.499810302734375,-0.3730263801679015,-0.44587885041087866,-0.48304947415888305
1772697783785859000,4.509859130859375,-0.5874737252295017,-0.6254631180144846,-0.32977029902637
1772697783795908000,4.519908203125,-0.8510469202488661,-0.762865655709803,-0.2462859601318836
1772697783805956000,4.5299560546875,-1.1854422487273812,-0.8952874093178659,-0.24073884739875792
1772697783816005000,4.540005126953125,-1.6020061573266982,-0.9908795346353203,-0.24962124203443525
1772697783826053000,4.55005322265625,-1.8728379451721906,-1.0759015314258635,-0.2697925079256296
1772697783836102100,4.56010205078125,-2.03718328872025,-1.0776700024031103,-0.31839784114062786
1772697783846151200,4.570151123046875,-1.9404203660577535,-1.0686321249447763,-0.26603052504360675
1772697783856199200,4.58019921875,-1.427546539260447,-1.0143662086848169,-0.1507967106670141
1772697783866248200,4.590248291015625,-0.8531827632337808,-0.8618418705075979,-0.16352642838060855
1772697783876296200,4.600296142578125,-0.5219420993939041,-0.5922240615617483,-0.1609533630222082
1772697783886345200,4.61034521484375,-0.4274225717440247,-0.3093500998754054,-0.2032955441892147
1772697783896393200,4.620393310546875,-0.47372781132310626,-0.0915812091756612,-0.1741068591058254
1772697783906442500,4.6304423828125,-0.6616600744247436,0.017311163752339778,-0.0483808768093586
1772697783916491300,4.6404912109375,-0.931303821529448,0.04697088214727118,-0.05616846194565296
1772697783926539500,4.65053955078125,-1.2123203187808393,0.01556322410646826,-0.06458382359147072
1772697783936588300,4.66058837890625,-1.4915698063597083,-0.018058913379721344,-0.04694821365773678
1772697783946636500,4.670636474609375,-1.6808765726849435,-0.048752121274545784,-0.03341828547716141
1772697783956685300,4.680685302734375,-1.7693156113773583,-0.14660952464286237,0.017182605469226835
1772697783966733300,4.6907333984375,-1.7005790520206092,-0.27984168131835757,0.1161895076662302
1772697783976782300,4.7007822265625,-1.3289482178643346,-0.4008634679792449,0.552851324659586
1772697783986831400,4.710831298828125,-0.7725117281943559,-0.4522812282664701,1.4230103571355341
1772697783996879400,4.72087939453125,-0.5459332158342004,-0.3347428267419338,2.5729718348979946
1772697784006928400,4.730928466796875,-0.40706338206529613,-0.3603651976458728,3.648686173188686
1772697784016976400,4.740976318359375,-0.18876579131633042,-0.6741749803438782,4.0948277661889785
1772697784027025200,4.751025146484375,0.03563420796096325,-1.0478479878522455,3.666708736613393
1772697784037074400,4.761074462890625,0.1987806971132755,-1.2581377748429774,2.706612243580818
1772697784047122200,4.7711220703125,0.3562666762858629,-1.4602768424734471,1.4986100802600384
1772697784057171500,4.78117138671875,0.39469519114047286,-1.7168287605538963,0.13605623765289782
1772697784067219200,4.79121923828125,0.018543080167472362,-1.902298725195229,-1.064849245405197
1772697784077268500,4.8012685546875,-0.6825935568600893,-1.8495372952140867,-1.9896061295092105
1772697784087316200,4.811316162109375,-1.108385897053778,-1.6160438888989388,-2.1026666914999486
1772697784097365500,4.821365478515625,-0.9632502808883786,-1.3754115706145762,-1.4273124382436275
1772697784107414300,4.831414306640625,-0.6256918122038245,-0.9834336756087839,-0.18870178616940975
1772697784117462300,4.841462158203125,-0.34236703801006074,-0.48826793945953245,0.9038292468875646
1772697784127511300,4.85151123046875,-0.17454904991537332,0.057207814930751916,1.4719342547804117
1772697784137559300,4.861559326171875,-0.12524550530314446,0.5733868938185275,1.4838403811514376
1772697784147608300,4.8716083984375,-0.2287047107338905,1.0740917785901576,0.9436498006224632
1772697784157656300,4.88165625,-0.19463000717461107,1.364770057351887,0.14280337382555008
1772697784167705300,4.891705322265625,0.2020741857007146,1.4089163653314112,-0.5320931987911462
1772697784177754400,4.90175439453125,0.9354390216380357,1.2746749220155178,-0.7990104435414075
1772697784187802400,4.91180224609375,1.7748647699370979,1.002115287464112,-0.7612462378144264
1772697784197851400,4.921851318359375,2.419776538656652,0.6666720573678613,-0.44302199967503547
1772697784207899400,4.9318994140625,2.824307187373936,0.38158568032905454,-0.24861411081850526
1772697784217948400,4.941948486328125,2.9905487199321388,0.17002762696817517,-0.2379126840621233
1772697784227997200,4.9519970703125,2.7560025896936655,0.09828655203320086,-0.47352468996644015
1772697784238045200,4.962045166015625,2.4426100094944236,0.05670724499747157,-0.7112579258084297
1772697784248094200,4.97209423828125,2.369071602813899,0.04166004412174225,-0.8462509181439876
1772697784258142200,4.98214208984375,2.3596014714181424,0.004221928543969989,-0.7616513114839791
1772697784268191200,4.992191162109375,2.5412583075121042,-0.15985826126188038,-0.6159487090855836
1772697784278239200,5.0022392578125,2.692565305788815,-0.21135588185228407,-0.29723054994940756
1772697784288288300,5.012288330078125,2.507539577783644,-0.22116269785650072,0.18441607167422772
1772697784298337300,5.022337158203125,2.1088941877126692,-0.3548476763334125,0.5888964515089988
1772697784308385300,5.03238525390625,1.5296087373748422,-0.5915064878769218,0.8314929094731808
1772697784318434300,5.042434326171875,0.8964183861091732,-0.7588244174949824,1.0605401500344276
1772697784328482300,5.052482421875,0.3805982767269015,-0.83593293774724,1.2084124976873396
1772697784338531300,5.06253125,0.002911503532528877,-0.8982620412144809,1.2433756745189428
1772697784348580400,5.072580322265625,-0.32961393942087885,-0.8897580514371395,1.133039569056034
1772697784358628400,5.08262841796875,-0.6842372324138879,-0.8761356226675212,0.7800526450932025
1772697784368677400,5.092677490234375,-0.8643222891464829,-0.8633367852404713,0.2978437134116888
1772697784378725400,5.102725341796875,-0.8810957292929291,-0.6970165614228695,-0.010655249527096749
1772697784388774400,5.1127744140625,-0.7417910112380981,-0.5425864626895636,-0.2532745038449764
1772697784398822400,5.122822509765625,-0.34267157391458747,-0.33798414675071836,-0.4157932164877653
1772697784408871400,5.132871337890625,0.10351239692270756,-0.07382679516784846,-0.5567009858250618
1772697784418920200,5.142920166015625,0.21066315034776925,0.23579313462488352,-0.5228980849444866
1772697784428968400,5.152968505859375,-0.08215221350789069,0.4582807974748313,-0.40078970862329005
1772697784439017200,5.163017333984375,-0.310400412645936,0.6432154131304473,-0.344481545946002
1772697784449065500,5.1730654296875,-0.39930940693765876,0.7948286278121173,-0.303425312936306
1772697784459114200,5.1831142578125,-0.30006431207060813,0.9612941783845425,-0.36331659479737277
1772697784469163500,5.19316357421875,-0.13777210166007278,1.0900811556868255,-0.6681237174808978
1772697784479211300,5.203211181640625,0.1721814440011978,1.0472681421376764,-0.7388894445776939
1772697784489260500,5.213260498046875,0.22032851205468176,0.9142080906260758,-0.7051642851084471
1772697784499308300,5.223308349609375,0.19121289220750332,0.7640022585242986,-0.4991086285561323
1772697784509357600,5.233357666015625,0.12832710470557213,0.5807341878414154,-0.4212193331897259
1772697784519405300,5.2434052734375,0.159293905377388,0.385348905320093,-0.7490349910169839
1772697784529454300,5.253454345703125,0.017412322571873664,0.22769757951796055,-1.013766708421707
1772697784539503400,5.26350341796875,-0.16643617834746838,0.1947090637601912,-0.7234025371104479
1772697784549551400,5.27355126953125,-0.1924339584350586,0.07168729892112315,-0.5509422761678695
1772697784559600400,5.283600341796875,-0.16758885551393032,-0.10397942991256713,-0.18612170654833315
1772697784569648400,5.2936484375,-0.1988689599186182,-0.23066329745575784,0.19318974523842333
1772697784579697400,5.303697509765625,-0.18715952516347167,-0.4210036446124315,0.4638187039881944
1772697784589745400,5.313745361328125,-0.1926291887462139,-0.5715118937268853,0.5527279905408621
1772697784599794400,5.32379443359375,-0.4226987580925226,-0.6994483916796743,0.334846871638298
1772697784609843200,5.33384326171875,-0.6980702351942658,-0.7320299340717494,-0.034625323179364204
1772697784619891500,5.343891357421875,-0.8264753735721111,-0.7253647040288895,-0.36653029614686966
1772697784629940200,5.353940185546875,-0.8653086698353291,-0.6008204788628966,-0.6810030727982521
1772697784639988500,5.363988525390625,-0.870914819279313,-0.32908056319653983,-0.9213280786991119
1772697784650037200,5.374037353515625,-0.8848702793955803,-0.09014204321801662,-1.0837041680008173
1772697784660086300,5.384086181640625,-0.935847017917037,0.06424940400533377,-1.167814529839158
1772697784670134300,5.39413427734375,-0.971335972188413,0.14593831085041165,-1.0413339297831057
1772697784680183300,5.404183349609375,-0.913895882871747,0.1521845848288387,-0.9987491720318794
1772697784690231300,5.414231201171875,-0.6668593966335058,0.10215162996351718,-0.9245476252675056
1772697784700280300,5.4242802734375,-0.3510074405834079,-0.10915705174617468,-0.8391840484976768
1772697784710328300,5.434328369140625,-0.13033113800436258,-0.32190833347961306,-0.8533668876290321
1772697784720377300,5.44437744140625,-0.08847323322296143,-0.5552695647824555,-0.8417430853307246
1772697784730426400,5.45442626953125,-0.17182839277982712,-0.8232171024285256,-0.8575555714905262
1772697784740474000,5.46447412109375,-0.38571372004449367,-0.9736053784251213,-0.9148504071176051
1772697784750523400,5.4745234375,-0.6654921999335288,-1.1283726732235402,-0.8839853132545947
1772697784760571100,5.484571044921875,-0.9128916742652654,-1.25767147250548,-0.7779828530818224
1772697784770620400,5.494620361328125,-1.1641641906380653,-1.1380644845459609,-0.6585854892849922
1772697784780669400,5.50466943359375,-1.5072309013500809,-0.7097431373313069,-0.49282618728578087
1772697784790717400,5.514717529296875,-1.896793113516271,-0.17949951192960142,-0.3876215994924307
1772697784800766200,5.52476611328125,-2.1946318584918973,0.22690357959605753,-0.41090485992431636
1772697784810814500,5.534814453125,-2.4197414673432704,0.4577935984797776,-0.4648129757225513
1772697784820863200,5.54486328125,-2.5938915810689327,0.4482123348597437,-0.5114437939941883
1772697784830911500,5.554911376953125,-2.6954253713950513,0.27785233413204546,-0.5253764577567577
1772697784840960300,5.564960205078125,-2.687535202667117,0.09423946859948336,-0.46616205224394797
1772697784851009300,5.57500927734375,-2.6010978591859337,-0.0978885656915605,-0.4787345335692167
1772697784861057300,5.585057373046875,-2.445701545768976,-0.26585801802091297,-0.39872868444025517
1772697784871106300,5.595106201171875,-2.3401038670048115,-0.29709399102292955,-0.1661158603519201
1772697784881154300,5.605154296875,-2.180790964666009,-0.25191782853901384,0.12572422873079775
1772697784891203300,5.615203369140625,-1.9853905576407909,0.06916603681519627,0.8306459372550249
1772697784901251300,5.625251220703125,-2.089827083671093,0.5864891346389427,2.219026879557967
1772697784911299800,5.6352998046875,-2.390048339869082,1.2132204094257204,4.0668402735888955
1772697784921349000,5.64534912109375,-2.7559061435818673,2.016419171502441,5.458266574937105
1772697784931396900,5.65539697265625,-2.749379956683516,2.597677821609378,5.773362451922893
1772697784941446100,5.665446044921875,-1.7657012202724813,2.6365426820546385,4.569681074410677
1772697784951495000,5.675494873046875,-0.4685001398026943,2.3310044686175884,2.937491375744343
1772697784961543000,5.68554296875,0.09892331556677818,1.418258778694272,1.8755343446493147
1772697784971592000,5.695592041015625,-0.29432635294049975,0.2563601949006319,0.3819043908894062
1772697784981640000,5.705639892578125,-0.47687575396001336,-0.4776996375635266,-1.995429721096158
1772697784991689000,5.71568896484375,0.46309097423553464,-0.9133378105975687,-3.7595752363592383
1772697785001737000,5.725737060546875,1.8758420954242347,-0.7877000911064446,-3.8877509498953815
1772697785011786000,5.735785888671875,2.9763340243577954,-0.43771545423213387,-2.209160734581947
1772697785021834800,5.745834716796875,3.2967847063750026,0.18944058530535549,0.030989597025513647
1772697785031883000,5.755883056640625,3.0172254221946,0.6125362702935934,1.713317829823494
1772697785041931800,5.765931884765625,2.3412843089610336,0.28365842659492047,2.735937122264504
1772697785051980000,5.77597998046875,1.935777508687973,-0.3193907977007329,2.9134143345862626
1772697785062028800,5.78602880859375,1.9516966700926421,-0.7271955727178603,2.2482482978671787
1772697785072078000,5.796078125,2.4010236151307818,-0.8796214189566671,0.8322428510576486
1772697785082125800,5.806125732421875,2.8524425640121103,-0.9866761646613478,-0.2929191164910793
1772697785092175000,5.816175048828125,3.1126573885142803,-1.0328729023646563,-0.9561153144419192
1772697785102222800,5.826222900390625,3.143946845269203,-1.1236286205016075,-1.0461626651138067
1772697785112272100,5.836272216796875,3.001371434980631,-1.1923383649166672,-0.6691951461046933
1772697785122320000,5.84631982421875,2.7842227220058438,-1.1113562181014567,-0.3228191647142172
1772697785132369200,5.856369140625,2.4829393895342946,-1.0099539452005177,-0.11008534557223319
1772697785142418000,5.86641796875,2.158677917057276,-0.8253428624108433,0.18761574449837207
1772697785152466200,5.876466064453125,1.8749299490153788,-0.4974378457996994,0.6004471885710955
1772697785162515000,5.886514892578125,1.594457057121396,-0.09015009866030886,1.0897831956535577
1772697785172563200,5.896563232421875,1.386159759122133,0.3389628190571442,1.3550152637958526
1772697785182612000,5.906612060546875,1.2601675271049142,0.7981392867300658,1.3508306715875864
1772697785192661000,5.916660888671875,1.1062032923176883,1.1597934282079339,1.1515560534775255
1772697785202709000,5.926708984375,1.0377677617341279,1.501304872301966,0.7271177582412958
1772697785212758000,5.936758056640625,0.9985580333739519,1.8552499737724661,0.3151607589155435
1772697785222806000,5.946805908203125,0.7948977475255727,2.1661852239474655,0.012283142989873885
1772697785232854800,5.956854736328125,0.3277659734666347,2.2895529526799914,-0.312336349144578
1772697785242903000,5.966903076171875,-0.20596534792035817,2.1819899651922285,-0.6357248381793499
1772697785252951800,5.976951904296875,-0.5795049383074045,1.8959344508603213,-0.9778583596944809
1772697785263001000,5.9870009765625,-0.44776188767850394,1.385974611813575,-1.1621616186439991
1772697785273048800,5.997048828125,0.024265841728448867,0.7974334034830332,-1.1179857923090457
1772697785283097900,6.007097900390625,0.3066664868146181,0.335830073989369,-0.8216524834603071
1772697785293145900,6.017145751953125,0.4390981042295694,0.07120550675354897,-0.3439934701681137
1772697785303195000,6.02719482421875,0.5509621499121189,-0.12568024345859885,0.04126256923675537
1772697785313244000,6.037243896484375,0.7384761876016854,-0.2527262588450685,0.23508184455037115
1772697785323292000,6.0472919921875,0.8771531291469931,-0.3647168900493532,0.27208266468942166
1772697785333341000,6.0573408203125,0.7099918513953686,-0.45127829830162225,0.21681261288821696
1772697785343389000,6.067388916015625,0.48412090278267855,-0.4813553835920989,0.020094109001755713
1772697785353438000,6.07743798828125,0.32788170880079265,-0.41122072094045575,-0.2925011833399534
1772697785363486000,6.08748583984375,0.27486820375472304,-0.23117490023970602,-0.5688923588782548
1772697785373535000,6.097534912109375,0.29652912368178364,-0.024898184815235435,-0.6177355925023555
1772697785383584000,6.107583984375,0.3415186044871807,0.16955295866113154,-0.5619850637078285
1772697785393632000,6.117632080078125,0.3461950718656182,0.28445706615932287,-0.3857628198832273
1772697785403681000,6.127680908203125,0.2458557520210743,0.4290872170206159,-0.19924539201557634
1772697785413729000,6.13772900390625,0.057764206704497334,0.5460965897023677,-0.15155366651415825
1772697785423778000,6.147778076171875,-0.2269061368793249,0.5799080026829615,-0.22110066547095775
1772697785433826800,6.157826904296875,-0.5380573678925633,0.5309929824642837,-0.2794721904188394
1772697785443875000,6.167875,-0.8005775467276572,0.3929882776247337,-0.39336511158049103
1772697785453923800,6.177923828125,-0.9954863708436489,0.2536045029843226,-0.4844768766134977
1772697785463971800,6.187971923828125,-1.1148393109768628,0.1099317807120271,-0.47383448656797406
1772697785474020900,6.198020751953125,-1.0935486856669188,-0.023142134928144514,-0.46713878832161426
1772697785484068900,6.20806884765625,-1.0303361504286528,-0.07497112463107332,-0.44962300537526606
1772697785494118000,6.218117919921875,-0.9062240330696105,-0.12383819578848779,-0.42426469223499297
1772697785504167000,6.2281669921875,-0.7929021897941827,-0.1344667217054404,-0.42008594524562354
1772697785514215000,6.23821484375,-0.779257403062284,-0.160213705369737,-0.41237084082365033
1772697785524264000,6.248263916015625,-0.7602592726036905,-0.15398348747696727,-0.3435147467404604
1772697785534312000,6.25831201171875,-0.8978390665620565,-0.09614748504473827,-0.3374953403204679
1772697785544361000,6.26836083984375,-1.2145838797986506,-0.0007840995823964476,-0.3513333115369081
1772697785554410000,6.278409912109375,-1.3276795131027699,0.03931103331018239,-0.3238537684589624
1772697785564458000,6.2884580078125,-1.2373261652216314,0.09631817456968128,-0.3369382909595966
1772697785574507000,6.298507080078125,-1.10268476280272,0.1611028362291865,-0.3100812636941671
1772697785584555000,6.308554931640625,-0.9965759196460247,0.18389031250076368,-0.33921617276370525
1772697785594604000,6.31860400390625,-0.8612322141766547,0.12371603071354328,-0.3533978428512811
1772697785604652000,6.328652099609375,-0.6854936622157692,0.03820530969114043,-0.3542325401097536
1772697785614701000,6.338701171875,-0.5235156323209404,-0.07105474577178247,-0.3184972098618746
1772697785624749800,6.348749755859375,-0.41982144909054037,-0.19674301727320997,-0.2989589811772108
1772697785634798000,6.358798095703125,-0.2891471967369318,-0.3638470484122634,-0.322549115601182
1772697785644846800,6.368846923828125,-0.17773644777983427,-0.5402131576869637,-0.2729302214294672
1772697785654895000,6.37889501953125,-0.1623129609376192,-0.7392286864694207,-0.2943739914745092
1772697785664943900,6.38894384765625,-0.29671266355514525,-0.920458894649148,-0.2831289593607187
1772697785674993200,6.3989931640625,-0.599584434261918,-1.094177412024513,-0.24309563965797423
1772697785685041000,6.409041015625,-0.8770473306849599,-1.2079461953498423,-0.2424994273304939
1772697785695090200,6.419090087890625,-1.0953189102098344,-1.2880986133426426,-0.24865152021944523
1772697785705138000,6.429137939453125,-1.2775316266208887,-1.3148106791794298,-0.3449643610268831
1772697785715187200,6.439187255859375,-1.3389794902741907,-1.2880473215468227,-0.5004372468113899
1772697785725236000,6.449236083984375,-1.36993080111593,-1.2383994935415685,-0.6321113238573074
1772697785735284000,6.459283935546875,-1.378297062923014,-1.1038893893521278,-0.7436877847701311
1772697785745333000,6.4693330078125,-1.3525927128240465,-0.9637361647091806,-0.7237965048640966
1772697785755381000,6.479381103515625,-1.3651666554540396,-0.8617607680954038,-0.6983300551742315
1772697785765430000,6.489429931640625,-1.4412392567873,-0.7915690414942801,-0.5812497361481189
1772697785775477800,6.499477783203125,-1.448468331257999,-0.7819459114938974,-0.33350539390146733
1772697785785527000,6.509527099609375,-1.4103504897877572,-0.6420486343733965,-0.04244388797581196
1772697785795575800,6.519575927734375,-1.1977210078030824,-0.5141215618360787,0.7249848378658295
1772697785805624000,6.5296240234375,-0.8703110081672668,-0.20774138114955276,1.8227461727917194
1772697785815672800,6.5396728515625,-0.7090054707065224,0.21923925551325082,2.9231045384734866
1772697785825721000,6.54972119140625,-0.5138935252338648,0.552608748075366,3.8637487275391815
1772697785835769900,6.559769775390625,-0.1229559330612421,0.673567369839549,5.244156791266799
1772697785845819000,6.56981884765625,0.38142508293986316,0.8361092441622168,5.661782483878731
1772697785855867000,6.579866943359375,1.0119891773551701,0.9924966875083744,4.92066893351078
1772697785865916000,6.589916015625,1.5255577084183691,1.141908665818721,3.2885715893030163
1772697785875964000,6.5999638671875,1.6321651487469673,1.0249254504915326,1.4755015918731689
1772697785886013000,6.610012939453125,1.2631971040591596,0.8119516120485961,-0.08798983362019061
1772697785896061000,6.62006103515625,0.9339368003815411,0.29313875059112904,-0.6774602856248617
1772697785906110000,6.63010986328125,0.9783698163479566,-0.2880975415535271,-0.36813773134350775
1772697785916159200,6.6401591796875,1.516274039505422,-0.5677749722208827,0.07308569447696209
1772697785926207000,6.65020703125,2.1644161684483287,-0.5312964954555034,0.4040285444140434
1772697785936256300,6.66025634765625,2.444310968193412,-0.1330309715475887,0.5531617057830095
1772697785946304000,6.670303955078125,2.600418937011063,0.3224477010533213,0.6222802501946687
1772697785956353300,6.680353271484375,2.719390768872201,0.5008803144037723,0.4304799134880304
1772697785966402000,6.690402099609375,2.8249960464209316,0.6076205873318016,-0.27088439481556414
1772697785976450300,6.7004501953125,2.985693681116402,0.6524711711231619,-0.9271563464611768
1772697785986499000,6.7104990234375,3.178726774488389,0.7107215539094061,-1.5176678319513797
1772697785996547300,6.72054736328125,3.218798964896798,0.9029814709518105,-1.9198755906790494
1772697786006596000,6.73059619140625,2.8459195919841527,0.986299513368681,-1.8667168319433927
1772697786016644400,6.740644287109375,1.8788097130581736,1.0998239665441214,-0.8023235136121512
1772697786026693000,6.750693115234375,-1.1896803246885537,1.8297683265134692,3.920238676524162
1772697786036742100,6.7607421875,-1.5676310095161199,2.0628644040741024,2.527425889253616
1772697786046790100,6.7707900390625,0.2797852018907666,1.060641126190871,0.44056116251945493
1772697786056839200,6.780839111328125,0.9136921769931912,0.9864943783536553,0.6066764383494854
1772697786066887200,6.79088720703125,2.311872628776729,0.5754891998600214,-0.9283189604997635
1772697786076936000,6.80093603515625,2.486427816171944,0.2809776265457272,-1.4539467626690863
1772697786086985200,6.810985107421875,1.2015385202646254,0.12606215544827282,-1.0609697736233472
1772697786097033000,6.821032958984375,-0.1772080399915576,0.23030615458115933,-0.16260814449191094
1772697786107082200,6.831082275390625,-0.2712391996026039,0.3330132995355874,0.42444647854268547
1772697786117130000,6.8411298828125,0.08901333144903183,0.32036037338525053,0.5327823500990867
1772697786127179300,6.85117919921875,0.16232932755053042,0.26037388752140106,0.40508009929358957
1772697786137227000,6.86122705078125,0.2272685404509306,0.051142961933836335,0.08655892403423786
1772697786147276300,6.8712763671875,0.33947219335138795,-0.24501389436945317,-0.2367658521145582
1772697786157325000,6.881324951171875,0.12585779198259114,-0.20266316456981,-0.46432431542277336
1772697786167373000,6.891373046875,-0.031873101861774916,-0.21653058107644318,-0.5914905596554278
1772697786177422000,6.901422119140625,-0.21618016020357608,-0.409103582656011,-0.5133545960515737
1772697786187470000,6.911469970703125,-0.7074538573503494,-0.3866024125125259,-0.3940162689656019
1772697786197519000,6.92151904296875,-1.4948177022397517,0.23622158917002378,0.22178397156000135
1772697786207568100,6.931568115234375,-1.66987031776309,0.8186239294193685,0.6031856736242771
1772697786217616100,6.9416162109375,-1.8765508282154797,1.1622743583034723,0.7021060665816068
1772697786227665200,6.9516650390625,-2.212211938846111,1.275768416340649,0.7927876235038042
1772697786237713200,6.961713134765625,-2.3156220444381237,1.367499190054834,0.9703729723751544
1772697786247762200,6.97176220703125,-2.29309924698472,1.5877729031823575,1.088253501868248
1772697786257810200,6.98181005859375,-2.1146219177097083,1.8191998784869907,1.211597557464242
1772697786267859200,6.991859130859375,-1.5079694447577,1.8557364421151576,1.43036656511724
1772697786277908000,7.001907958984375,-0.7285469142615795,1.9355153506204485,1.6059563562572001
1772697786287956200,7.011956298828125,0.10848492463827132,1.9627800819039343,1.210144436046481
1772697786298005000,7.0220048828125,0.9736521401762962,1.6242629973202942,0.7004734969437122
1772697786308053000,7.032052978515625,1.9895032536566257,1.1587751910760997,0.5160094944745302
1772697786318102000,7.04210205078125,3.074180650603771,0.560240631193295,0.49157998661696906
1772697786328151300,7.0521513671875,3.813495042595267,-0.18894867360256612,-0.1957709939032793
1772697786338199000,7.062198974609375,3.8936370853245257,-0.7354610775642096,0.6202747555911541
1772697786348248300,7.072248291015625,3.3226427857309577,0.07569587697535753,2.4222382525950668
1772697786358296000,7.082296142578125,1.7256746225714683,0.19853855892047284,2.588268188229203
1772697786368345000,7.092344970703125,0.5127063612759113,0.21986878558844328,1.0779086334645747
1772697786378393000,7.10239306640625,0.19087445403337477,0.7410510065257548,-0.1517944895327091
1772697786388442000,7.112442138671875,0.1571194839477539,1.4830058300234377,-0.9730974289029836
1772697786398491100,7.1224912109375,0.21557868717908857,2.469178282946348,-1.776347409710288
1772697786408539100,7.1325390625,0.19582476991713046,3.2089228830486536,-2.3228788836985825
1772697786418588200,7.142588134765625,-0.18829437441229818,2.967837998691201,-2.2322896812349557
1772697786428636200,7.15263623046875,-0.16191957770586013,1.7848250229373572,-1.4995359629333018
1772697786438685200,7.162685302734375,0.2240688676267862,0.6988333285212517,-0.8636182325303554
1772697786448734000,7.17273388671875,1.1105734702259302,0.18540289075449107,-1.4512170454442501
1772697786458782200,7.1827822265625,2.4646587596952916,-0.6222700210615992,-2.2896540749669074
1772697786468831000,7.1928310546875,3.2364275605678556,0.039445144551247355,-2.063178146198392
1772697786478879200,7.202879150390625,2.66468273486793,0.10008271473497152,-1.0302847125023602
1772697786488928000,7.212927978515625,2.1613228786081073,0.3321254838503897,-0.3645850072979927
1772697786498976300,7.222976318359375,1.6027958463996648,0.6010869477793575,0.28920447988212106
1772697786509025000,7.23302490234375,1.3618150069385766,0.4963825645931065,0.25151275486946106
1772697786519074300,7.24307421875,0.7124772384703159,0.1774848111063242,0.1311731417864561
1772697786529122000,7.2531220703125,0.0009410802423954009,0.07956687318980693,-0.049154783791303634
1772697786539171300,7.26317138671875,-0.4584732513070106,-0.05616729290187358,0.5146405442088842
1772697786549219000,7.273218994140625,-1.094116840943694,-0.11575623081550002,1.3352128312170504
1772697786559268400,7.283268310546875,-0.9400988301426172,0.4852443538546562,1.6925281397730112
1772697786569317000,7.293317138671875,-0.7953858233034611,0.9796833831645547,1.8656389735788106
1772697786579365000,7.303365234375,-0.1419739372640848,0.6479262211699038,1.798314911368489
1772697786589414100,7.3134140625,0.3506780624985695,0.4978145701576024,1.6130840161800384
1772697786599462100,7.323462158203125,0.15008943918049333,0.7554326561648398,1.4375924247175453
1772697786609511200,7.33351123046875,-0.1637514693081379,0.45230113854333753,0.6776420719325542
1772697786619559200,7.34355908203125,-0.62045011215806,0.0878041017897427,0.1181020632892847
1772697786629608200,7.353608154296875,-0.7056453466236591,0.1761758473996073,-0.2907897032469511
1772697786639657000,7.363656982421875,0.23056407486498354,0.46868996328637,-0.23750819491446018
1772697786649705200,7.373705322265625,1.158062366631627,0.15972966644614933,-0.013875380617380141
1772697786659754000,7.38375390625,1.0502326910316944,-0.006264394157007336,0.18167524853348732
1772697786669802200,7.39380224609375,0.5961246491968631,0.03818425776995718,-0.30013211660981176
1772697786679851000,7.40385107421875,0.4594751218259334,0.013298092186078428,-0.5526712919175625
1772697786689900000,7.413900146484375,0.4195791647672653,-0.1500761778401211,-0.11119009194374084
1772697786699948000,7.423947998046875,0.44041737013459203,-0.34296427325084805,0.37606677077710626
1772697786709997000,7.4339970703125,0.6272264744251966,-0.6207118318341672,0.637149318024516
1772697786720045000,7.444045166015625,0.3189706725925207,-0.9855511061541735,1.8220552679181097
1772697786730094000,7.454093994140625,0.516727871876955,-1.0426324451610445,1.2316770534187556
1772697786740143000,7.46414306640625,0.2656090847611427,-0.8504236737839878,0.5121937355786562
1772697786750191000,7.474191162109375,-0.09786533094644546,-0.26527733205612747,0.5276105004191398
1772697786760240000,7.484240234375,-0.47732992746829983,0.4888739059960469,0.774783180257678
1772697786770288000,7.4942880859375,-0.5506792413175106,1.1247061135400085,0.8686901289671659
1772697786780337200,7.504337158203125,-0.6605939064979552,1.2355137089721857,1.1244494353652
1772697786790385000,7.514385009765625,-0.5274252069801092,1.0823266691025346,1.6368080061167478
1772697786800434200,7.52443408203125,-0.23678572585880756,0.962968322141841,1.6687369298189878
1772697786810483200,7.534483154296875,-0.18075871821045875,0.5091317907247692,1.4315888003885746
1772697786820531200,7.54453125,-0.4563555285006761,0.3235140881758183,1.422749660372734
1772697786830580200,7.554580322265625,-0.5733540144622326,0.22632607196904717,1.0432347949683665
1772697786840628200,7.564628173828125,-0.6068979721456765,0.2884978659827262,0.6189084356740117
1772697786850677000,7.574677001953125,-0.5076391410142183,0.4764745892805978,0.2910813796699047
1772697786860726000,7.58472607421875,-0.38450259068906306,0.37931861217990515,0.4610153370052576
1772697786870774000,7.59477392578125,-0.20547697988152502,0.04791117693837732,0.4498848711818456
1772697786880823000,7.604822998046875,-0.046778117787837976,-0.2519562608532607,0.15953618970066308
1772697786890871000,7.61487109375,-0.23459084616303444,-0.249894250289537,-0.5290539772257209
1772697786900920000,7.624920166015625,-0.42294075015485283,-0.41124293277226387,0.18167963244765997
1772697786910967800,7.6349677734375,-0.42841713573932644,-0.4633463372360915,-0.06002250702530145
1772697786921016600,7.6450166015625,-0.021514497193694113,-0.3776831929977983,-0.6145595928147435
1772697786931065900,7.65506591796875,0.4684124615192413,-0.09254946968592703,-1.1326672286123036
1772697786941113600,7.665113525390625,0.5178992537438869,-0.39065789844840765,-0.5499596948713064
1772697786951163000,7.675162841796875,0.7995446965485811,-0.780741796401143,-0.10228197834491728
1772697786961210600,7.685210693359375,0.6994856549501418,-0.3480365350138396,0.4864107672855258
1772697786971260000,7.695260009765625,0.9647902038067578,0.14524433723688124,0.7583531467214226
1772697786981308700,7.70530859375,1.2166525027662516,0.13459580971151588,-0.2221791083574295
1772697786991357000,7.71535693359375,1.122351001781225,0.15680318454019723,-0.4567895360037684
1772697787001405700,7.72540576171875,0.5575783531814813,-0.12919365840703248,-0.36321518024951216
1772697787011454000,7.735453857421875,0.017122984236478806,-0.0044415626440197226,-0.4637891856327653
1772697787021502700,7.745502685546875,-0.41934535601139067,0.019352935245633123,-0.4503294000789523
1772697787031550700,7.75555078125,-1.1521803228557108,-0.17063735636435448,-0.7528136327728628
1772697787041599700,7.765599853515625,-0.7884569008231163,-0.1860018795609474,-0.2887012065351009
1772697787051648800,7.775648681640625,-0.6063222180843353,-0.42063678406141697,0.1591784623041749
1772697787061696800,7.78569677734375,-0.345264805278182,-0.44833369621708985,0.35891193009763955
1772697787071745500,7.79574560546875,0.08573182556033133,-0.6969177041582763,1.830035160756111
1772697787081793800,7.805793701171875,0.4160615120351314,-0.25892799956202506,-0.28044395806044337
1772697787091842600,7.815842529296875,0.34434476782381535,0.39602103291675445,-1.7254951743513345
1772697787101891800,7.825891845703125,0.24537352146208286,-0.34553631569594145,-0.02104746420383453
1772697787111939600,7.835939697265625,0.6946826385825872,-0.04071852548792958,-0.573043633338809
1772697787121988900,7.84598876953125,0.5279378326773643,-0.4091128619410097,0.6222679752349853
1772697787132036600,7.85603662109375,0.7520563846647739,-0.7297702455114573,0.6614724428981542
1772697787142086000,7.8660859375,0.6555564968526363,0.6208747673109173,-1.8843354907423258
1772697787152134700,7.876134765625,0.12085633043348788,0.6770624454136938,-1.5815987445920705
1772697787162183000,7.886182861328125,0.06991115609407425,-0.27800642871521414,0.10105389785468578
1772697787172231700,7.896231689453125,0.3011123598188162,-0.01144647297002375,0.7400292622625827
1772697787182280000,7.906280029296875,0.5800029509574175,0.4736145602069795,0.9359037165403365
1772697787192328700,7.91632861328125,0.32330840953588486,0.3662633888389915,0.7014701067656278
1772697787202377700,7.926377685546875,0.1224286943167448,0.11770531905665993,0.6005588322520256
1772697787212425700,7.93642578125,-0.0386076708137989,0.3992671752311289,0.49114101067781446
1772697787222474800,7.946474853515625,-0.4748182369083166,0.7414340875592083,0.16318974377214907
1772697787232522800,7.956522705078125,-0.8432119888395071,0.4902507107745856,0.07398352009952068
1772697787242571800,7.96657177734375,-0.9515116200387478,0.09410473630391061,0.18930325919389723
1772697787252619800,7.976619873046875,-0.7323276018440723,-0.10622435929514468,0.11702946562170982
1772697787262668800,7.986668701171875,-0.5867138467729092,-0.22926344059519468,0.18480127159953116
1772697787272717800,7.9967177734375,0.045183542072772975,-0.7888044721517712,0.5921387944310903
1772697787282765800,8.006765869140626,0.9109855483829975,-0.27815460501424966,-0.6112962071046233
1772697787292814800,8.01681494140625,0.659628276336193,0.18599391545020041,0.5271674328267574
1772697787302862600,8.026862548828126,0.598624064797163,-0.6509768409121781,0.17663725436627864
1772697787312912000,8.036911865234375,0.9338274947881698,-0.742504566334933,0.7032996602803468
1772697787322961000,8.0469609375,1.0156272415965795,-0.30370814846567806,0.6863432647824287
1772697787333008600,8.057008544921874,0.9941799644201993,-0.3090964539078995,1.390621414706111
1772697787343057700,8.0670576171875,1.0338064568877219,-0.1921633248001337,0.3798170632213354
1772697787353105700,8.077105712890624,0.27963293393850325,0.1638502535074949,-0.5528694448381662
1772697787363154700,8.08715478515625,0.16152151829898356,-0.07632851232308895,-0.41071956648528574
1772697787373203700,8.09720361328125,0.490052630919218,-0.6305027926821262,0.09268179082870483
1772697787383251700,8.107251708984375,0.0315799641340971,-0.29266952564418314,1.0003449167907237
1772697787393300700,8.11730078125,0.5300093782544135,0.6091257311977446,0.6932318552523851
1772697787403348700,8.1273486328125,1.625268959492445,0.9418500577241182,0.29665070423483847
1772697787413397800,8.137397705078126,2.1564742695331574,1.376348266942799,-0.21910043156445025
1772697787423445800,8.14744580078125,1.9865473264604805,1.8525693563863634,-0.24944004024863242
1772697787433494800,8.157494873046875,0.6654822630614042,1.8070177116535604,0.9972229853779077
1772697787443543600,8.16754345703125,0.21337971583008766,1.4155280385561286,1.0500275238484145
1772697787453591800,8.177591796875,0.4122703030586242,0.9941524188261479,1.2748492556691169
1772697787463640600,8.187640625,0.10038403576910496,0.7831867053352296,1.7612392724275587
1772697787473688800,8.197688720703125,-0.2900742484539747,0.8223309672437608,1.7896715861856936
1772697787483737600,8.207737548828124,-0.19808979223966597,0.8109718072310089,1.270188278120756
1772697787493787000,8.217786865234375,-0.14276947155594824,0.8096356632564217,0.775654117873311
1772697787503834600,8.227834716796876,-0.19676994181275367,0.9269776288934052,0.49848728178739543
1772697787513884000,8.2378837890625,-0.37287703482508655,0.7530670960772782,0.5507148971527814
1772697787523931600,8.247931640625,-0.1890881551384926,0.5401772826559841,0.4254734835028648
1772697787533981000,8.25798095703125,-0.117875853317976,0.696079938159883,0.24858079307079314
1772697787544029700,8.26802978515625,-0.1771224075347185,0.7079677251566201,-0.003298457023501396
1772697787554078000,8.278077880859374,-0.26921967647373674,0.4218879531662911,-0.005932312658429146
1772697787564126700,8.288126708984375,-0.17130466116666793,0.1465113523648586,0.0586632013708353
1772697787574174700,8.2981748046875,0.02018529441654682,0.1622232002949342,0.018016133683919907
1772697787584223700,8.3082236328125,-0.016048048481345174,0.00587239916473627,-0.1743167024642229
1772697787594271700,8.318271728515626,-0.12049860303699969,-0.08547587803788483,-0.24349837523996828
1772697787604320800,8.32832080078125,-0.4546966553777456,-0.29973508011624217,-0.2328711827635765
1772697787614369800,8.338369873046876,-0.9236158973753452,-0.5650441224848851,-0.37830198248326774
1772697787624417800,8.348417724609375,-1.243960780930519,-0.6351827671919018,-0.5305372015208005
1772697787634466600,8.358466552734376,-1.1690735899895428,-0.8395516397010534,-0.45119010856151576
1772697787644514800,8.368514892578125,-0.9558797521203756,-0.8986071283251047,-0.3111410018801689
1772697787654563600,8.3785634765625,-0.7629401822507381,-1.0033630955681203,-0.32248306462764736
1772697787664612900,8.38861279296875,-0.5737199251651763,-0.6067953154888004,-0.431720853459835
1772697787674660600,8.39866064453125,-1.2380986108988523,-0.5565550745483487,-0.6106032564043998
1772697787684710000,8.4087099609375,-0.9789140062272548,-0.4516344182629138,-0.43886955617070195
1772697787694757600,8.418757568359375,-0.6487140836119651,-0.4807859131410718,-0.297125336009264
1772697787704807000,8.428806884765624,-0.5574293000996112,-0.8490235246624797,-0.3570037583887577
1772697787714855700,8.438855712890625,-0.6236842717736959,-0.6409847314689308,-0.34320670370459555
1772697787724904000,8.448904052734376,-0.4323790251076221,-0.5082613645657896,-0.2239215681105852
1772697787734952700,8.45895263671875,-0.14646131181120872,-0.7438480168331414,-0.038624621948599815
1772697787745001000,8.4690009765625,-0.0018704700469970702,-0.907013356816396,0.14557050045132636
1772697787755049700,8.4790498046875,-0.18666472738385198,-0.5537297149293124,0.2670779882699251
1772697787765098000,8.489097900390625,-0.6009656594872474,-0.36999146945141254,-0.10402852975130081
1772697787775146800,8.499146728515624,-0.9106009329795837,-0.44973983668796713,-0.3054980275571346
1772697787785195800,8.50919580078125,-0.7828168491095304,-0.5722530674830079,-0.38267537526190276
1772697787795243800,8.519243896484374,-0.641774639737606,-0.36352227343730625,-0.40601942597031593
1772697787805292800,8.529292724609375,-0.6714438018143176,-0.40010055731534955,-0.3872095115602016
1772697787815340800,8.5393408203125,-0.5391396101713181,-0.522466415528953,-0.5162573317557573
1772697787825389800,8.549389892578125,-0.38911739100813864,-0.3449726904638111,-0.6082739366739988
1772697787835438800,8.55943896484375,-0.5201859033763409,0.039837797130644316,-0.3803431329220533
1772697787845486600,8.569486572265625,-0.09603694647550583,0.5145401525743305,-0.38504619604647156
1772697787855535900,8.579535888671876,0.4991314249098301,0.8635641642555594,-0.687351565042138
1772697787865583600,8.58958349609375,1.2426222258031367,0.4622102458782494,-1.0099088639497755
1772697787875632600,8.599632568359375,1.7367226708084345,0.29105887557715177,-1.2475655274242161
1772697787885680600,8.6096806640625,1.0795616613686083,0.9330246539726853,-1.3039765659540892
1772697787895729700,8.619729736328125,0.26825755344331265,0.8327820725008844,-0.0951139864116907
1772697787905779500,8.629779541015624,-0.04445172066688537,0.26270371870845555,1.1043009658277034
1772697787915827200,8.6398271484375,-0.24690847594439982,0.6153472360610962,1.6036337585285305
1772697787925876200,8.649876220703124,-1.0796826573997735,1.3443331262618303,1.8977242568865418
1772697787935924200,8.65992431640625,-1.2515899606347083,1.199840191914141,1.4630547827541827
1772697787945973200,8.66997314453125,-0.6523632537692785,1.5849857566818595,0.434781410074234
1772697787956022300,8.680022216796875,-0.24493688361048696,2.9558409791663287,-0.4127259378716349
1772697787966070300,8.6900703125,0.1087608189702034,3.5774148346573114,-0.13575813148915766
1772697787976119300,8.700119384765625,0.4868079499095678,3.7502655562222,0.12234510768651961
1772697787986167300,8.710167236328125,0.8413888650655746,3.130361387509107,0.08398410511016845
1772697787996216300,8.72021630859375,1.0141606761753559,1.9306869075506925,0.44357963355779645
1772697788006265000,8.73026513671875,1.68424955624938,1.2053268066316842,0.5154010071873665
1772697788016313300,8.740313232421874,2.620890939414501,0.7925947312802076,0.28961130711734295
1772697788026362000,8.750362060546875,3.148288673865795,0.8195581415295601,0.17078911285996437
1772697788036410400,8.760410400390626,2.954792639157176,1.4125129285186528,0.1240536651700735
1772697788046459100,8.770459228515625,2.6458301503598687,1.7942232581406832,0.13598960215747355
1772697788056507400,8.78050732421875,2.4678981800079343,2.6102327672779557,-0.15003390960097313
1772697788066556200,8.79055615234375,2.336613979062438,3.1242846979439256,-0.11261632535457611
1772697788076605400,8.80060546875,2.1014076313495633,2.9252795444250106,0.08456804247796534
1772697788086653200,8.810653076171874,1.838789545097947,2.5854449475020167,0.2590186004549265
1772697788096702500,8.820702392578125,1.3284972592264412,2.68976749176383,0.25370763456523415
1772697788106750200,8.830750244140624,0.6365566128283738,2.834180638873577,0.2359375845968723
1772697788116799200,8.84079931640625,0.1316530342578888,2.669146144017577,0.41338264821469783
1772697788126848300,8.85084814453125,0.4846992871925235,2.703184022697806,0.9619687166452408
1772697788136896300,8.860896240234375,1.751991843871772,3.0756939777761696,0.980532547339797
1772697788146945300,8.8709453125,2.3958827451109883,2.926211272317171,0.21783961784839628
1772697788156993000,8.880992919921875,2.476638535824418,2.2931933550089596,-0.4534147988736629
1772697788167042300,8.891042236328126,2.3165660472899674,1.8846137231618165,-0.7255196753948927
1772697788177090000,8.901090087890625,1.714947769112885,1.931495301324129,-0.7846358812302351
1772697788187139300,8.911139404296875,1.0966145029783247,1.703628794980049,-0.2836515219300985
1772697788197188000,8.92118798828125,0.6796060654819012,1.0323416450321674,1.0749515372246503
1772697788207236400,8.931236328125,0.25274434249103067,0.08659165726006031,2.9438644179075957
1772697788217285000,8.94128515625,-0.3065747168779373,-0.4250117112100124,4.162591388860345
1772697788227333400,8.95133349609375,-1.005710973868519,-0.48692777689695355,4.221187954735756
1772697788237382100,8.961382080078126,-1.544270446064323,-0.54087037948668,3.478133207172155
1772697788247431200,8.97143115234375,-1.6886616736032067,-0.7046820545494556,2.60401462341547
1772697788257479200,8.981479248046876,-1.762497748056054,-0.7710983542650938,1.6049936487048864
1772697788267528200,8.991528076171875,-2.2089713494896888,-0.8887886218830943,0.4439040432065725
1772697788277576200,9.001576171875,-2.428044308525324,-0.7797077771782874,-0.4963596221089363
1772697788287625200,9.011625244140625,-2.5325018773436545,-0.3842544611468911,-0.9817390005201101
1772697788297674200,9.02167431640625,-2.760699223077297,-0.1511632058918476,-1.2740338476330042
1772697788307722200,9.03172216796875,-3.015892127764225,-0.43437458283901215,-1.5452257009625434
1772697788317771300,9.041771240234375,-3.341335211241245,-0.3000780483350158,-1.7506763773590326
1772697788327819300,9.0518193359375,-2.9324785160183904,0.17250585364997387,-1.9677333203971386
1772697788337868300,9.061868408203125,-1.9611001659929752,0.03971533979475498,-1.7550643831849098
1772697788347916300,9.071916259765626,-1.9508827233612536,-0.21246143194139003,-0.1301794545739889
1772697788357965300,9.08196533203125,-2.0314006136655807,-0.5236851436689496,0.6171142457336187
1772697788368014300,9.092014404296876,-2.1905691390976307,-0.6744193104937672,0.37662908083498475
1772697788378062300,9.102062255859375,-2.5007705220401286,-0.8844707586839795,-0.20746084717512128
1772697788388111400,9.112111328125,-2.815177832239866,-1.2879422537371517,-0.6407382824271917
1772697788398159400,9.122159423828125,-2.9111840913161635,-1.2307657837927342,-0.8460644556611776
1772697788408208100,9.1322080078125,-2.7279528455123305,-0.8819982310906052,-0.5608394008040428
1772697788418257200,9.142257080078124,-2.2349127232149244,-0.7118146829083561,0.2134340763658285
1772697788428305200,9.15230517578125,-1.531013343475759,-0.8511617788001894,0.8282786236017942
1772697788438354200,9.162354248046874,-0.8057809605896472,-1.3179279344171284,1.1278349861502648
1772697788448402200,9.172402099609375,-0.12617898676097392,-2.3205897498480974,1.0167056844830513
1772697788458451200,9.182451171875,0.4301254009619355,-3.526228837299347,0.8550918117254972
1772697788468499200,9.192499267578125,0.6496776679471135,-4.299818423858285,0.3314928850352764
1772697788478548200,9.20254833984375,0.5241559760510921,-4.673633031794428,-0.3097802349209785
1772697788488597200,9.21259716796875,0.476669417732954,-4.675452063915134,-0.6535562629461288
1772697788498645200,9.222645263671875,0.40179216366410253,-4.378783531762659,-0.8712713776320219
1772697788508694300,9.2326943359375,0.44611061334013935,-4.238228521385789,-0.9487819028139114
1772697788518742300,9.2427421875,0.5942189617060124,-4.278189068113267,-0.9074830932199954
1772697788528791300,9.252791259765624,0.8008195387899875,-3.808597625942528,-0.471581739205122
1772697788538840300,9.26284033203125,1.0243382251881061,-2.6670065016403792,0.5313210453748702
1772697788548888300,9.272888427734374,1.1777461412668226,-2.174193758358061,0.832909790533781
1772697788558937300,9.282937255859375,1.3470752645768225,-2.4411560112938284,0.7107096442759037
1772697788568985300,9.2929853515625,1.4775485875308514,-2.632677531059086,0.6055009648293257
1772697788579034400,9.303034423828125,1.5698703128755092,-2.52257932600528,0.26853637038469313
1772697788589083100,9.313083251953126,1.7212825250923633,-2.1770801274493334,-0.4682248299926519
1772697788599131400,9.32313134765625,1.930749451392889,-1.9350487560220062,-1.7560294288247822
1772697788609180200,9.33318017578125,2.290130460307002,-1.346783295892924,-2.0062123963952065
1772697788619228400,9.343228515625,2.60043384231925,0.2062025176770985,-0.2877642179459333
1772697788629277200,9.353277099609375,2.7059324446231123,0.8553817345827818,0.7105705280661583
1772697788639325200,9.3633251953125,2.894720740032196,0.4731002540092915,1.1803390803694724
1772697788649374200,9.373374267578125,3.0269051046878097,-0.19985608952613546,1.8893109410673379
1772697788659423200,9.38342333984375,3.1131969022184607,-0.5510201271770522,2.153102747273445
1772697788669471200,9.39347119140625,3.1008979771375653,-0.5046575679201633,1.425645966336131
1772697788679520300,9.403520263671876,2.9780794067203997,-0.033501725976914164,0.6718482909619807
1772697788689568300,9.413568359375,2.6658491482988,1.8652844610527157,0.3482891215354204
1772697788699617000,9.423616943359375,2.3880010519504546,3.152253485843539,-0.2972247047305107
1772697788709665300,9.433665283203124,2.2983733879953623,2.8836352823942897,-0.9392799149751663
1772697788719714000,9.443714111328125,2.539884388810396,2.059503841599822,-1.059944522228837
1772697788729763300,9.453763427734375,3.1016517181143164,1.3486781697288155,-0.7237374681532383
1772697788739811000,9.46381103515625,3.7441830214381215,0.6663450173705816,-0.6706751555293798
1772697788749860400,9.4738603515625,4.071141185653209,-0.2973654283754527,-1.1555255416303873
1772697788759908000,9.483908203125,-2.58210995786041,-0.1948833974137902,-5.310796378344297
1772697788769957400,9.493957275390626,-4.359603907257318,0.21928587113395331,-6.611753888738155
1772697788780006100,9.504006103515625,-4.354726656609773,2.255891652227193,-6.317295141589641
1772697788790054400,9.514054443359376,-7.067218021357059,4.675097259128093,-2.643480372363329
1772697788800103200,9.524103271484375,-5.1602743929654356,3.227618231168389,-1.3804957420110702
1772697788810151400,9.5341513671875,-16.169886224031448,3.077793288142979,-2.8045260898441073
1772697788820200200,9.5442001953125,-5.411559768819808,2.1143840173006057,0.9024573740124702
1772697788830249200,9.554249267578125,0.8901309764027595,0.7855093030638992,3.8288399112433193
1772697788840297200,9.564297119140624,0.1937842040002346,0.8064426393687725,3.788323191937804
1772697788850346200,9.57434619140625,-0.5625777689039707,0.902433408614993,3.3210043708741663
1772697788860394200,9.584394287109374,-2.0757582263082264,1.2387778253346682,2.4209335997372863
1772697788870443300,9.594443359375,-1.0777303542882204,0.9237266642734407,2.0781208637863395
1772697788880491300,9.6044912109375,-0.7502613179415464,0.4987333655029535,1.7000439222306012
1772697788890540300,9.614540283203125,-1.0180442396104334,0.4623284654304385,1.5166408269912004
1772697788900589300,9.62458935546875,-0.8992267215281724,1.437673380999267,1.3792343437731265
1772697788910637300,9.63463720703125,-0.7757108164966106,1.8412340156406164,2.0370073476314543
1772697788920686600,9.6446865234375,-0.6706435913473368,2.132029856367409,2.5260733056008813
1772697788930734300,9.654734375,-1.2421464249849319,3.2355788347840306,2.2500340122401714
1772697788940783400,9.664783447265625,-1.9446511354953049,4.25592433707416,1.8855141791328787
1772697788950831400,9.674831298828124,0.3538695520162582,2.2881354870975015,1.3568093076057732
1772697788960880400,9.68488037109375,3.563739360526204,0.47538697670698166,0.00033675767369568347
1772697788970929400,9.694929443359374,3.238984259313345,-1.088928332389891,-0.9979282841030508
1772697788980977400,9.704977294921875,2.2755787878632545,-1.2664599052473902,0.6026852498214692
1772697788991026400,9.7150263671875,2.119910671767592,-0.647761312931776,1.918394558341056
1772697789001074400,9.725074462890625,1.8389222315669058,0.13064941017329693,1.0684668513804674
1772697789011123500,9.73512353515625,1.7242787842988967,0.5470023063704371,-1.05865696663633
1772697789021172200,9.745172119140625,2.072670781686902,0.4865107205286622,-2.7475860590040684
1772697789031220500,9.755220458984375,1.7887667463004588,0.24999168278202413,-3.6473593084990976
1772697789041269200,9.765269287109374,0.693181586369872,0.1890877167470753,-2.896894869200885
1772697789051317500,9.7753173828125,-0.18249650178849697,0.050718087585270404,-0.35748631774131207
1772697789061366300,9.7853662109375,-0.8167261329740285,-0.36611192460432646,1.3779104016929864
1772697789071414500,9.79541455078125,-1.2344459336102007,-0.6248156138911843,1.452282774979621
1772697789081463300,9.80546337890625,-1.1005261234641075,-0.5714505189284682,0.6984520741187036
1772697789091512300,9.81551220703125,-0.6545791762530804,-0.30655498926416036,-0.11199066773690283
1772697789101560300,9.825560302734376,-0.4956628720164299,0.01349251877963543,-0.759301825748384
1772697789111609300,9.835609375,-0.36982290795147416,0.18592267684489489,-0.9180478879846632
1772697789121657300,9.8456572265625,0.19075345800220966,0.1172730651192367,-0.8301460249088705
1772697789131706400,9.855706298828125,0.683787735080719,-0.150389445040375,-0.548590598475188
1772697789141755400,9.86575537109375,1.0151695609569549,-0.5521119044691324,0.11276201743558048
1772697789151803400,9.875803466796874,1.1548317141473292,-0.8997066139996052,0.9607469928305595
1772697789161852400,9.885852294921875,1.3157049976706503,-1.0839994976855813,1.234042905767262
1772697789171900200,9.895900146484376,1.4497943191647529,-1.099765222094208,1.0797016543611884
1772697789181949400,9.905949462890625,1.1655413242101669,-0.9817363701716065,0.7310561206035315
1772697789191998500,9.91599853515625,0.688082801926136,-0.7133452534765005,0.4321107660928741
1772697789202046500,9.92604638671875,0.565083614245057,-0.5924122045449912,0.25068982111401855
1772697789212095200,9.93609521484375,0.3776356275290251,-0.42846857366561886,0.46359044819027184
1772697789222143500,9.9461435546875,0.3172556853681803,-0.49301191911622877,0.9280673238262533
1772697789232192300,9.956192138671875,0.45468379589617247,-0.7742131252847612,1.4263690199136734
1772697789242240500,9.966240478515624,0.6067647011548281,-0.9501305409438907,1.626661875155568
1772697789252289300,9.976289306640625,0.7396294492900372,-1.3072704929329455,1.582177713523805
1772697789262338300,9.98633837890625,0.8041957372248172,-1.645965564431995,1.5940622125849127
1772697789272386300,9.99638623046875,1.1135586235165595,-1.7273257507793605,1.719819174541533
1772697789282435300,10.006435302734374,1.3281085521697997,-1.6183926439821719,1.7488186206631362
1772697789292483300,10.0164833984375,1.407502991402149,-1.4266883149959146,1.7249501076892018
1772697789302532400,10.026532470703126,1.4539759887635706,-1.2379488271646202,1.6952749542631207
1772697789312580400,10.036580322265625,1.0641904892355203,-1.06234456910789,1.4600193605810403
1772697789322629400,10.04662939453125,0.22672961126863955,-0.7431168530143797,1.150623887193948
1772697789332678400,10.056678466796875,-0.497798130479455,-0.34185192809477444,1.0941422676458954
1772697789342726400,10.066726318359375,-1.2509054855018853,-0.14998700171932577,0.9372850878961384
1772697789352775400,10.076775390625,-2.014488057309389,0.11367241027876734,0.8468151278980076
1772697789362823400,10.086823486328125,-2.246133497670293,0.4351655870862305,0.6025037557747215
1772697789372872400,10.09687255859375,-2.252393727108836,0.5862094043821096,0.485563466273807
1772697789382921500,10.10692138671875,-2.0092466495245693,0.7895290600992739,0.5007491623047738
1772697789392969500,10.116969482421876,-1.3180045067846775,0.7928713562645018,0.5031372264850884
1772697789403018500,10.1270185546875,-0.7234411155551671,0.7376318457320332,0.3353747679699212
1772697789413066500,10.13706640625,-0.20952245588004587,0.5989416063137352,0.20808818529322742
1772697789423115500,10.147115478515625,0.21816811915040016,0.5357905920043587,0.11391958997286855
1772697789433163500,10.15716357421875,0.579461099165678,0.3780585291162133,0.09018295975029468
1772697789443212300,10.16721240234375,0.8430407239258288,0.2449929977118969,0.05719210590496659
1772697789453261300,10.17726123046875,0.993052421694994,0.20865999383181333,0.046562721471488475
1772697789463309300,10.187309326171874,0.9263269098997116,0.278521757826209,0.05097768836952746
1772697789473358300,10.1973583984375,0.7845943801760673,0.20312647123262284,-0.0898738938011229
1772697789483406300,10.20740625,0.21400749233961103,0.11551570005789398,0.019335253458470106
1772697789493455400,10.217455322265625,-0.060228550991415976,0.1865662354454398,0.04440276695862412
1772697789503504400,10.22750439453125,-0.0607850158303976,0.43409912689849733,0.011998042438179254
1772697789513552400,10.237552490234375,-0.43570203205049035,0.5115371713660657,-0.16781214287579058
1772697789523601400,10.247601318359376,-0.6103957511335611,0.593167991348356,-0.2050488175973296
1772697789533649400,10.2576494140625,-0.5809691656410694,0.843277455291152,-0.19455679580792784
1772697789543698400,10.267698486328126,-0.6718699182718992,0.9381627475135028,-0.16444953457489608
1772697789553746400,10.277746337890624,-0.5402899492502212,0.8941150776028632,-0.26102219536229965
1772697789563795500,10.28779541015625,-0.4029045088201761,0.8189785880759358,-0.4086871838748455
1772697789573844500,10.297844482421874,-0.36072190212905403,0.8420131344437599,-0.48804976666420696
1772697789583892200,10.307892333984375,-0.45212417454123494,0.9501593286469578,-0.49593891247883437
1772697789593941500,10.31794140625,-0.6138187113195658,1.0467451411768793,-0.5022894505493343
1772697789603989200,10.3279892578125,-0.9957003058552741,1.3670312802821396,-0.739817957599461
1772697789614038500,10.33803857421875,-0.8059697611600161,1.5168810654878615,-0.8812509198546409
1772697789624087300,10.34808740234375,-0.5952829376757145,1.4015223095573484,-0.33798151640221474
1772697789634135600,10.358135498046876,-0.2151812122941017,1.1011493699289858,-0.34218729752898214
1772697789644184300,10.368184326171875,-0.06252279940843582,0.6264509600080549,-0.1572761358141899
1772697789654232300,10.378232421875,-0.03692775490283966,0.47625236136466265,-0.18524083206057548
1772697789664281300,10.38828125,0.13735387624800205,0.5450343672983348,-0.08631094062253833
1772697789674329300,10.398329345703125,0.0008849661409854889,0.6294299758188426,-0.08834566132053732
1772697789684378400,10.40837841796875,-0.1717284395366907,0.7901241033829748,-0.34018647910058497
1772697789694427400,10.418427490234375,-0.2983721211999655,1.2041846508592366,-0.5714030265249311
1772697789704475400,10.428475341796876,-0.3986649715542793,1.5369374728277325,-0.7255980013281107
