time,seconds_elapsed,z,y,x
1772697779296656000,0.02065576171875,0.37353870272636414,-0.11396491527557373,-0.07984742522239685
1772697779306704100,0.0307041015625,0.4817975163459778,0.055927447974681854,-0.1701648086309433
1772697779316753000,0.0407529296875,0.6132926940917969,0.3290359377861023,-0.3079482316970825
1772697779326802000,0.050802001953125,0.7046138048171997,0.4420085847377777,-0.4761867821216583
1772697779336850000,0.060849853515625,0.76629638671875,0.46355512738227844,-0.5688202977180481
1772697779346899000,0.07089892578125,0.8555769920349121,0.4971647560596466,-0.534310519695282
1772697779356947000,0.080947021484375,1.0666242837905884,0.4226199686527252,-0.46297377347946167
1772697779366996000,0.090995849609375,1.2957154512405396,0.2274555265903473,-0.40056711435317993
1772697779377044000,0.1010439453125,1.5462563037872314,0.22361871600151062,-0.3844060003757477
1772697779387093000,0.111093017578125,1.744632601737976,0.37663888931274414,-0.42061594128608704
1772697779397142000,0.12114208984375,1.8834538459777832,0.6081871390342712,-0.4617479145526886
1772697779407189800,0.131189697265625,1.9482325315475464,0.9555680155754089,-0.4990138113498688
1772697779417239000,0.141239013671875,1.956471562385559,1.254432201385498,-0.489767849445343
1772697779427286800,0.151286865234375,1.8953003883361816,1.0821504592895508,-0.4064508378505707
1772697779437336000,0.161336181640625,1.983147144317627,1.1836376190185547,-0.34263965487480164
1772697779447383800,0.1713837890625,2.0095174312591553,1.4431086778640747,-0.29183000326156616
1772697779457433000,0.18143310546875,2.0252697467803955,1.898651361465454,-0.2565239369869232
1772697779467481900,0.19148193359375,2.0814645290374756,2.7978403568267822,-0.027408720925450325
1772697779477530000,0.201530029296875,2.3071584701538086,3.596674919128418,0.03599714860320091
1772697779487579000,0.211578857421875,2.607619047164917,3.3702681064605713,-0.39024871587753296
1772697779497627100,0.221627197265625,2.601842164993286,1.3584086894989014,-1.2365493774414062
1772697779507676000,0.231676025390625,2.426086187362671,-0.1641111820936203,-1.4549239873886108
1772697779517725000,0.241724853515625,2.192063331604004,-0.5243455171585083,-1.1959688663482666
1772697779527773000,0.25177294921875,1.7217328548431396,-0.8532139658927917,-1.0362141132354736
1772697779537822000,0.261822021484375,1.304248571395874,-0.8029283881187439,-0.8343113660812378
1772697779547870000,0.271869873046875,1.1099368333816528,-0.36575400829315186,-0.5401471257209778
1772697779557919000,0.2819189453125,0.9985978007316589,0.1197410449385643,-0.31036850810050964
1772697779567967000,0.291967041015625,0.9177649617195129,0.3718406558036804,-0.22568824887275696
1772697779578016000,0.30201611328125,0.8044554591178894,0.48160073161125183,-0.22817350924015045
1772697779588065000,0.31206494140625,0.6557173728942871,0.6572743058204651,-0.2084866315126419
1772697779598113000,0.322113037109375,0.47328099608421326,0.7895305752754211,-0.1959117203950882
1772697779608162000,0.332162109375,0.2332361787557602,0.7610536813735962,-0.20635797083377838
1772697779618210000,0.3422099609375,0.11856632679700851,0.7303854823112488,-0.23061110079288483
1772697779628258800,0.3522587890625,0.22750400006771088,0.8023819327354431,-0.24526621401309967
1772697779638306800,0.362306884765625,0.3852214515209198,0.7817866206169128,-0.2754201292991638
1772697779648355800,0.37235595703125,0.44439050555229187,0.8153579235076904,-0.30350103974342346
1772697779658405000,0.382405029296875,0.3744092881679535,0.9886783361434937,-0.3403695523738861
1772697779668452900,0.392452880859375,0.3088188171386719,1.101927638053894,-0.401006817817688
1772697779678502000,0.402501953125,0.21929506957530975,1.2715132236480713,-0.42008355259895325
1772697779688550000,0.4125498046875,0.06744535267353058,1.425010323524475,-0.3940272033214569
1772697779698599000,0.422598876953125,0.1807474046945572,0.823985755443573,0.04237515479326248
1772697779708647000,0.43264697265625,0.375754177570343,0.42567408084869385,0.5320894718170166
1772697779718696000,0.442696044921875,0.3845657706260681,1.0824029445648193,0.46777600049972534
1772697779728745000,0.452744873046875,0.32220786809921265,1.5773804187774658,0.46940797567367554
1772697779738793000,0.46279296875,0.18674218654632568,1.727606177330017,0.5284143090248108
1772697779748842000,0.472842041015625,0.15340526401996613,1.7012333869934082,0.5500378608703613
1772697779758890000,0.482889892578125,0.23333391547203064,1.5801527500152588,0.5339046716690063
1772697779768939000,0.49293896484375,0.2927176058292389,1.5286842584609985,0.5466228723526001
1772697779778987800,0.50298779296875,0.32605692744255066,1.5908772945404053,0.5558179616928101
1772697779789036000,0.5130361328125,0.30983349680900574,1.640061378479004,0.49473410844802856
1772697779799084800,0.523084716796875,0.26402604579925537,1.75960373878479,0.351398229598999
1772697779809133000,0.533133056640625,0.24264007806777954,2.1175501346588135,0.14838308095932007
1772697779819181800,0.543181884765625,0.2755168080329895,2.5935122966766357,-0.11581981182098389
1772697779829230000,0.55322998046875,0.27333858609199524,2.8312416076660156,-0.3533143997192383
1772697779839278800,0.56327880859375,0.31731778383255005,2.8028018474578857,-0.5482601523399353
1772697779849328000,0.573328125,0.3667082190513611,2.9048521518707275,-0.7969802618026733
1772697779859375900,0.5833759765625,0.3678576350212097,3.1352875232696533,-1.2392125129699707
1772697779869425200,0.593425048828125,0.2508963942527771,3.2639572620391846,-1.7500361204147339
1772697779879473000,0.603472900390625,0.01804558001458645,3.2587032318115234,-2.1288254261016846
1772697779889522200,0.613522216796875,-0.31497737765312195,3.4405758380889893,-2.382716417312622
1772697779899569700,0.623569580078125,-0.6797146201133728,3.895590305328369,-2.6613855361938477
1772697779909619000,0.633618896484375,-0.9716527462005615,4.2810492515563965,-2.380056619644165
1772697779919667700,0.643667724609375,-1.3407407999038696,5.096884727478027,-2.15480375289917
1772697779929716000,0.653716064453125,-1.4439811706542969,5.403741359710693,-1.7914624214172363
1772697779939764700,0.6637646484375,-1.2933881282806396,5.790958404541016,-2.0514118671417236
1772697779949813000,0.67381298828125,-1.2793810367584229,5.7020344734191895,-2.5690531730651855
1772697779959861800,0.68386181640625,-1.3369665145874023,5.4163970947265625,-2.8802690505981445
1772697779969910800,0.693910888671875,-1.3947011232376099,5.2567973136901855,-3.0745136737823486
1772697779979958800,0.703958740234375,-1.4725110530853271,5.128131866455078,-3.0660552978515625
1772697779990007800,0.7140078125,-1.453176736831665,4.757817268371582,-2.887763261795044
1772697780000055800,0.724055908203125,-1.3798325061798096,4.185988903045654,-2.748969078063965
1772697780010104800,0.734104736328125,-1.330790400505066,3.6305527687072754,-2.683393955230713
1772697780020153900,0.74415380859375,-1.399390697479248,3.1285717487335205,-2.66174054145813
1772697780030201900,0.754201904296875,-1.498968243598938,2.8040316104888916,-2.642054557800293
1772697780040251000,0.7642509765625,-1.556741714477539,2.530207395553589,-2.5203280448913574
1772697780050299000,0.774298828125,-1.5410645008087158,2.486009120941162,-2.3226754665374756
1772697780060348000,0.784347900390625,-1.5082637071609497,2.482260227203369,-2.1328375339508057
1772697780070396000,0.79439599609375,-1.4715301990509033,2.391927719116211,-2.0199291706085205
1772697780080445000,0.80444482421875,-1.337570309638977,2.216703176498413,-2.0253939628601074
1772697780090494000,0.814493896484375,-1.117165446281433,1.960053563117981,-2.1123721599578857
1772697780100542000,0.8245419921875,-0.7960917949676514,1.6507595777511597,-2.230807065963745
1772697780110591000,0.834591064453125,-0.3891943693161011,1.2468475103378296,-2.31071138381958
1772697780120638700,0.844638671875,0.01635686866939068,0.6844947338104248,-2.2735378742218018
1772697780130688000,0.85468798828125,0.2869843542575836,-0.29385319352149963,-1.9592084884643555
1772697780140736800,0.86473681640625,0.3673388659954071,-1.0319722890853882,-1.1920713186264038
1772697780150784800,0.87478466796875,0.16771124303340912,-1.2583483457565308,-0.052749764174222946
1772697780160833800,0.884833740234375,0.06018371134996414,-0.40538692474365234,1.0774403810501099
1772697780170881800,0.8948818359375,-0.01576724462211132,0.32716959714889526,1.541848063468933
1772697780180930800,0.904930908203125,-0.23216666281223297,0.46784043312072754,1.5833909511566162
1772697780190978800,0.914978759765625,-0.5230448246002197,0.15540742874145508,1.347158670425415
1772697780201027800,0.92502783203125,-0.7206673622131348,0.0489150770008564,0.7485730051994324
1772697780211076900,0.935076904296875,-0.7938774228096008,0.10247630625963211,-0.024643560871481895
1772697780221124900,0.945124755859375,-0.6989974975585938,0.0036506610922515392,-0.45730283856391907
1772697780231173600,0.955173583984375,-0.4599076807498932,-0.3652690649032593,-0.605281412601471
1772697780241222000,0.965221923828125,-0.11564217507839203,-0.7921665906906128,-0.609990656375885
1772697780251270700,0.975270751953125,0.24125416576862335,-1.1340177059173584,-0.5348519682884216
1772697780261319000,0.98531884765625,0.45725464820861816,-1.4491462707519531,-0.527271032333374
1772697780271367700,0.99536767578125,0.5001158118247986,-1.697485327720642,-0.6770240068435669
1772697780281417000,1.0054169921875,0.44689175486564636,-1.75300931930542,-0.9483508467674255
1772697780291464700,1.015464599609375,0.37222522497177124,-1.7715590000152588,-1.2403608560562134
1772697780301514000,1.025513916015625,0.2754182517528534,-1.9472618103027344,-1.4749208688735962
1772697780311561700,1.035561767578125,0.20550282299518585,-1.9979215860366821,-1.6437911987304688
1772697780321611000,1.045611083984375,0.1814001500606537,-1.978813648223877,-1.6950432062149048
1772697780331659800,1.05565966796875,0.22671543061733246,-1.9415032863616943,-1.6954705715179443
1772697780341708000,1.0657080078125,0.2939136326313019,-1.8171943426132202,-1.628983736038208
1772697780351756800,1.0757568359375,0.3174498677253723,-1.667933464050293,-1.64026939868927
1772697780361804800,1.0858046875,0.23134960234165192,-1.5029802322387695,-1.6238821744918823
1772697780371853800,1.095853759765625,-0.06890929490327835,-1.0257564783096313,-1.491432547569275
1772697780381901800,1.10590185546875,-0.46594586968421936,-0.30566883087158203,-1.4330570697784424
1772697780391950800,1.115950927734375,-0.9207242727279663,0.3693452775478363,-1.4512560367584229
1772697780402000000,1.125999755859375,-1.1488573551177979,0.9164818525314331,-1.4844776391983032
1772697780412048000,1.1360478515625,-0.9849624037742615,1.1331363916397095,-1.3325674533843994
1772697780422096600,1.1460966796875,-0.5394219160079956,0.7392333149909973,-0.9889917373657227
1772697780432145000,1.156144775390625,-0.11482405662536621,0.1337769776582718,-0.7323935031890869
1772697780442193700,1.166193603515625,0.2048887014389038,-0.2731998562812805,-0.7271308302879333
1772697780452243000,1.176242919921875,0.3933273255825043,-0.5574997663497925,-0.9105027914047241
1772697780462290700,1.186290771484375,0.3436407148838043,-0.870307981967926,-1.1242183446884155
1772697780472340000,1.196340087890625,0.15496934950351715,-1.0337799787521362,-1.235605001449585
1772697780482387700,1.2063876953125,-0.08567788451910019,-0.7989501953125,-1.3172849416732788
1772697780492437000,1.21643701171875,-0.610140860080719,-0.7715483903884888,-1.3466732501983643
1772697780502484700,1.226484619140625,-1.333562970161438,-0.9184132218360901,-1.2993637323379517
1772697780512534000,1.236533935546875,-2.009507894515991,-0.8269860744476318,-1.052846074104309
1772697780522582800,1.246582763671875,-2.4448795318603516,-0.8361505270004272,-0.8115307092666626
1772697780532631000,1.256631103515625,-2.5872178077697754,-0.9270791411399841,-0.6623691916465759
1772697780542679800,1.2666796875,-2.42082142829895,-0.7916421890258789,-0.5432973504066467
1772697780552728000,1.27672802734375,-2.002836227416992,-0.3804062008857727,-0.4157375395298004
1772697780562776800,1.28677685546875,-1.3915839195251465,-0.08928406983613968,-0.1541815847158432
1772697780572825900,1.296825927734375,-0.603488564491272,-0.017911622300744057,0.27233803272247314
1772697780582873900,1.306873779296875,0.14221705496311188,-0.42407190799713135,0.47243866324424744
1772697780592923000,1.3169228515625,0.441387802362442,-1.2455146312713623,0.38540947437286377
1772697780602971000,1.326970947265625,0.483010858297348,-1.6779751777648926,0.12685595452785492
1772697780613020000,1.33702001953125,0.40993639826774597,-1.5686924457550049,-0.10963941365480423
1772697780623068000,1.34706787109375,0.3738172650337219,-1.4318605661392212,-0.3037486970424652
1772697780633116700,1.35711669921875,0.5423101186752319,-1.4394532442092896,-0.39424797892570496
1772697780643166000,1.367166015625,0.826830267906189,-1.5644299983978271,-0.3844672441482544
1772697780653213700,1.377213623046875,1.0505731105804443,-1.727560043334961,-0.3464394509792328
1772697780663262700,1.3872626953125,1.1271579265594482,-1.1603344678878784,-0.16876424849033356
1772697780673310700,1.397310791015625,0.9982369542121887,-0.40028348565101624,0.12018632888793945
1772697780683359700,1.40735986328125,0.7226367592811584,0.08758044987916946,0.47318485379219055
1772697780693408800,1.41740869140625,0.6046944260597229,0.3158216178417206,0.7749284505844116
1772697780703456800,1.427456787109375,0.5960381031036377,0.22956527769565582,0.9256237149238586
1772697780713505800,1.437505859375,0.6447776556015015,-0.03786562383174896,0.8642221093177795
1772697780723553800,1.4475537109375,0.6397895812988281,-0.26967355608940125,0.5930089950561523
1772697780733602800,1.457602783203125,0.44296517968177795,-0.2345200926065445,0.24602894484996796
1772697780743650800,1.46765087890625,0.06573133915662766,-0.11517878621816635,-0.06580910831689835
1772697780753699800,1.477699951171875,-0.3180040717124939,-0.11930322647094727,-0.25552231073379517
1772697780763748900,1.487748779296875,-0.4990697205066681,-0.33521634340286255,-0.3467763364315033
1772697780773796900,1.497796875,-0.3622165322303772,-0.8108505010604858,-0.4380183517932892
1772697780783846000,1.507845947265625,-0.010455836541950703,-1.2130600214004517,-0.5196599364280701
1772697780793894000,1.517893798828125,0.3234829902648926,-1.3679745197296143,-0.5938007831573486
1772697780803943000,1.52794287109375,0.47138163447380066,-1.2326867580413818,-0.5770981907844543
1772697780813991000,1.537990966796875,0.42762163281440735,-0.7423425912857056,-0.4521549344062805
1772697780824040000,1.5480400390625,0.38148558139801025,-0.13632935285568237,-0.26148539781570435
1772697780834088700,1.558088623046875,0.36766937375068665,0.38033509254455566,-0.11872558295726776
1772697780844136700,1.56813671875,0.42275604605674744,0.5844029784202576,-0.047679103910923004
1772697780854185700,1.578185791015625,0.5497632622718811,0.510700523853302,0.013079849071800709
1772697780864233700,1.588233642578125,0.7011991143226624,0.272978276014328,0.12829378247261047
1772697780874282800,1.59828271484375,0.5835068225860596,0.1451643854379654,0.31330278515815735
1772697780884332000,1.60833203125,0.21133461594581604,-0.02316976711153984,0.5517715811729431
1772697780894379800,1.6183798828125,-0.23370037972927094,-0.1114484965801239,0.6570109128952026
1772697780904429600,1.6284296875,-0.570698618888855,-0.03922383487224579,0.5714741349220276
1772697780914477600,1.6384775390625,-0.6555056571960449,0.2618262767791748,0.5152556300163269
1772697780924526600,1.648526611328125,-0.5060245990753174,1.0045435428619385,0.5193790197372437
1772697780934574600,1.65857470703125,-0.2256895899772644,1.7337397336959839,0.4729909896850586
1772697780944623400,1.668623291015625,0.22463230788707733,2.145535707473755,0.45855772495269775
1772697780954672600,1.678672607421875,0.9356616735458374,2.00778865814209,0.4719584882259369
1772697780964720400,1.688720458984375,1.7047208547592163,1.300373911857605,0.5137909054756165
1772697780974769700,1.698769775390625,2.3686280250549316,0.31394460797309875,0.6382611989974976
1772697780984817400,1.7088173828125,2.894770860671997,-0.579808235168457,0.7713606357574463
1772697780994866700,1.71886669921875,3.1492390632629395,-1.285277247428894,0.6863671541213989
1772697781004915500,1.72891552734375,3.1109743118286133,-1.6809308528900146,0.5128172039985657
1772697781014963700,1.738963623046875,2.836265802383423,-1.7075788974761963,0.29213517904281616
1772697781025012500,1.749012451171875,2.4196412563323975,-1.4921363592147827,0.1319788098335266
1772697781035060700,1.759060791015625,1.9902327060699463,-1.1899067163467407,0.051783569157123566
1772697781045109500,1.769109619140625,1.6400731801986694,-0.9176390171051025,0.013466540724039078
1772697781055157800,1.77915771484375,1.467687726020813,-0.6111858487129211,-0.0035241609439253807
1772697781065206500,1.78920654296875,1.4969040155410767,-0.28854578733444214,-0.006835269276052713
1772697781075255600,1.799255615234375,1.6598577499389648,0.022529810667037964,-0.07930654287338257
1772697781085303600,1.809303466796875,1.834970474243164,0.21807827055454254,-0.22170868515968323
1772697781095352600,1.8193525390625,1.980241298675537,0.27372848987579346,-0.41336414217948914
1772697781105400600,1.829400634765625,2.0127596855163574,0.24522839486598969,-0.6088729500770569
1772697781115449600,1.83944970703125,2.035848617553711,0.44558945298194885,-0.9395989179611206
1772697781125498600,1.84949853515625,1.9545546770095825,0.6934317350387573,-1.3394973278045654
1772697781135546600,1.859546630859375,1.757368564605713,0.7732933163642883,-1.6090683937072754
1772697781145595600,1.869595703125,1.4464077949523926,0.9195040464401245,-1.460274577140808
1772697781155643600,1.8796435546875,1.0609549283981323,1.0367203950881958,-0.6807074546813965
1772697781165692700,1.889692626953125,0.800001323223114,0.883906900882721,-0.3476985692977905
1772697781175740400,1.899740478515625,0.6795114278793335,0.74358069896698,-0.10485398024320602
1772697781185789700,1.909789794921875,0.6216265559196472,0.6839215755462646,0.20781338214874268
1772697781195838700,1.919838623046875,0.5433298945426941,0.6679242849349976,0.5098419189453125
1772697781205886700,1.92988671875,0.4063887894153595,0.6752657890319824,0.7412842512130737
1772697781215935500,1.939935546875,0.25516971945762634,0.6731496453285217,0.8529425859451294
1772697781225983700,1.949983642578125,0.1414942741394043,0.6232643723487854,0.7748008966445923
1772697781236032500,1.960032470703125,0.1618349701166153,0.5045105814933777,0.5697513818740845
1772697781246080500,1.97008056640625,0.20448575913906097,0.3248952627182007,0.308392733335495
1772697781256129500,1.980129638671875,0.22391511499881744,0.13399481773376465,0.09326310455799103
1772697781266178600,1.990178466796875,0.22448024153709412,-0.033787790685892105,0.01954520493745804
1772697781276226600,2.0002265625,0.2092251181602478,-0.15253175795078278,0.0655883327126503
1772697781286275600,2.010275634765625,0.19233402609825134,-0.22770719230175018,0.16112364828586578
1772697781296323600,2.020323486328125,0.14954021573066711,-0.29890280961990356,0.22211669385433197
1772697781306372600,2.03037255859375,0.12628602981567383,-0.24257215857505798,0.309438019990921
1772697781316421600,2.040421630859375,0.12852175533771515,-0.14923395216464996,0.3997338116168976
1772697781326469600,2.0504697265625,0.12990020215511322,-0.11386265605688095,0.4311290383338928
1772697781336518400,2.060518310546875,0.1227291151881218,-0.12673556804656982,0.395811527967453
1772697781346566700,2.070566650390625,0.13391704857349396,-0.1333141177892685,0.30699455738067627
1772697781356615400,2.080615478515625,0.14700835943222046,-0.12527696788311005,0.20068277418613434
1772697781366663700,2.09066357421875,0.15128618478775024,-0.11424960941076279,0.11370658874511719
1772697781376712400,2.10071240234375,0.13760952651500702,-0.10403132438659668,0.0639938935637474
1772697781386761700,2.11076171875,0.1290309578180313,-0.09976627677679062,0.05494234338402748
1772697781396809500,2.1208095703125,0.12406016141176224,-0.1058739647269249,0.05692373588681221
1772697781406858800,2.130858642578125,0.13254232704639435,-0.12916810810565948,0.059599146246910095
1772697781416906500,2.140906494140625,0.15900163352489471,-0.1384042203426361,0.05974668636918068
1772697781426955800,2.150955810546875,0.18847057223320007,-0.10096149891614914,0.08516336232423782
1772697781437003500,2.16100341796875,0.19025756418704987,-0.08177316188812256,0.1712029129266739
1772697781447052500,2.171052490234375,0.17466901242733002,-0.08470902591943741,0.3008229434490204
1772697781457101600,2.1811015625,0.11996155977249146,-0.09462690353393555,0.43165820837020874
1772697781467149600,2.191149658203125,0.06720087677240372,-0.062016766518354416,0.5209800601005554
1772697781477198600,2.201198486328125,0.017739316448569298,-0.03921957314014435,0.5354613065719604
1772697781487246600,2.21124658203125,-0.007071491796523333,-0.02166641317307949,0.4965362548828125
1772697781497295600,2.221295654296875,-0.02106214128434658,-0.019473299384117126,0.4498196244239807
1772697781507344400,2.231344482421875,-0.027173297479748726,-0.023497335612773895,0.4281180500984192
1772697781517392600,2.241392578125,-0.040046751499176025,-0.05210288241505623,0.4377424418926239
1772697781527441400,2.25144140625,-0.053113020956516266,-0.06443598121404648,0.45257121324539185
1772697781537489700,2.26148974609375,-0.07284943759441376,-0.05001842603087425,0.46811872720718384
1772697781547538400,2.271538330078125,-0.07578157633543015,-0.024754082784056664,0.4687909185886383
1772697781557586700,2.281586669921875,-0.08150338381528854,-0.03401016443967819,0.4483703374862671
1772697781567635500,2.291635498046875,-0.07206887006759644,-0.057866763323545456,0.4152826964855194
1772697781577684700,2.301684814453125,-0.062186677008867264,-0.06853671371936798,0.36874181032180786
1772697781587732500,2.311732421875,-0.046001315116882324,-0.070673368871212,0.33995357155799866
1772697781597781800,2.32178173828125,-0.0314527302980423,-0.047688957303762436,0.3509814739227295
1772697781607829500,2.33182958984375,-0.01878141053020954,-0.03530126437544823,0.3891395032405853
1772697781617878800,2.341878662109375,-0.030296387150883675,-0.032397087663412094,0.43372029066085815
1772697781627926500,2.351926513671875,-0.06626903265714645,-0.06891355663537979,0.4572834074497223
1772697781637975800,2.361975830078125,-0.09185322374105453,-0.07102411240339279,0.47807177901268005
1772697781648024600,2.372024658203125,-0.11627893894910812,-0.089548259973526,0.4670502841472626
1772697781658072600,2.382072509765625,-0.13156655430793762,-0.055425975471735,0.46338149905204773
1772697781668121600,2.39212158203125,-0.14651913940906525,-0.028303809463977814,0.4543829560279846
1772697781678169600,2.402169677734375,-0.15284892916679382,0.011030280962586403,0.44629520177841187
1772697781688218600,2.412218505859375,-0.1546175330877304,0.07830119878053665,0.45397627353668213
1772697781698267600,2.422267578125,-0.1672734171152115,0.08805928379297256,0.4631125330924988
1772697781708315600,2.432315673828125,-0.19114625453948975,0.0989132672548294,0.46585026383399963
1772697781718364400,2.442364501953125,-0.20359520614147186,0.131987065076828,0.47569435834884644
1772697781728412700,2.45241259765625,-0.22220191359519958,0.14194409549236298,0.4873068034648895
1772697781738461400,2.46246142578125,-0.24403530359268188,0.12471184134483337,0.48299941420555115
1772697781748509700,2.472509765625,-0.22662489116191864,0.1022225096821785,0.48891109228134155
1772697781758558500,2.482558349609375,-0.18184223771095276,0.0907839685678482,0.46173593401908875
1772697781768607700,2.492607666015625,-0.1476142257452011,0.043170906603336334,0.41449546813964844
1772697781778655500,2.502655517578125,-0.14737960696220398,-0.016345417127013206,0.3606495261192322
1772697781788704500,2.51270458984375,-0.1784680038690567,-0.06129930913448334,0.33299845457077026
1772697781798752500,2.52275244140625,-0.2125474214553833,-0.04845355078577995,0.3394515812397003
1772697781808801500,2.532801513671875,-0.23565007746219635,-0.006268016062676907,0.34551557898521423
1772697781818850600,2.5428505859375,-0.2586565911769867,0.03490924835205078,0.36662912368774414
1772697781828898600,2.552898681640625,-0.2792516052722931,0.04939498007297516,0.3829553723335266
1772697781838947600,2.562947509765625,-0.30498334765434265,0.031002923846244812,0.3903901278972626
1772697781848995600,2.57299560546875,-0.3203977048397064,-0.012180233374238014,0.39023271203041077
1772697781859044600,2.583044677734375,-0.32409870624542236,-0.049685265868902206,0.3808235228061676
1772697781869092600,2.593092529296875,-0.32790571451187134,-0.06176323443651199,0.3741514980792999
1772697781879141600,2.6031416015625,-0.3346666693687439,-0.07889321446418762,0.36406052112579346
1772697781889190700,2.613190673828125,-0.3504562973976135,-0.12471077591180801,0.34518587589263916
1772697781899238000,2.62323779296875,-0.3487454652786255,-0.11959004402160645,0.33725181221961975
1772697781909287000,2.633286865234375,-0.3734494745731354,-0.17329056560993195,0.31616702675819397
1772697781919335000,2.6433349609375,-0.3792663514614105,-0.17520111799240112,0.3122692108154297
1772697781929384000,2.653384033203125,-0.40772730112075806,-0.19248369336128235,0.29473283886909485
1772697781939432000,2.663431884765625,-0.42165908217430115,-0.1997799575328827,0.2791730463504791
1772697781949481000,2.67348095703125,-0.4390207827091217,-0.1525874137878418,0.2716682553291321
1772697781959530000,2.683530029296875,-0.4432200491428375,-0.11276010423898697,0.2495698779821396
1772697781969578000,2.693577880859375,-0.43783167004585266,-0.07012635469436646,0.22177420556545258
1772697781979627000,2.703626953125,-0.42233315110206604,0.024275245144963264,0.19721800088882446
1772697781989675000,2.713675048828125,-0.41558656096458435,0.12538082897663116,0.17878705263137817
1772697781999724000,2.72372412109375,-0.41517430543899536,0.20711882412433624,0.174391508102417
1772697782009773000,2.73377294921875,-0.4274331033229828,0.24716851115226746,0.20676063001155853
1772697782019821000,2.743821044921875,-0.4342808723449707,0.23707273602485657,0.2663741707801819
1772697782029870000,2.7538701171875,-0.4360281825065613,0.22804248332977295,0.3171667754650116
1772697782039917800,2.763917724609375,-0.3983875811100006,0.24124696850776672,0.3139627277851105
1772697782049967000,2.773967041015625,-0.3237663507461548,0.29285183548927307,0.2467874139547348
1772697782060014800,2.784014892578125,-0.22310179471969604,0.3220893442630768,0.12321407347917557
1772697782070064000,2.794064208984375,-0.12691427767276764,0.2908022701740265,-0.01708630844950676
1772697782080113000,2.80411279296875,-0.09060073643922806,0.1771707832813263,-0.14842090010643005
1772697782090161000,2.814160888671875,-0.1142224445939064,0.10882341861724854,-0.30484646558761597
1772697782100210000,2.8242099609375,-0.16911286115646362,0.11904223263263702,-0.41437506675720215
1772697782110258000,2.8342578125,-0.2215057611465454,0.005598763469606638,-0.38324564695358276
1772697782120307000,2.844306884765625,-0.2847699522972107,-0.20789779722690582,-0.23358292877674103
1772697782130355000,2.85435498046875,-0.3478919267654419,-0.37427693605422974,-0.06834603101015091
1772697782140404000,2.864404052734375,-0.3900127410888672,-0.4026276171207428,0.031011179089546204
1772697782150452700,2.87445263671875,-0.399517297744751,-0.31454142928123474,0.03503468260169029
1772697782160501000,2.8845009765625,-0.3860851228237152,-0.210311159491539,-0.03273557499051094
1772697782170549800,2.8945498046875,-0.332454115152359,-0.16320623457431793,-0.11156061291694641
1772697782180598000,2.904597900390625,-0.24432745575904846,-0.11922119557857513,-0.14891624450683594
1772697782190646800,2.914646728515625,-0.20826825499534607,-0.18535548448562622,-0.19411568343639374
1772697782200696000,2.924696044921875,-0.1841282993555069,-0.29011306166648865,-0.2509717643260956
1772697782210743800,2.934743896484375,-0.15559464693069458,-0.38145148754119873,-0.33427944779396057
1772697782220793000,2.94479296875,-0.13638819754123688,-0.4363855719566345,-0.4687906503677368
1772697782230840800,2.9548408203125,-0.12315122783184052,-0.45639336109161377,-0.6369333267211914
1772697782240890000,2.96489013671875,-0.09980329126119614,-0.44251856207847595,-0.8120598793029785
1772697782250937900,2.974937744140625,-0.0813174918293953,-0.45265108346939087,-0.9343189001083374
1772697782260987100,2.984987060546875,-0.051106858998537064,-0.49270397424697876,-0.9723608493804932
1772697782271036000,2.995035888671875,0.008418518118560314,-0.3833029270172119,-1.0812956094741821
1772697782281084200,3.005084228515625,0.06735959649085999,-0.29527586698532104,-1.184639811515808
1772697782291133000,3.0151328125,0.10381267964839935,-0.2538072466850281,-1.2418442964553833
1772697782301181200,3.02518115234375,0.13079209625720978,-0.250040739774704,-1.2493394613265991
1772697782311230000,3.03522998046875,0.16313005983829498,-0.2256150096654892,-1.227524757385254
1772697782321278000,3.04527783203125,0.18546706438064575,-0.1841149777173996,-1.1808208227157593
1772697782331327000,3.055326904296875,0.18745724856853485,-0.1561664342880249,-1.0997332334518433
1772697782341376000,3.0653759765625,0.18346303701400757,-0.12243856489658356,-0.9999685287475586
1772697782351424000,3.075424072265625,0.16825638711452484,-0.11866752803325653,-0.888910174369812
1772697782361472800,3.08547265625,0.19094571471214294,-0.04146408662199974,-0.8427684903144836
1772697782371521000,3.09552099609375,0.21031595766544342,-0.04433577135205269,-0.7817834615707397
1772697782381569800,3.10556982421875,0.21764710545539856,-0.14492523670196533,-0.6736050248146057
1772697782391619000,3.115619140625,0.22007031738758087,-0.24816107749938965,-0.538861870765686
1772697782401666800,3.125666748046875,0.22105781733989716,-0.3025135397911072,-0.39864885807037354
1772697782411716000,3.135716064453125,0.21369098126888275,-0.3355873227119446,-0.2906302213668823
1772697782421763800,3.145763916015625,0.1886942833662033,-0.37064358592033386,-0.20216402411460876
1772697782431813000,3.155813232421875,0.16844014823436737,-0.35863324999809265,-0.118053138256073
1772697782441860900,3.16586083984375,0.14835351705551147,-0.3206278085708618,-0.03486077859997749
1772697782451910100,3.17591015625,0.1452179104089737,-0.25667253136634827,0.021944180130958557
1772697782461959000,3.185958984375,0.14708824455738068,-0.20082125067710876,0.022285331040620804
1772697782472007000,3.1960068359375,0.14307087659835815,-0.2260456532239914,-0.038228344172239304
1772697782482056000,3.206055908203125,0.14219895005226135,-0.27960899472236633,-0.12714196741580963
1772697782492104000,3.21610400390625,0.14411376416683197,-0.2585439383983612,-0.3070715367794037
1772697782502153000,3.226153076171875,0.1484597772359848,-0.31526419520378113,-0.4706774950027466
1772697782512202000,3.236201904296875,0.1659516841173172,-0.3571048676967621,-0.6210382580757141
1772697782522250000,3.24625,0.18524496257305145,-0.3445834815502167,-0.7790662050247192
1772697782532299000,3.256299072265625,0.17094005644321442,-0.43370217084884644,-0.8791046738624573
1772697782542347000,3.266346923828125,0.14299790561199188,-0.5025049448013306,-0.9377032518386841
1772697782552396000,3.27639599609375,0.12547484040260315,-0.5224022269248962,-0.9494653940200806
1772697782562444000,3.286444091796875,0.10971744358539581,-0.46964073181152344,-0.9190717935562134
1772697782572493000,3.2964931640625,0.07857336848974228,-0.38993018865585327,-0.8531388640403748
1772697782582541800,3.306541748046875,0.054298657923936844,-0.30368292331695557,-0.7920573949813843
1772697782592589800,3.31658984375,0.03232172131538391,-0.25549355149269104,-0.7426735758781433
1772697782602638800,3.326638916015625,0.022524749860167503,-0.24387577176094055,-0.7535808682441711
1772697782612686800,3.336686767578125,0.0441107340157032,-0.2500287592411041,-0.8341779708862305
1772697782622736000,3.34673583984375,0.08631624281406403,-0.27809447050094604,-0.9534471035003662
1772697782632784000,3.356783935546875,0.13599511981010437,-0.2850218713283539,-1.0836005210876465
1772697782642833000,3.3668330078125,0.17122501134872437,-0.28925204277038574,-1.202347755432129
1772697782652882000,3.3768818359375,0.17953753471374512,-0.2879042327404022,-1.2634457349777222
1772697782662930000,3.386929931640625,0.11742223054170609,-0.26615577936172485,-1.244643211364746
1772697782672979000,3.39697900390625,0.041071269661188126,-0.21473920345306396,-1.1649854183197021
1772697782683027000,3.40702685546875,-0.022228073328733444,-0.16320650279521942,-1.0913066864013672
1772697782693076000,3.417075927734375,-0.056294430047273636,-0.07407449185848236,-1.046714425086975
1772697782703125000,3.427125,-0.015210111625492573,0.02022084966301918,-1.0132983922958374
1772697782713173000,3.437173095703125,0.06589113175868988,0.08534365892410278,-0.9901291728019714
1772697782723222000,3.447221923828125,0.08303070068359375,0.13473305106163025,-0.9757058024406433
1772697782733270000,3.45727001953125,0.09238772094249725,0.19276785850524902,-0.9277909994125366
1772697782743319000,3.467319091796875,0.09967093169689178,0.21128295361995697,-0.8768407106399536
1772697782753367000,3.477366943359375,0.11642914265394211,0.2602297067642212,-0.8429389595985413
1772697782763416000,3.487416015625,0.1306440234184265,0.29604631662368774,-0.7990676164627075
1772697782773464800,3.49746484375,0.17592628300189972,0.2955504357814789,-0.7488023042678833
1772697782783513000,3.50751318359375,0.24928413331508636,0.23773932456970215,-0.7002797722816467
1772697782793561900,3.517561767578125,0.30347225069999695,0.154852956533432,-0.6602995991706848
1772697782803609900,3.52760986328125,0.3705176115036011,0.14246925711631775,-0.6501678824424744
1772697782813659000,3.537658935546875,0.5088036060333252,0.2662636339664459,-0.6489809155464172
1772697782823708200,3.547708251953125,0.6185577511787415,0.36477023363113403,-0.6514768600463867
1772697782833756000,3.557755859375,0.6724638938903809,0.3848411440849304,-0.612686812877655
1772697782843805200,3.56780517578125,0.6803998351097107,0.33627334237098694,-0.5592054724693298
1772697782853853000,3.57785302734375,0.6760077476501465,0.25084713101387024,-0.5200945734977722
1772697782863902000,3.58790185546875,0.6665844321250916,0.17646531760692596,-0.502842903137207
1772697782873950000,3.597949951171875,0.6361199617385864,0.06556649506092072,-0.5474146008491516
1772697782883999000,3.6079990234375,0.6297640800476074,-0.07201080769300461,-0.6453574299812317
1772697782894048000,3.618048095703125,0.6568532586097717,-0.2163677215576172,-0.7962579727172852
1772697782904096000,3.628095947265625,0.7127513885498047,-0.25049108266830444,-0.9520635604858398
1772697782914145300,3.638145263671875,0.7260490655899048,-0.160810187458992,-1.0684802532196045
1772697782924193000,3.648193115234375,0.7114142179489136,-0.021282918751239777,-1.1088111400604248
1772697782934242300,3.6582421875,0.6785614490509033,0.08037606626749039,-1.0928294658660889
1772697782944290000,3.6682900390625,0.664989173412323,0.1405925303697586,-1.0741868019104004
1772697782954339300,3.67833935546875,0.6787660121917725,0.09068010002374649,-1.113512396812439
1772697782964388000,3.68838818359375,0.6915622353553772,-0.02558019384741783,-1.1790684461593628
1772697782974436400,3.698436279296875,0.7155162692070007,-0.1622791886329651,-1.226844310760498
1772697782984485000,3.708485107421875,0.757481038570404,-0.265323281288147,-1.2521504163742065
1772697782994533400,3.718533447265625,0.7883862257003784,-0.25696495175361633,-1.297989845275879
1772697783004582100,3.72858203125,0.7712461352348328,-0.07592512667179108,-1.3221491575241089
1772697783014631200,3.738631103515625,0.7106701135635376,0.03602378070354462,-1.3260574340820312
1772697783024679200,3.74867919921875,0.6334802508354187,0.01750682108104229,-1.266537070274353
1772697783034728200,3.758728271484375,0.5488303303718567,0.05089753493666649,-1.0339739322662354
1772697783044776200,3.768776123046875,0.4580889940261841,0.06331265717744827,-0.6893238425254822
1772697783054825200,3.7788251953125,0.3069317042827606,-0.029328061267733574,-0.39124712347984314
1772697783064873200,3.788873291015625,0.14390870928764343,-0.19186930358409882,-0.2212221324443817
1772697783074922200,3.798922119140625,0.13172580301761627,-0.41742971539497375,-0.15862320363521576
1772697783084971300,3.80897119140625,0.24720579385757446,-0.5813835263252258,-0.11075208336114883
1772697783095019000,3.81901904296875,0.38084933161735535,-0.44556042551994324,0.06352837383747101
1772697783105068300,3.829068359375,0.4451047480106354,-0.09089422225952148,0.3038512170314789
1772697783115116000,3.839115966796875,0.47495293617248535,0.23665036261081696,0.4494856595993042
1772697783125165300,3.849165283203125,0.44675591588020325,0.40568917989730835,0.42081859707832336
1772697783135214000,3.859214111328125,0.35674721002578735,0.44310232996940613,0.30267971754074097
1772697783145262300,3.869262451171875,0.24827292561531067,0.3934170603752136,0.21043366193771362
1772697783155311000,3.87931103515625,0.15799762308597565,0.28171902894973755,0.2333696037530899
1772697783165359400,3.889359375,0.12543967366218567,0.11945023387670517,0.3520560562610626
1772697783175408000,3.899408203125,0.12665382027626038,0.00009720538218971342,0.5143328309059143
1772697783185456400,3.909456298828125,0.12613876163959503,-0.019632557407021523,0.6554926037788391
1772697783195505200,3.919505126953125,0.13157932460308075,0.01500877644866705,0.7471927404403687
1772697783205554200,3.92955419921875,0.1359727531671524,0.0335606224834919,0.7648712992668152
1772697783215602200,3.939602294921875,0.1183420866727829,0.024178840219974518,0.7078943252563477
1772697783225651200,3.949651123046875,0.06329881399869919,0.005390238016843796,0.6092790365219116
1772697783235699200,3.95969921875,-0.012057195417582989,0.0059961071237921715,0.505767822265625
1772697783245748200,3.969748291015625,-0.06728290021419525,0.039692286401987076,0.4120778441429138
1772697783255797200,3.97979736328125,-0.08432846516370773,0.08393910527229309,0.3280753493309021
1772697783265845200,3.98984521484375,-0.061701446771621704,0.1340014785528183,0.27183258533477783
1772697783275894300,3.999894287109375,-0.04237009212374687,0.19152894616127014,0.2501653730869293
1772697783285942300,4.0099423828125,-0.02135695330798626,0.21843060851097107,0.26274561882019043
1772697783295991300,4.0199912109375,-0.002927346620708704,0.24120968580245972,0.28190678358078003
1772697783306039000,4.0300390625,-0.0020120181143283844,0.2534719407558441,0.2833379805088043
1772697783316088300,4.04008837890625,0.008853678591549397,0.2555609345436096,0.25838547945022583
1772697783326137300,4.050137451171875,0.01823785901069641,0.24387897551059723,0.2168383002281189
1772697783336185300,4.060185302734375,0.04334214702248573,0.21623669564723969,0.17989785969257355
1772697783346234400,4.070234375,0.09373021870851517,0.14976312220096588,0.18466810882091522
1772697783356282000,4.0802822265625,0.12237757444381714,0.057501643896102905,0.2513022720813751
1772697783366331100,4.0903310546875,0.130179300904274,-0.039689354598522186,0.3696630001068115
1772697783376380200,4.100380126953125,0.11798655986785889,-0.11247701197862625,0.5214781165122986
1772697783386428200,4.11042822265625,0.08461741358041763,-0.20857052505016327,0.6731070280075073
1772697783396477200,4.120477294921875,0.027097132056951523,-0.2821022570133209,0.8190067410469055
1772697783406525200,4.130525146484375,-0.03936444967985153,-0.290986567735672,0.9461367130279541
1772697783416574200,4.14057421875,-0.09637553989887238,-0.2195616513490677,1.0157426595687866
1772697783426622200,4.150622314453125,-0.1566130518913269,-0.08630825579166412,1.0237689018249512
1772697783436671200,4.160671142578125,-0.20322687923908234,0.04127047583460808,0.9821261167526245
1772697783446720000,4.170719970703125,-0.25229084491729736,0.11838895827531815,0.9393797516822815
1772697783456768300,4.180768310546875,-0.29273971915245056,0.15272270143032074,0.9058508276939392
1772697783466817000,4.190817138671875,-0.30305761098861694,0.13999785482883453,0.8839148879051208
1772697783476865300,4.200865234375,-0.309627890586853,0.15020307898521423,0.8618804216384888
1772697783486914000,4.2109140625,-0.32038334012031555,0.17496329545974731,0.8455797433853149
1772697783496962300,4.22096240234375,-0.33887287974357605,0.20910847187042236,0.8467757701873779
1772697783507011000,4.231010986328125,-0.34349319338798523,0.22587014734745026,0.8439695835113525
1772697783517060400,4.241060302734375,-0.330097496509552,0.17591696977615356,0.8225796222686768
1772697783527108000,4.251108154296875,-0.31035467982292175,0.10825270414352417,0.7989538908004761
1772697783537157400,4.261157470703125,-0.30102455615997314,0.11356145143508911,0.7723180651664734
1772697783547205000,4.271205078125,-0.31034907698631287,0.1612727791070938,0.7205365896224976
1772697783557254400,4.28125439453125,-0.33226048946380615,0.20495234429836273,0.6835716366767883
1772697783567303200,4.29130322265625,-0.32195940613746643,0.22430340945720673,0.6698893904685974
1772697783577351200,4.30135107421875,-0.3232446312904358,0.26378875970840454,0.6752111911773682
1772697783587400200,4.311400146484375,-0.3067854940891266,0.2686743438243866,0.6547626256942749
1772697783597448200,4.3214482421875,-0.28431108593940735,0.2272869497537613,0.6012789011001587
1772697783607497200,4.331497314453125,-0.27948808670043945,0.20863710343837738,0.5485296845436096
1772697783617545200,4.341545166015625,-0.2690543830394745,0.17085403203964233,0.496461421251297
1772697783627594200,4.35159423828125,-0.2621397376060486,0.1543610692024231,0.45523303747177124
1772697783637643000,4.36164306640625,-0.2662271559238434,0.14882409572601318,0.44763609766960144
1772697783647691300,4.371691162109375,-0.2750760316848755,0.17887601256370544,0.4640480875968933
1772697783657740000,4.381739990234375,-0.2896523177623749,0.22043970227241516,0.5046349167823792
1772697783667788300,4.391788330078125,-0.29653018712997437,0.21018758416175842,0.5711976885795593
1772697783677837000,4.401837158203125,-0.32301852107048035,0.20421677827835083,0.6525200009346008
1772697783687885300,4.41188525390625,-0.3611171841621399,0.2199518084526062,0.7437329888343811
1772697783697934000,4.42193408203125,-0.4052039384841919,0.21482495963573456,0.8506224155426025
1772697783707983400,4.4319833984375,-0.4366462826728821,0.14598862826824188,0.9417752623558044
1772697783718031000,4.442031005859375,-0.4548575282096863,0.07294850796461105,1.0103518962860107
1772697783728080400,4.452080322265625,-0.46444544196128845,0.01426229253411293,1.0384306907653809
1772697783738128100,4.462128173828125,-0.4497684836387634,-0.025003885850310326,1.0410670042037964
1772697783748177400,4.472177490234375,-0.42532387375831604,-0.02509496733546257,1.0052934885025024
1772697783758226200,4.48222607421875,-0.40698719024658203,-0.013227388262748718,0.9325655102729797
1772697783768274400,4.4922744140625,-0.3947148323059082,0.01387160737067461,0.8553809523582458
1772697783778323200,4.5023232421875,-0.3817513585090637,0.04093225300312042,0.79506516456604
1772697783788371200,4.51237109375,-0.36761316657066345,0.0621214285492897,0.7658563852310181
1772697783798420200,4.522420166015625,-0.3600729703903198,0.09687301516532898,0.7819541692733765
1772697783808468200,4.53246826171875,-0.3586164712905884,0.132530078291893,0.8395364880561829
1772697783818517200,4.542517333984375,-0.3554646372795105,0.16738739609718323,0.9129164218902588
1772697783828566300,4.552566162109375,-0.36906591057777405,0.19775861501693726,0.99344801902771
1772697783838614300,4.5626142578125,-0.3804328143596649,0.22508637607097626,1.0561569929122925
1772697783848663000,4.5726630859375,-0.37459278106689453,0.24049410223960876,1.0546258687973022
1772697783858711300,4.582711181640625,-0.3705679476261139,0.2316950112581253,0.992024838924408
1772697783868760000,4.592760009765625,-0.3640250861644745,0.15920616686344147,0.8918439149856567
1772697783878809000,4.60280908203125,-0.35816293954849243,0.0666583925485611,0.7994692325592041
1772697783888857000,4.612857177734375,-0.3591887950897217,0.00007270430069183931,0.7192833423614502
1772697783898906000,4.622906005859375,-0.35294821858406067,-0.030412767082452774,0.6702180504798889
1772697783908954400,4.632954345703125,-0.3580939769744873,-0.07767348736524582,0.66200190782547
1772697783919003100,4.643003173828125,-0.3790828585624695,-0.13400466740131378,0.6917638182640076
1772697783929051400,4.653051513671875,-0.40758055448532104,-0.18752674758434296,0.7549476027488708
1772697783939100200,4.66310009765625,-0.4383954703807831,-0.22264745831489563,0.8172690272331238
1772697783949149400,4.6731494140625,-0.4565798044204712,-0.24832192063331604,0.8740345239639282
1772697783959197200,4.683197265625,-0.4657445251941681,-0.2685563564300537,0.9051018953323364
1772697783969246500,4.69324658203125,-0.43784230947494507,-0.2661302089691162,0.8743165731430054
1772697783979294200,4.703294189453125,-0.36975622177124023,-0.1975700706243515,0.7566165924072266
1772697783989343500,4.713343505859375,-0.2914731204509735,-0.08050869405269623,0.5982698202133179
1772697783999392300,4.723392333984375,-0.20331397652626038,0.043539486825466156,0.44532448053359985
1772697784009440500,4.7334404296875,-0.1625673472881317,0.12206731736660004,0.2789309620857239
1772697784019489300,4.7434892578125,-0.19621451199054718,0.15982535481452942,0.11227860301733017
1772697784029537500,4.75353759765625,-0.24308589100837708,0.19951631128787994,-0.021136710420250893
1772697784039586300,4.76358642578125,-0.21861489117145538,0.25405651330947876,-0.11557400226593018
1772697784049634300,4.77363427734375,-0.18837231397628784,0.3115632236003876,-0.14883795380592346
1772697784059683300,4.783683349609375,-0.19087673723697662,0.28411588072776794,-0.09449934214353561
1772697784069732400,4.793732421875,-0.23882588744163513,0.11987154185771942,0.0893368050456047
1772697784079780400,4.8037802734375,-0.3074480891227722,-0.042515769600868225,0.32534268498420715
1772697784089829400,4.813829345703125,-0.35720446705818176,-0.09147132933139801,0.49915680289268494
1772697784099877400,4.82387744140625,-0.3526099920272827,-0.08583074808120728,0.5738856196403503
1772697784109926100,4.833926025390625,-0.32905805110931396,-0.06915377080440521,0.5753964781761169
1772697784119974400,4.843974365234375,-0.31175416707992554,-0.0713503435254097,0.5287610292434692
1772697784130023200,4.854023193359375,-0.31391477584838867,-0.13401798903942108,0.4729563593864441
1772697784140072400,4.864072509765625,-0.3246004581451416,-0.27902951836586,0.4288509488105774
1772697784150120200,4.8741201171875,-0.33211109042167664,-0.45752042531967163,0.38728272914886475
1772697784160169500,4.88416943359375,-0.342467337846756,-0.6003774404525757,0.32087308168411255
1772697784170217200,4.89421728515625,-0.3277064859867096,-0.6333169937133789,0.2122052013874054
1772697784180266500,4.9042666015625,-0.289459228515625,-0.5331888198852539,0.04325133189558983
1772697784190315300,4.914315185546875,-0.2234160453081131,-0.30757325887680054,-0.15324121713638306
1772697784200363500,4.924363525390625,-0.1509205400943756,-0.031247934326529503,-0.3656906187534332
1772697784210412300,4.934412353515625,-0.07888522744178772,0.1798725575208664,-0.5607770085334778
1772697784220460300,4.944460205078125,-0.006915430538356304,0.2812252938747406,-0.6901464462280273
1772697784230509300,4.95450927734375,0.02689526416361332,0.32672297954559326,-0.7234596610069275
1772697784240557300,4.964557373046875,0.01776275224983692,0.3388470411300659,-0.7218671441078186
1772697784250606300,4.9746064453125,0.006325540132820606,0.2916422486305237,-0.714680552482605
1772697784260655400,4.9846552734375,0.019359316676855087,0.23242472112178802,-0.7376015782356262
1772697784270703400,4.994703369140625,0.052927128970623016,0.2001512050628662,-0.809566855430603
1772697784280752400,5.00475244140625,0.10791315138339996,0.18150454759597778,-0.867317259311676
1772697784290800400,5.01480029296875,0.16037343442440033,0.12757207453250885,-0.8697758913040161
1772697784300849400,5.024849365234375,0.19700680673122406,0.005078648217022419,-0.7904887795448303
1772697784310898200,5.034898193359375,0.21507689356803894,-0.11934690177440643,-0.6473992466926575
1772697784320946200,5.0449462890625,0.222059428691864,-0.24645212292671204,-0.46147868037223816
1772697784330995200,5.0549951171875,0.22172972559928894,-0.4281982183456421,-0.2894158363342285
1772697784341043200,5.065043212890625,0.22122932970523834,-0.6234617233276367,-0.17566636204719543
1772697784351092200,5.07509228515625,0.21566012501716614,-0.7408967614173889,-0.12140392512083054
1772697784361140200,5.08514013671875,0.18601886928081512,-0.7969017028808594,-0.13246643543243408
1772697784371189200,5.095189208984375,0.1557760089635849,-0.8288798332214355,-0.1968797743320465
1772697784381238300,5.10523828125,0.1400361955165863,-0.8432079553604126,-0.31184524297714233
1772697784391286300,5.115286376953125,0.14546744525432587,-0.8216927647590637,-0.5248813629150391
1772697784401335300,5.125335205078125,0.14628158509731293,-0.8102438449859619,-0.8343667387962341
1772697784411383300,5.13538330078125,0.16243205964565277,-0.8091820478439331,-1.1502701044082642
1772697784421432300,5.145432373046875,0.18253998458385468,-0.748150646686554,-1.3401862382888794
1772697784431480300,5.155480224609375,0.20611988008022308,-0.6430870890617371,-1.3855845928192139
1772697784441529300,5.165529296875,0.24689340591430664,-0.5243276953697205,-1.3054996728897095
1772697784451578400,5.175578369140625,0.2850903272628784,-0.40828123688697815,-1.1553149223327637
1772697784461626400,5.18562646484375,0.2869947552680969,-0.3507777154445648,-0.982603132724762
1772697784471675400,5.19567529296875,0.2753303647041321,-0.30725154280662537,-0.8350051045417786
1772697784481723400,5.205723388671875,0.2680564820766449,-0.3032269775867462,-0.7111308574676514
1772697784491772400,5.2157724609375,0.2525659501552582,-0.30884119868278503,-0.6400018334388733
1772697784501821200,5.2258212890625,0.22609199583530426,-0.2830463647842407,-0.6093615889549255
1772697784511869400,5.235869384765625,0.14397022128105164,-0.21055510640144348,-0.6192160844802856
1772697784521918200,5.245918212890625,0.020495155826210976,-0.17672070860862732,-0.6217399835586548
1772697784531966500,5.255966552734375,-0.0296684131026268,-0.17261305451393127,-0.584365963935852
1772697784542015200,5.26601513671875,-0.03599874675273895,-0.19068126380443573,-0.5492426156997681
1772697784552063200,5.276063232421875,-0.007182012777775526,-0.17745999991893768,-0.5460582971572876
1772697784562112300,5.2861123046875,0.06347724050283432,-0.07629343867301941,-0.5600449442863464
1772697784572160300,5.29616015625,0.1615564078092575,0.05818900465965271,-0.587721586227417
1772697784582209300,5.306209228515625,0.2536250650882721,0.17700353264808655,-0.6203588843345642
1772697784592258300,5.31625830078125,0.31686317920684814,0.22289006412029266,-0.6192757487297058
1772697784602306300,5.326306396484375,0.33164265751838684,0.18204782903194427,-0.5496482253074646
1772697784612355300,5.336355224609375,0.3319036364555359,0.09208571910858154,-0.45037567615509033
1772697784622403300,5.3464033203125,0.3501838445663452,-0.017675666138529778,-0.3564550578594208
1772697784632452400,5.356452392578125,0.37079909443855286,-0.06899451464414597,-0.28771674633026123
1772697784642500400,5.366500244140625,0.39063647389411926,-0.034451715648174286,-0.25253742933273315
1772697784652549400,5.37654931640625,0.408108115196228,0.03130625560879707,-0.24434396624565125
1772697784662598400,5.386598388671875,0.43995288014411926,0.09530042111873627,-0.24880555272102356
1772697784672646400,5.396646484375,0.4671994149684906,0.13864202797412872,-0.26665619015693665
1772697784682695400,5.4066953125,0.49150875210762024,0.15408171713352203,-0.31350892782211304
1772697784692743400,5.416743408203125,0.537224292755127,0.12337413430213928,-0.41006210446357727
1772697784702792400,5.42679248046875,0.5799978375434875,0.10058839619159698,-0.5382722616195679
1772697784712841200,5.43684130859375,0.6042896509170532,0.10658050328493118,-0.6570298075675964
1772697784722889500,5.446889404296875,0.6169366836547852,0.10702898353338242,-0.7459620833396912
1772697784732938200,5.456938232421875,0.597518265247345,0.0833636000752449,-0.7728953957557678
1772697784742986500,5.466986572265625,0.5744467973709106,0.0328972302377224,-0.7525305151939392
1772697784753035300,5.47703515625,0.5579961538314819,-0.05890858918428421,-0.7123242020606995
1772697784763084300,5.487084228515625,0.5357182621955872,-0.16750936210155487,-0.7082008123397827
1772697784773132300,5.49713232421875,0.500907838344574,-0.24000674486160278,-0.7531507611274719
1772697784783181300,5.507181396484375,0.47450658679008484,-0.31263646483421326,-0.8352162837982178
1772697784793229300,5.517229248046875,0.460295170545578,-0.38428589701652527,-0.9428423643112183
1772697784803278300,5.5272783203125,0.46085843443870544,-0.4394966661930084,-1.063519835472107
1772697784813326300,5.537326416015625,0.4782094657421112,-0.46519219875335693,-1.1631438732147217
1772697784823375000,5.547375,0.5167206525802612,-0.43335941433906555,-1.2020199298858643
1772697784833424400,5.55742431640625,0.5864325761795044,-0.3701418340206146,-1.176051378250122
1772697784843472100,5.56747216796875,0.6609758138656616,-0.30992668867111206,-1.1118950843811035
1772697784853521400,5.577521484375,0.7290898561477661,-0.2841646075248718,-1.0518673658370972
1772697784863569200,5.587569091796875,0.7764416933059692,-0.2791336476802826,-1.0074222087860107
1772697784873618400,5.597618408203125,0.8094581961631775,-0.31578484177589417,-1.00129234790802
1772697784883666200,5.607666259765625,0.7796228528022766,-0.336081326007843,-1.0637357234954834
1772697784893715500,5.617715576171875,0.6702321767807007,-0.28852394223213196,-1.1414817571640015
1772697784903764200,5.62776416015625,0.5523436069488525,-0.3372294306755066,-1.1752545833587646
1772697784913812000,5.63781201171875,0.4469798803329468,-0.36719372868537903,-1.086919903755188
1772697784923861000,5.647861083984375,0.37556830048561096,-0.29106274247169495,-0.812408983707428
1772697784933909000,5.657908935546875,0.26425614953041077,-0.2876371145248413,-0.5352884531021118
1772697784943958000,5.6679580078125,0.06782831251621246,-0.45492222905158997,-0.49727556109428406
1772697784954006800,5.6780068359375,-0.02262674830853939,-0.7468965649604797,-0.6720178127288818
1772697784964055000,5.688054931640625,0.10007866472005844,-0.7709451913833618,-0.6972610950469971
1772697784974103800,5.698103759765625,0.3157518208026886,-0.3495553433895111,-0.36317315697669983
1772697784984151800,5.70815185546875,0.4932935833930969,0.11067085713148117,0.07808654755353928
1772697784994200800,5.718200927734375,0.5452521443367004,0.3669673502445221,0.3798120319843292
1772697785004248800,5.728248779296875,0.533848226070404,0.397500216960907,0.4452240765094757
1772697785014297900,5.7382978515625,0.5161584615707397,0.36379870772361755,0.2998724579811096
1772697785024347100,5.74834716796875,0.4478400945663452,0.4141963720321655,0.050446927547454834
1772697785034395000,5.758394775390625,0.3489049971103668,0.5917258858680725,-0.09335258603096008
1772697785044444000,5.76844384765625,0.3374730944633484,0.6809945106506348,-0.04379328712821007
1772697785054492000,5.778491943359375,0.4492265284061432,0.6514334082603455,0.14895352721214294
1772697785064541000,5.788541015625,0.5387745499610901,0.5686975121498108,0.3327276110649109
1772697785074590000,5.79858984375,0.553210973739624,0.3638586401939392,0.4021386504173279
1772697785084638000,5.808637939453125,0.4991389811038971,0.08274521678686142,0.3660925030708313
1772697785094687000,5.81868701171875,0.40773794054985046,-0.1688782274723053,0.2491416484117508
1772697785104735000,5.82873486328125,0.33816978335380554,-0.34789806604385376,0.10564786940813065
1772697785114784000,5.838783935546875,0.2927809953689575,-0.46768757700920105,-0.033369675278663635
1772697785124832000,5.84883203125,0.25206446647644043,-0.5285820960998535,-0.12990926206111908
1772697785134881000,5.858881103515625,0.2020457684993744,-0.5000013113021851,-0.1633300632238388
1772697785144929800,5.8689296875,0.18239857256412506,-0.4078846871852875,-0.12753479182720184
1772697785154978000,5.87897802734375,0.19555965065956116,-0.2712858319282532,-0.04693608358502388
1772697785165026800,5.88902685546875,0.21575891971588135,-0.06682829558849335,0.06661977618932724
1772697785175075000,5.899074951171875,0.22003675997257233,0.18368513882160187,0.1778072863817215
1772697785185123800,5.909123779296875,0.20174403488636017,0.365963339805603,0.2836591303348541
1772697785195173000,5.919173095703125,0.15987755358219147,0.4233856201171875,0.3617302477359772
1772697785205220900,5.929220947265625,0.10359616577625275,0.3746276795864105,0.40111440420150757
1772697785215270100,5.939270263671875,0.0667625218629837,0.2570008933544159,0.42517074942588806
1772697785225318000,5.94931787109375,0.058825232088565826,0.11512898653745651,0.4605140686035156
1772697785235367200,5.9593671875,0.06485836207866669,-0.06590018421411514,0.5331730842590332
1772697785245415000,5.969414794921875,0.06337391585111618,-0.16846224665641785,0.6232529282569885
1772697785255464200,5.979464111328125,0.0451485700905323,-0.11504562944173813,0.6659072041511536
1772697785265513000,5.989512939453125,0.00939003936946392,0.0733165591955185,0.6336057186126709
1772697785275561000,5.99956103515625,-0.023960193619132042,0.24949026107788086,0.5624210238456726
1772697785285610000,6.00960986328125,-0.05678738281130791,0.33330658078193665,0.5118462443351746
1772697785295658000,6.019657958984375,-0.08227676153182983,0.35662683844566345,0.4932190179824829
1772697785305707000,6.02970703125,-0.10033059865236282,0.35537275671958923,0.47067058086395264
1772697785315755800,6.039755859375,-0.11306823045015335,0.3488384187221527,0.42812976241111755
1772697785325804000,6.049803955078125,-0.11971761286258698,0.33392950892448425,0.4052010178565979
1772697785335852800,6.059852783203125,-0.1195431724190712,0.3225727081298828,0.4077850878238678
1772697785345901000,6.069901123046875,-0.13910728693008423,0.31121566891670227,0.4266645014286041
1772697785355949800,6.07994970703125,-0.17508526146411896,0.3133009374141693,0.42865920066833496
1772697785365998000,6.089998046875,-0.21658530831336975,0.30908992886543274,0.41305387020111084
1772697785376046800,6.100046875,-0.25019413232803345,0.3078787326812744,0.37380874156951904
1772697785386096000,6.11009619140625,-0.2787940800189972,0.30724677443504333,0.32857203483581543
1772697785396143900,6.120143798828125,-0.28823766112327576,0.3203282058238983,0.28595930337905884
1772697785406193000,6.13019287109375,-0.2961975634098053,0.33203867077827454,0.25293025374412537
1772697785416241000,6.140240966796875,-0.31089717149734497,0.34148621559143066,0.24490322172641754
1772697785426290000,6.1502900390625,-0.32440125942230225,0.3370528519153595,0.2773194909095764
1772697785436339000,6.1603388671875,-0.34461358189582825,0.31750980019569397,0.3327784836292267
1772697785446387000,6.170386962890625,-0.3703668713569641,0.30866116285324097,0.3988078236579895
1772697785456436000,6.18043603515625,-0.39593055844306946,0.3010820746421814,0.4628371596336365
1772697785466484000,6.19048388671875,-0.41755810379981995,0.2935674488544464,0.5085569620132446
1772697785476533000,6.200532958984375,-0.44221922755241394,0.2740030586719513,0.5345454216003418
1772697785486580700,6.210580810546875,-0.4616672396659851,0.2387246936559677,0.5510626435279846
1772697785496630000,6.220630126953125,-0.4770507216453552,0.19417986273765564,0.5499025583267212
1772697785506679000,6.230678955078125,-0.4944155812263489,0.1450783610343933,0.5527225732803345
1772697785516727000,6.24072705078125,-0.5022988319396973,0.11862731724977493,0.5599482655525208
1772697785526776000,6.250776123046875,-0.5196120142936707,0.10923301428556442,0.5824980139732361
1772697785536824000,6.260823974609375,-0.5382464528083801,0.08340834081172943,0.6420329809188843
1772697785546872800,6.270872802734375,-0.5624803900718689,0.06295180320739746,0.7154465317726135
1772697785556921900,6.280921875,-0.5857252478599548,0.08144612610340118,0.7678825259208679
1772697785566969900,6.290969970703125,-0.600496232509613,0.09829407930374146,0.7962393760681152
1772697785577019000,6.301018798828125,-0.6033596396446228,0.081106036901474,0.8097431659698486
1772697785587067000,6.31106689453125,-0.6079890131950378,0.042763177305459976,0.8184407949447632
1772697785597116000,6.321115966796875,-0.6232598423957825,0.009687514975667,0.8185840845108032
1772697785607164000,6.331163818359375,-0.6375799179077148,-0.013248161412775517,0.8121520280838013
1772697785617213000,6.341212890625,-0.6460801959037781,-0.001782453735359013,0.8131189942359924
1772697785627262000,6.351261962890625,-0.6458365321159363,0.047749679535627365,0.8090012073516846
1772697785637310000,6.36131005859375,-0.62485271692276,0.1290796846151352,0.7905649542808533
1772697785647359000,6.37135888671875,-0.5950835943222046,0.2222045660018921,0.7614398002624512
1772697785657407000,6.381406982421875,-0.5699159502983093,0.2862709164619446,0.732006311416626
1772697785667456000,6.3914560546875,-0.5542216897010803,0.31880754232406616,0.7253915667533875
1772697785677505000,6.401505126953125,-0.5472391247749329,0.3260774314403534,0.7427540421485901
1772697785687553000,6.411552978515625,-0.53363037109375,0.31073683500289917,0.766158938407898
1772697785697602000,6.42160205078125,-0.5221430659294128,0.27524861693382263,0.8049651980400085
1772697785707650000,6.431650146484375,-0.5177065134048462,0.24526329338550568,0.8378573656082153
1772697785717699000,6.441698974609375,-0.5032088160514832,0.22293055057525635,0.8648892641067505
1772697785727747800,6.451747802734375,-0.4963109493255615,0.2170577496290207,0.8727903366088867
1772697785737796000,6.461796142578125,-0.4649825990200043,0.2385862022638321,0.8546475172042847
1772697785747844900,6.471844970703125,-0.44502219557762146,0.26866209506988525,0.8132793307304382
1772697785757892900,6.481892822265625,-0.44817590713500977,0.25361549854278564,0.7984750866889954
1772697785767942000,6.49194189453125,-0.4581172466278076,0.2106746882200241,0.7897273898124695
1772697785777990000,6.501989990234375,-0.48547428846359253,0.13820341229438782,0.7924296855926514
1772697785788039000,6.512038818359375,-0.4912211298942566,-0.005345763172954321,0.8123828768730164
1772697785798088200,6.522088134765625,-0.468069463968277,-0.14789998531341553,0.8232507109642029
1772697785808136000,6.532135986328125,-0.4706263542175293,-0.28946056962013245,0.7928374409675598
1772697785818185000,6.54218505859375,-0.5439754128456116,-0.4271220266819,0.7195025086402893
1772697785828233000,6.55223291015625,-0.571294367313385,-0.621361255645752,0.6194393038749695
1772697785838282000,6.562281982421875,-0.5616947412490845,-0.6337665319442749,0.48117247223854065
1772697785848331000,6.5723310546875,-0.5729106664657593,-0.38644465804100037,0.2812550961971283
1772697785858379000,6.58237890625,-0.6021332740783691,-0.007617173250764608,0.09179090708494186
1772697785868428000,6.592427978515625,-0.6469036340713501,0.24330799281597137,-0.008723716251552105
1772697785878476000,6.60247607421875,-0.7249079346656799,0.28851115703582764,0.059896621853113174
1772697785888525000,6.612525146484375,-0.7604009509086609,0.2535571753978729,0.25762248039245605
1772697785898572800,6.62257275390625,-0.6937124729156494,0.2057451754808426,0.4846748113632202
1772697785908622000,6.6326220703125,-0.5714978575706482,0.1675029844045639,0.6375951170921326
1772697785918671000,6.642671142578125,-0.4863147735595703,0.11670557409524918,0.6798173785209656
1772697785928719000,6.652718994140625,-0.47671329975128174,0.04704713821411133,0.6711069941520691
1772697785938768100,6.66276806640625,-0.4684537649154663,-0.06240691989660263,0.6613643765449524
1772697785948816100,6.672816162109375,-0.4121635854244232,-0.17827892303466797,0.6514688730239868
1772697785958865200,6.682865234375,-0.37463486194610596,-0.29369819164276123,0.6526675224304199
1772697785968914000,6.692913818359375,-0.3659540116786957,-0.35506436228752136,0.6461979150772095
1772697785978962200,6.702962158203125,-0.3689732551574707,-0.3651699721813202,0.623075544834137
1772697785989011000,6.713010986328125,-0.40874356031417847,-0.35134124755859375,0.5959848165512085
1772697785999059200,6.72305908203125,-0.4160451591014862,-0.2870781123638153,0.5801600813865662
1772697786009108000,6.73310791015625,-0.3467893898487091,-0.17959026992321014,0.6339577436447144
1772697786019156200,6.74315625,0.04523219168186188,-1.1080430746078491,1.06217360496521
1772697786029205000,6.753205078125,0.13675439357757568,-2.313873291015625,1.5503547191619873
1772697786039254300,6.763254150390625,-0.008042746223509312,-2.517280340194702,1.6298580169677734
1772697786049302000,6.773302001953125,-0.10249042510986328,-2.309540033340454,1.4650925397872925
1772697786059351300,6.783351318359375,-0.25009292364120483,-1.519164800643921,0.9950299263000488
1772697786069399000,6.79339892578125,-0.37473711371421814,-0.649148166179657,0.43640580773353577
1772697786079448300,6.8034482421875,-0.36751648783683777,-0.13149410486221313,0.13357403874397278
1772697786089497000,6.8134970703125,-0.2885495126247406,-0.0946412906050682,0.15727324783802032
1772697786099545300,6.82354541015625,-0.21040916442871094,-0.1548769325017929,0.26339489221572876
1772697786109594000,6.833593994140625,-0.13640205562114716,-0.0972173660993576,0.2991139888763428
1772697786119642000,6.84364208984375,-0.044853225350379944,-0.0068150293081998825,0.29342442750930786
1772697786129691100,6.853691162109375,0.03862941637635231,0.07589343190193176,0.24273034930229187
1772697786139739100,6.8637392578125,0.09494808316230774,0.1528843492269516,0.134677916765213
1772697786149788200,6.8737880859375,0.10475011169910431,0.10777732729911804,0.04333256185054779
1772697786159837000,6.8838369140625,0.08222509920597076,0.05499161407351494,-0.009711217135190964
1772697786169885200,6.89388525390625,0.0848294049501419,0.010321879759430885,-0.025055019184947014
1772697786179934000,6.903933837890625,0.12488414347171783,-0.1369224339723587,0.023130353540182114
1772697786189982200,6.913982177734375,0.18040919303894043,-0.504788875579834,0.1535767763853073
1772697786200031000,6.924031005859375,0.2521073520183563,-0.7601721882820129,0.27438148856163025
1772697786210080300,6.934080322265625,0.36056751012802124,-0.9362108111381531,0.42894816398620605
1772697786220128000,6.9441279296875,0.5110102891921997,-1.0913524627685547,0.6563051342964172
1772697786230177300,6.95417724609375,0.7091957926750183,-1.1376291513442993,0.9171782732009888
1772697786240225000,6.96422509765625,0.9248324632644653,-1.080644965171814,1.1874984502792358
1772697786250274300,6.9742744140625,1.1450141668319702,-0.9269161224365234,1.4506640434265137
1772697786260322000,6.984322021484375,1.3534144163131714,-0.8160607218742371,1.6344956159591675
1772697786270371000,6.99437109375,1.5466060638427734,-0.8814325332641602,1.738301396369934
1772697786280420000,7.004420166015625,1.6603235006332397,-1.1552199125289917,1.754815936088562
1772697786290468000,7.014468017578125,1.7027628421783447,-1.510918378829956,1.6614034175872803
1772697786300517000,7.02451708984375,1.6990398168563843,-1.8829792737960815,1.435827612876892
1772697786310565000,7.034565185546875,1.729012370109558,-2.3380112648010254,1.0965126752853394
1772697786320614100,7.0446142578125,1.6648669242858887,-2.8383491039276123,0.7326419949531555
1772697786330663200,7.0546630859375,1.5290520191192627,-3.2481064796447754,0.5096272826194763
1772697786340711200,7.064711181640625,1.4620972871780396,-3.2703561782836914,0.2252139449119568
1772697786350760200,7.07476025390625,1.3947349786758423,-3.2662928104400635,0.038829952478408813
1772697786360808200,7.08480810546875,1.309775948524475,-3.2512173652648926,-0.042092591524124146
1772697786370857200,7.094857177734375,1.2258762121200562,-2.9658164978027344,-0.07851558178663254
1772697786380905200,7.1049052734375,1.1555074453353882,-2.329775333404541,-0.10536050796508789
1772697786390954000,7.1149541015625,1.0365430116653442,-1.495545506477356,-0.10312052816152573
1772697786401003000,7.1250029296875,0.9449684023857117,-0.7545193433761597,-0.11117685586214066
1772697786411051000,7.135051025390625,0.9186414480209351,-0.12380849570035934,-0.09100367873907089
1772697786421100000,7.14510009765625,1.0162640810012817,0.34389346837997437,-0.128121480345726
1772697786431148000,7.15514794921875,1.2126858234405518,0.6467087268829346,-0.17845389246940613
1772697786441197000,7.165197021484375,1.273878574371338,0.8963249325752258,-0.36390364170074463
1772697786451246000,7.17524609375,1.1171406507492065,0.8944926857948303,-0.42970770597457886
1772697786461294000,7.185294189453125,0.8962892293930054,0.7263936996459961,-0.833320140838623
1772697786471343000,7.195343017578125,0.6993434429168701,0.4242282509803772,-1.2536753416061401
1772697786481391000,7.20539111328125,0.5294913053512573,0.2646780014038086,-1.5555862188339233
1772697786491440000,7.215440185546875,0.4718695282936096,0.2256573587656021,-1.6110694408416748
1772697786501488000,7.225488037109375,0.45245561003685,0.13550269603729248,-1.6108415126800537
1772697786511537200,7.235537109375,0.40095993876457214,-0.10129333287477493,-1.6493315696716309
1772697786521586200,7.245586181640625,0.29253360629081726,-0.32787108421325684,-1.6690248250961304
1772697786531634200,7.25563427734375,0.1585736721754074,-0.4548601806163788,-1.6710747480392456
1772697786542939100,7.266939208984375,0.009072324261069298,-0.5955075621604919,-1.5206761360168457
1772697786552988200,7.27698828125,-0.15906421840190887,-0.5920063257217407,-1.2912580966949463
1772697786563036200,7.2870361328125,-0.24225923418998718,-0.5064511895179749,-1.017192006111145
1772697786573085200,7.297085205078125,-0.1690518707036972,-0.3174181878566742,-0.8466482162475586
1772697786583133200,7.30713330078125,-0.0403016172349453,-0.1920860856771469,-0.7493959665298462
1772697786593182200,7.31718212890625,0.034692201763391495,-0.054417435079813004,-0.643156886100769
1772697786603231200,7.327231201171875,-0.00016192019393201917,0.14462429285049438,-0.4925668239593506
1772697786613279200,7.337279296875,-0.027215907350182533,0.285491406917572,-0.24384355545043945
1772697786623328300,7.347328369140625,-0.06864670664072037,0.2035834789276123,0.0036962011363357306
1772697786633376000,7.3573759765625,-0.11917059868574142,-0.27066025137901306,-0.037468813359737396
1772697786643425300,7.36742529296875,-0.16963456571102142,-0.6717690825462341,-0.33044421672821045
1772697786653474000,7.37747412109375,-0.1680459976196289,-0.7840998768806458,-0.6032952070236206
1772697786663522300,7.387522216796875,-0.22215823829174042,-0.7905745506286621,-0.7264200448989868
1772697786673571000,7.397571044921875,-0.3196070194244385,-0.9070287346839905,-0.7281036972999573
1772697786683619000,7.407619140625,-0.3781507611274719,-0.9655775427818298,-0.6201692819595337
1772697786693668000,7.417668212890625,-0.41511890292167664,-0.9016725420951843,-0.4585968554019928
1772697786703716000,7.427716064453125,-0.4713062644004822,-0.8660829067230225,-0.32844287157058716
1772697786713765000,7.43776513671875,-0.5247119665145874,-0.9075514674186707,-0.2569630742073059
1772697786723814000,7.44781396484375,-0.5838232040405273,-0.8048363327980042,-0.3282164931297302
1772697786733862100,7.457862060546875,-0.5608111023902893,-0.751352846622467,-0.411545991897583
1772697786743911000,7.467910888671875,-0.4813746213912964,-0.6852151155471802,-0.44635164737701416
1772697786753959200,7.477959228515625,-0.3906436562538147,-0.5796340703964233,-0.4125124514102936
1772697786764008000,7.488008056640625,-0.32238948345184326,-0.511814534664154,-0.38417962193489075
1772697786774057200,7.49805712890625,-0.24639593064785004,-0.5626694560050964,-0.35925403237342834
1772697786784105000,7.50810498046875,-0.17578354477882385,-0.6091046333312988,-0.38794347643852234
1772697786794154200,7.518154296875,-0.1685948669910431,-0.5971347689628601,-0.5005081295967102
1772697786804202000,7.528201904296875,-0.22843477129936218,-0.6955553293228149,-0.6272061467170715
1772697786814251300,7.538251220703125,-0.23307959735393524,-0.7306278347969055,-0.6857820749282837
1772697786824299000,7.548299072265625,-0.21164913475513458,-0.7735731601715088,-0.7302736639976501
1772697786834348300,7.558348388671875,-0.2041637897491455,-0.7262738347053528,-0.7386703491210938
1772697786844397000,7.56839697265625,-0.19503100216388702,-0.7238572835922241,-0.6976954936981201
1772697786854445300,7.5784453125,-0.1470285952091217,-0.804401695728302,-0.6069841980934143
1772697786864494000,7.588494140625,-0.08690187335014343,-0.930075466632843,-0.5325219631195068
1772697786874542300,7.598542236328125,-0.08580572158098221,-0.9357842206954956,-0.5205206871032715
1772697786884591000,7.608591064453125,-0.17895349860191345,-0.8415660858154297,-0.5075505375862122
1772697786894640000,7.61864013671875,-0.17677077651023865,-0.533488929271698,-0.4961053729057312
1772697786904687600,7.6286875,-0.17586876451969147,-0.35808464884757996,-0.4774334132671356
1772697786914736600,7.638736572265625,-0.16458602249622345,-0.17149612307548523,-0.49951499700546265
1772697786924784600,7.64878466796875,-0.20338401198387146,0.016650615260004997,-0.5229678750038147
1772697786934833700,7.658833740234375,-0.29480740427970886,0.28852900862693787,-0.5229945182800293
1772697786944883000,7.668883056640625,-0.3714396059513092,0.3648163080215454,-0.5045289397239685
1772697786954930700,7.6789306640625,-0.42700645327568054,0.542738139629364,-0.33285704255104065
1772697786964979700,7.688979736328125,-0.35791075229644775,0.5328977108001709,-0.14806775748729706
1772697786975027700,7.69902783203125,-0.38845133781433105,0.4688210189342499,-0.06881528347730637
1772697786985076700,7.70907666015625,-0.4021224081516266,0.33602115511894226,-0.0676024779677391
1772697786995124700,7.719124755859375,-0.4071078598499298,0.2767157554626465,-0.09210995584726334
1772697787005173800,7.729173828125,-0.40644338726997375,0.27222752571105957,-0.14584961533546448
1772697787015222800,7.739222900390625,-0.34941473603248596,0.32335594296455383,-0.2242882251739502
1772697787025270800,7.749270751953125,-0.33380407094955444,0.48498401045799255,-0.1590208113193512
1772697787035319800,7.75931982421875,-0.27442967891693115,0.4779468774795532,-0.13274340331554413
1772697787045367800,7.769367919921875,-0.24536049365997314,0.5297623872756958,-0.10700075328350067
1772697787055416800,7.779416748046875,-0.2634955644607544,0.5983622074127197,-0.12735183537006378
1772697787065465600,7.789465576171875,-0.02480095438659191,0.40539994835853577,-0.13339294493198395
1772697787075513900,7.799513916015625,-0.07863515615463257,0.27364593744277954,-0.023152990266680717
1772697787085562600,7.809562744140625,-0.3589230179786682,0.31768369674682617,0.048561941832304
1772697787095611000,7.81961083984375,-0.2822260856628418,0.3379857540130615,0.14424319565296173
1772697787105659600,7.82965966796875,-0.22449995577335358,0.22611676156520844,0.20637580752372742
1772697787115709000,7.839708984375,0.03718758374452591,0.0009398295660503209,0.32254210114479065
1772697787125756700,7.849756591796875,0.3333718478679657,-0.334028035402298,0.46368804574012756
1772697787135806000,7.859805908203125,0.1506744623184204,-0.21815097332000732,0.3547500967979431
1772697787145853700,7.869853759765625,-0.12476909905672073,0.11450127512216568,0.21362467110157013
1772697787155903000,7.879903076171875,-0.16186879575252533,0.2576315402984619,0.16466350853443146
1772697787165950700,7.88995068359375,-0.25967150926589966,0.20733055472373962,0.1919902116060257
1772697787175999700,7.899999755859375,-0.2966516315937042,0.07857336848974228,0.2345496565103531
1772697787186048800,7.910048828125,-0.3626503646373749,0.08816341310739517,0.2665424644947052
1772697787196096800,7.9200966796875,-0.4409904479980469,0.11201894283294678,0.29334667325019836
1772697787206145800,7.930145751953125,-0.4867568612098694,0.089090995490551,0.28365620970726013
1772697787216193800,7.94019384765625,-0.47078269720077515,0.050815243273973465,0.2697845995426178
1772697787226242800,7.950242919921875,-0.4549155831336975,-0.011928032152354717,0.26561036705970764
1772697787236291600,7.96029150390625,-0.432689905166626,-0.07444200664758682,0.31122153997421265
1772697787246339800,7.97033984375,-0.4190409481525421,-0.10741327702999115,0.44750985503196716
1772697787256388600,7.980388671875,-0.2970718741416931,0.025904567912220955,0.6957241892814636
1772697787266436900,7.990436767578125,-0.15637575089931488,-0.11564990133047104,0.9134051203727722
1772697787276485600,8.000485595703125,-0.3363356590270996,-0.10706386715173721,0.766221821308136
1772697787286535000,8.010534912109375,-0.29264146089553833,0.19765156507492065,0.6338086128234863
1772697787296582700,8.020582763671875,-0.399214506149292,0.5676456093788147,0.6991487741470337
1772697787306631700,8.030631591796874,-0.3786034882068634,0.7418525218963623,0.8809260129928589
1772697787316679700,8.0406796875,-0.31672388315200806,0.7667629718780518,1.0514562129974365
1772697787326728700,8.050728759765626,-0.08494818210601807,0.5883908271789551,1.1679027080535889
1772697787336776700,8.060776611328125,0.0751221776008606,0.38592132925987244,1.238447666168213
1772697787346825700,8.07082568359375,0.040167126804590225,0.4293881058692932,1.330796480178833
1772697787356874800,8.080874755859375,-0.05108502134680748,0.5027360916137695,1.3805185556411743
1772697787366922800,8.0909228515625,-0.18471765518188477,0.6363069415092468,1.393936276435852
1772697787376971800,8.1009716796875,-0.2581210136413574,1.0475565195083618,1.5258562564849854
1772697787387019500,8.11101953125,-0.36741289496421814,1.3368088006973267,1.587599277496338
1772697787397068800,8.12106884765625,-0.5116180181503296,1.2184028625488281,1.4455262422561646
1772697787407117800,8.131117919921875,-0.6112178564071655,1.0193736553192139,1.1485792398452759
1772697787417165800,8.141165771484374,-0.67985999584198,0.9369930028915405,0.7774915099143982
1772697787427214800,8.15121484375,-0.6160131096839905,0.9326360821723938,0.5613179206848145
1772697787437262800,8.161262939453126,-0.6384433507919312,0.970426619052887,0.49782708287239075
1772697787447311600,8.1713115234375,-0.6907014846801758,0.8280923366546631,0.45339012145996094
1772697787457360000,8.18135986328125,-0.7326691746711731,0.76451176404953,0.4513344168663025
1772697787467408600,8.19140869140625,-0.7940491437911987,0.780951738357544,0.4779213070869446
1772697787477457700,8.201457763671876,-0.8888089656829834,0.7712919116020203,0.4754168689250946
1772697787487505700,8.211505615234374,-0.9553818702697754,0.7377062439918518,0.4955942928791046
1772697787497554700,8.2215546875,-1.0404424667358398,0.6544377207756042,0.537970244884491
1772697787507602700,8.231602783203124,-1.1251355409622192,0.5505006909370422,0.6074649095535278
1772697787517651700,8.241651611328125,-1.1941139698028564,0.4891851246356964,0.6035642027854919
1772697787527700700,8.25170068359375,-1.240622639656067,0.43026483058929443,0.553945779800415
1772697787537748700,8.261748779296875,-1.2947226762771606,0.39605411887168884,0.4979908764362335
1772697787547797800,8.2717978515625,-1.3679111003875732,0.3967167139053345,0.4559837877750397
1772697787557845800,8.281845703125,-1.4534657001495361,0.4351069927215576,0.40453043580055237
1772697787567894800,8.291894775390626,-1.5084775686264038,0.4899830222129822,0.3632221519947052
1772697787577943800,8.30194384765625,-1.5138592720031738,0.5138039588928223,0.34994763135910034
1772697787587991800,8.31199169921875,-1.4642666578292847,0.45311129093170166,0.37789803743362427
1772697787598040800,8.322040771484374,-1.436737298965454,0.39015522599220276,0.40861812233924866
1772697787608088800,8.3320888671875,-1.3960237503051758,0.3682408630847931,0.42333316802978516
1772697787618137900,8.342137939453124,-1.3095793724060059,0.37141668796539307,0.4418676793575287
1772697787628186600,8.3521865234375,-1.2071815729141235,0.2559388279914856,0.510617733001709
1772697787638235000,8.36223486328125,-1.1549367904663086,0.058220431208610535,0.6153033971786499
1772697787648283600,8.37228369140625,-1.1644974946975708,-0.137984499335289,0.6877315044403076
1772697787658331600,8.38233154296875,-1.0484143495559692,-0.37369102239608765,0.7275494933128357
1772697787668380700,8.392380615234375,-0.9695892930030823,-0.41389545798301697,0.6426804065704346
1772697787678428700,8.4024287109375,-0.9363695383071899,-0.49400705099105835,0.5827675461769104
1772697787688477700,8.412477783203125,-0.8770686984062195,-0.5419415831565857,0.4891696870326996
1772697787698527000,8.42252685546875,-0.8113778233528137,-0.5389966368675232,0.3803268373012543
1772697787708574700,8.43257470703125,-0.7995105385780334,-0.4964696764945984,0.3084062933921814
1772697787718623700,8.442623779296875,-0.8172061443328857,-0.5131906270980835,0.26411712169647217
1772697787728671700,8.452671630859374,-0.9157913327217102,-0.60880446434021,0.24333062767982483
1772697787738720800,8.462720703125,-1.0818122625350952,-0.6830211877822876,0.2269093096256256
1772697787748769800,8.472769775390624,-1.2362761497497559,-0.7136054635047913,0.23104174435138702
1772697787758817800,8.48281787109375,-1.3442164659500122,-0.5947735905647278,0.25810664892196655
1772697787768866800,8.49286669921875,-1.391536831855774,-0.3857034742832184,0.29933664202690125
1772697787778914800,8.502914794921875,-1.4100489616394043,-0.24435701966285706,0.3012346625328064
1772697787788963800,8.5129638671875,-1.4353479146957397,-0.22737376391887665,0.21718557178974152
1772697787799011600,8.523011474609374,-1.4449383020401,-0.25917935371398926,0.09707914292812347
1772697787809060900,8.533060791015625,-1.4566428661346436,-0.27103495597839355,-0.04288541525602341
1772697787819109600,8.543109619140624,-1.544920802116394,-0.30652663111686707,-0.2310156375169754
1772697787829158000,8.553157958984375,-1.7275315523147583,-0.16968198120594025,-0.36095765233039856
1772697787839206700,8.56320654296875,-2.033487558364868,-0.16976399719715118,-0.537586510181427
1772697787849255000,8.5732548828125,-2.4365639686584473,-0.26397839188575745,-0.8249503374099731
1772697787859303700,8.5833037109375,-2.7581353187561035,-0.5318905115127563,-1.319665551185608
1772697787869352700,8.593352783203125,-2.9984071254730225,-1.2064093351364136,-1.9627622365951538
1772697787879400700,8.603400634765626,-3.1275413036346436,-1.7605372667312622,-2.371237277984619
1772697787889449700,8.61344970703125,-2.7119815349578857,-1.7102195024490356,-2.5565013885498047
1772697787899497700,8.623497802734375,-2.3108389377593994,-1.386682391166687,-2.5189459323883057
1772697787909547300,8.63354736328125,-2.0706164836883545,-1.3329049348831177,-2.5919220447540283
1772697787919596300,8.64359619140625,-1.7537485361099243,-0.6844867467880249,-2.485353946685791
1772697787929644300,8.653644287109374,-1.5279290676116943,0.4174523651599884,-2.171440601348877
1772697787939693300,8.663693359375,-1.5974849462509155,1.6514840126037598,-1.8714849948883057
1772697787949741300,8.6737412109375,-1.7891510725021362,2.533458709716797,-1.5666176080703735
1772697787959790300,8.683790283203125,-1.9653236865997314,3.3038253784179688,-1.323474645614624
1772697787969838000,8.693838134765626,-1.9778450727462769,4.003287315368652,-0.9949170351028442
1772697787979887400,8.703887451171875,-1.918874979019165,4.007993698120117,-0.6378800868988037
1772697787989936400,8.713936279296876,-1.7358355522155762,3.6445727348327637,-0.25420698523521423
1772697787999984400,8.723984375,-1.4755300283432007,3.269737482070923,0.012035624124109745
1772697788010033400,8.734033447265626,-1.206314206123352,2.854454517364502,0.15088218450546265
1772697788020081400,8.744081298828124,-0.9767534732818604,2.459944725036621,0.1752631664276123
1772697788030130200,8.754130126953125,-0.8079346418380737,2.0016725063323975,0.2209097445011139
1772697788040179200,8.76417919921875,-0.6492512226104736,1.4895235300064087,0.31065160036087036
1772697788050227200,8.774227294921875,-0.6411251425743103,1.4018067121505737,0.39151662588119507
1772697788060276200,8.784276123046874,-0.6564074158668518,1.5814111232757568,0.3706084191799164
1772697788070324200,8.79432421875,-0.6344917416572571,1.815500020980835,0.29940828680992126
1772697788080373200,8.804373291015626,-0.565082848072052,2.033888578414917,0.17703017592430115
1772697788090421200,8.814421142578125,-0.4647884666919708,2.201777935028076,0.07718612998723984
1772697788100470300,8.82447021484375,-0.35957202315330505,2.387759208679199,0.07947298884391785
1772697788110519300,8.834519287109375,-0.15814116597175598,2.753514289855957,0.1581590175628662
1772697788120567300,8.8445673828125,0.08547016233205795,2.9891483783721924,0.20688393712043762
1772697788130616000,8.854615966796874,0.23728898167610168,3.103727340698242,0.17155711352825165
1772697788140664300,8.864664306640625,0.22131454944610596,3.289856195449829,0.15418051183223724
1772697788150713000,8.874713134765624,0.08215852081775665,3.6633565425872803,0.11748215556144714
1772697788160762400,8.884762451171875,-0.10286778956651688,4.145422458648682,0.06153952702879906
1772697788170810000,8.89481005859375,-0.25238698720932007,4.621070384979248,0.045646049082279205
1772697788180859400,8.904859375,-0.3229306638240814,4.897664546966553,0.07091385126113892
1772697788190907100,8.9149072265625,-0.26623329520225525,4.902968406677246,0.1314123570919037
1772697788200956400,8.924956298828125,0.03140532597899437,4.814514636993408,0.22376012802124023
1772697788211005200,8.935005126953126,0.5197177529335022,4.687570571899414,0.32959628105163574
1772697788221053400,8.945053466796875,1.0695757865905762,4.668133735656738,0.5425530076026917
1772697788231102200,8.955102294921875,1.544780969619751,4.731173515319824,0.8529351353645325
1772697788241150200,8.965150146484374,1.9108390808105469,4.935701370239258,1.1490302085876465
1772697788251199200,8.97519921875,2.218315601348877,5.25583553314209,1.3536642789840698
1772697788261247200,8.985247314453124,2.432410717010498,5.393317699432373,1.5661072731018066
1772697788271296300,8.995296142578125,2.6031625270843506,5.351870536804199,1.7370545864105225
1772697788281345300,9.00534521484375,2.7552437782287598,5.175078392028809,1.830354928970337
1772697788291393300,9.015393310546875,2.8668315410614014,4.942254066467285,1.8906898498535156
1772697788301442000,9.025442138671876,2.946690320968628,4.6516804695129395,1.9950021505355835
1772697788311490300,9.035490234375,2.9764108657836914,4.45341682434082,2.187634229660034
1772697788321539000,9.0455390625,2.89766263961792,4.28754997253418,2.4258718490600586
1772697788331588400,9.05558837890625,2.80490779876709,4.050793647766113,2.6294894218444824
1772697788341636000,9.065635986328125,2.855499029159546,3.6497435569763184,2.77512264251709
1772697788351685400,9.075685302734374,2.909583568572998,3.068378448486328,2.8750736713409424
1772697788361733000,9.085733154296875,2.877927541732788,2.6710927486419678,2.928025007247925
1772697788371782400,9.095782470703124,2.7322800159454346,2.41599702835083,3.027681350708008
1772697788381831200,9.1058310546875,2.5090229511260986,2.2271933555603027,3.213409900665283
1772697788391879400,9.11587939453125,2.2619380950927734,2.019716501235962,3.4661145210266113
1772697788401928200,9.12592822265625,2.06921648979187,1.7282525300979614,3.7405083179473877
1772697788411976400,9.1359765625,1.9896897077560425,1.3669108152389526,3.985328435897827
1772697788422025200,9.146025146484375,2.0566468238830566,1.0116297006607056,4.1235551834106445
1772697788432073500,9.156073486328125,2.1860849857330322,0.6111131906509399,4.166131019592285
1772697788442122200,9.166122314453125,2.2954041957855225,0.11352576315402985,4.130277156829834
1772697788452171300,9.176171142578125,2.3850886821746826,-0.3698861598968506,4.000608444213867
1772697788462219300,9.18621923828125,2.395171880722046,-0.8287791609764099,3.7885968685150146
1772697788472268300,9.196268310546875,2.24277925491333,-1.177466630935669,3.624093532562256
1772697788482316300,9.20631640625,2.024665117263794,-1.3665739297866821,3.5418405532836914
1772697788492365300,9.216365234375,1.7262601852416992,-1.4928323030471802,3.58353853225708
1772697788502414300,9.226414306640624,1.4079450368881226,-1.6331486701965332,3.7094383239746094
1772697788512462000,9.236462158203125,1.1161222457885742,-1.7894368171691895,3.843881845474243
1772697788522511400,9.246511474609376,0.9956949353218079,-1.7176424264907837,3.8388452529907227
1772697788532559000,9.25655908203125,1.1190565824508667,-1.314107060432434,3.691016912460327
1772697788542608400,9.2666083984375,1.2635530233383179,-1.1731603145599365,3.6352698802948
1772697788552656100,9.27665625,1.4121049642562866,-1.254146695137024,3.647340774536133
1772697788562705200,9.286705078125,1.5691587924957275,-1.524298906326294,3.677659749984741
1772697788572754200,9.296754150390624,1.616589069366455,-2.0054657459259033,3.735337018966675
1772697788582802200,9.30680224609375,1.458723545074463,-2.568225860595703,3.790266275405884
1772697788592851200,9.316851318359374,0.987388014793396,-2.8866264820098877,3.8814470767974854
1772697788602899200,9.326899169921875,0.5319560170173645,-2.6314830780029297,3.737647533416748
1772697788612948200,9.3369482421875,0.5079575181007385,-1.6000537872314453,3.2906010150909424
1772697788622997200,9.346997314453125,0.5061763525009155,-1.0716125965118408,3.0192084312438965
1772697788633045200,9.357045166015626,0.5403537750244141,-1.0820540189743042,2.849503755569458
1772697788643094300,9.36709423828125,0.767345130443573,-1.3499011993408203,2.7234182357788086
1772697788653142300,9.377142333984375,1.1760526895523071,-2.1852152347564697,2.6477041244506836
1772697788663191300,9.38719140625,1.539797067642212,-3.4421136379241943,2.5749013423919678
1772697788673239300,9.3972392578125,1.7273566722869873,-4.554173946380615,2.373967170715332
1772697788683288300,9.407288330078124,1.800167441368103,-4.58740234375,2.0227205753326416
1772697788693337000,9.417337158203125,1.5960403680801392,-4.1070685386657715,1.775730848312378
1772697788703385300,9.42738525390625,1.1436012983322144,-3.5270707607269287,1.7082303762435913
1772697788713434000,9.43743408203125,0.6810088753700256,-3.0635671615600586,1.697725772857666
1772697788723482000,9.447482177734376,0.4115164279937744,-3.0493545532226562,1.6230387687683105
1772697788733531100,9.45753125,0.34991219639778137,-3.7315239906311035,1.437272071838379
1772697788743580400,9.467580322265626,0.3942045569419861,-4.7483320236206055,1.1386592388153076
1772697788753628200,9.477628173828125,0.06820754706859589,-6.5335469245910645,1.7029074430465698
1772697788763677400,9.487677490234375,-0.18918830156326294,-6.667504787445068,2.000657081604004
1772697788773725200,9.49772509765625,-0.5513986945152283,-6.360198974609375,2.160640001296997
1772697788783774200,9.507774169921875,-0.672231912612915,-6.799696445465088,2.6804146766662598
1772697788793822200,9.517822265625,-0.7143886685371399,-5.932207107543945,2.911695957183838
1772697788803871200,9.527871337890625,-1.2949581146240234,-4.293010234832764,4.159817695617676
1772697788813920300,9.537920166015626,-1.6439021825790405,-5.510321617126465,4.372609615325928
1772697788823968300,9.54796826171875,-1.6005568504333496,-5.433994770050049,4.056481838226318
1772697788834017300,9.558017333984376,-1.5261428356170654,-5.2163214683532715,3.4763450622558594
1772697788844065300,9.568065185546875,-1.4939873218536377,-4.934399604797363,2.9267678260803223
1772697788854114300,9.5781142578125,-1.5648878812789917,-4.395895004272461,2.5253584384918213
1772697788864163000,9.5881630859375,-1.8190960884094238,-3.8208963871002197,2.034200429916382
1772697788874211300,9.59821142578125,-2.324939727783203,-3.749051094055176,1.8419380187988281
1772697788884260000,9.608260009765624,-2.9163432121276855,-4.11505651473999,1.9033607244491577
1772697788894308400,9.618308349609375,-3.472580671310425,-5.133685111999512,2.006108283996582
1772697788904357000,9.628357177734374,-3.693453311920166,-6.1575117111206055,2.1898794174194336
1772697788914405400,9.6384052734375,-3.6074559688568115,-7.129431247711182,2.4007465839385986
1772697788924454400,9.648454345703126,-3.330195903778076,-7.593618869781494,2.528460741043091
1772697788934503400,9.65850341796875,-2.5075180530548096,-6.401297569274902,1.9175117015838623
1772697788944551400,9.668551513671876,-1.5460683107376099,-5.1864914894104,0.8471571207046509
1772697788954600400,9.678600341796875,-0.9352449178695679,-4.594990253448486,0.004147340543568134
1772697788964648400,9.6886484375,-0.664311945438385,-4.124807357788086,-0.5888544917106628
1772697788974697500,9.698697509765625,-0.5036783218383789,-3.3817873001098633,-1.1081207990646362
1772697788984746500,9.70874658203125,-0.31894975900650024,-2.791860818862915,-1.484710931777954
1772697788994794500,9.71879443359375,-0.23102016746997833,-2.4238686561584473,-1.7349368333816528
1772697789004843500,9.728843505859375,-0.29778748750686646,-2.1629106998443604,-1.9085711240768433
1772697789014891300,9.738891357421876,-0.5166497826576233,-1.9573591947555542,-2.093674898147583
1772697789024940500,9.7489404296875,-0.890932023525238,-1.6137638092041016,-2.2257585525512695
1772697789034988300,9.75898828125,-1.2708642482757568,-1.1561546325683594,-2.183123826980591
1772697789045037300,9.769037353515625,-1.4134207963943481,-0.8012149333953857,-1.9659159183502197
1772697789055086300,9.77908642578125,-1.3386317491531372,-0.5736414194107056,-1.608204960823059
1772697789065134300,9.78913427734375,-1.2085340023040771,-0.44409969449043274,-1.1320756673812866
1772697789075183400,9.799183349609375,-1.1639186143875122,-0.4474549889564514,-0.6180344820022583
1772697789085231400,9.8092314453125,-1.2093327045440674,-0.5592284202575684,-0.15088272094726562
1772697789095280400,9.8192802734375,-1.2913649082183838,-0.6679093241691589,0.24140942096710205
1772697789105329200,9.8293291015625,-1.3572267293930054,-0.6538789868354797,0.47986459732055664
1772697789115377400,9.83937744140625,-1.4644395112991333,-0.5146377682685852,0.5135589241981506
1772697789125426200,9.84942626953125,-1.6002780199050903,-0.3357449769973755,0.4883315861225128
1772697789135474400,9.859474365234375,-1.6875431537628174,-0.16592691838741302,0.4030103087425232
1772697789145523200,9.869523193359376,-1.6442002058029175,-0.05076783895492554,0.29685643315315247
1772697789155571500,9.879571533203125,-1.5179530382156372,0.009063269942998886,0.17380215227603912
1772697789165620200,9.8896201171875,-1.3784774541854858,0.013888917863368988,0.04098737984895706
1772697789175669500,9.89966943359375,-1.239549160003662,0.028911275789141655,-0.020083431154489517
1772697789185717200,9.90971728515625,-1.1555770635604858,0.1406274139881134,0.018276475369930267
1772697789195766500,9.9197666015625,-1.1219844818115234,0.17178773880004883,0.1301361620426178
1772697789205814300,9.929814208984375,-1.1267515420913696,0.21663111448287964,0.26757657527923584
1772697789215863600,9.939863525390624,-1.139736533164978,0.2846546471118927,0.38053563237190247
1772697789225912300,9.949912353515625,-1.1287142038345337,0.3201141059398651,0.44738948345184326
1772697789235960600,9.959960693359376,-1.1106263399124146,0.21085125207901,0.4807192087173462
1772697789246009300,9.97000927734375,-1.0613783597946167,-0.04986609145998955,0.48946982622146606
1772697789256057300,9.980057373046876,-0.9444168210029602,-0.2995310425758362,0.4745990037918091
1772697789266106400,9.9901064453125,-0.7363613843917847,-0.4657256305217743,0.4520910382270813
1772697789276154400,10.000154296875,-0.5045433044433594,-0.48151496052742004,0.3789243996143341
1772697789286203400,10.010203369140624,-0.31163084506988525,-0.40158259868621826,0.2343246191740036
1772697789296252400,10.02025244140625,-0.1954251527786255,-0.2966734766960144,0.039983902126550674
1772697789306300400,10.030300537109374,-0.14599928259849548,-0.23258237540721893,-0.20174163579940796
1772697789316349200,10.04034912109375,-0.11738015711307526,-0.15444736182689667,-0.4354279041290283
1772697789326397400,10.0503974609375,-0.0741083174943924,-0.10048186779022217,-0.6261323094367981
1772697789336446200,10.0604462890625,-0.016804546117782593,-0.07095007598400116,-0.722286581993103
1772697789346495500,10.07049560546875,0.004172374494373798,-0.03930079936981201,-0.7532234191894531
1772697789356543200,10.080543212890625,-0.0501241534948349,-0.03990773484110832,-0.7073185443878174
1772697789366592500,10.090592529296876,-0.11381205171346664,-0.06562881171703339,-0.5551266074180603
1772697789376640300,10.10064013671875,-0.17499205470085144,-0.08050069957971573,-0.3792879283428192
1772697789386689500,10.110689453125,-0.19872108101844788,-0.17170144617557526,-0.22172972559928894
1772697789396737300,10.1207373046875,-0.19415909051895142,-0.310970664024353,-0.1154208704829216
1772697789406786600,10.13078662109375,-0.15599705278873444,-0.514950156211853,-0.03862861916422844
1772697789416835300,10.14083544921875,-0.08601877093315125,-0.6775990128517151,-0.011068097315728664
1772697789426883600,10.150883544921875,0.03452841565012932,-0.8085639476776123,-0.009444900788366795
1772697789436932400,10.160932373046874,0.11176115274429321,-0.8282526731491089,-0.0615597665309906
1772697789446980400,10.17098046875,0.1351253241300583,-0.7926076054573059,-0.11478517204523087
1772697789457029400,10.181029296875,0.09117758274078369,-0.6461086869239807,-0.1888253092765808
1772697789467078400,10.191078369140625,0.01637631095945835,-0.5404837727546692,-0.23841097950935364
1772697789477126400,10.20112646484375,-0.02027464471757412,-0.4868665933609009,-0.22574470937252045
1772697789487175400,10.211175537109375,0.05017049238085747,-0.4971970021724701,-0.18111678957939148
1772697789497223400,10.221223388671875,0.15560077130794525,-0.5360679626464844,-0.15262016654014587
1772697789507272400,10.2312724609375,0.22219792008399963,-0.5495597720146179,-0.10249947756528854
1772697789517320400,10.241320556640625,0.2325272560119629,-0.529667317867279,-0.04321005567908287
1772697789527369200,10.251369140625,0.23203164339065552,-0.5085838437080383,0.01756647601723671
1772697789537418200,10.261418212890625,0.22267435491085052,-0.4591185748577118,0.08117954432964325
1772697789547466200,10.27146630859375,0.19978554546833038,-0.3878965973854065,0.10216578096151352
1772697789557515300,10.281515380859375,0.18193943798542023,-0.3093772828578949,0.06771939247846603
1772697789567563300,10.291563232421876,0.15780986845493317,-0.2341720163822174,-0.004020041786134243
1772697789577612300,10.3016123046875,0.12935346364974976,-0.17423172295093536,-0.09188784658908844
1772697789587661300,10.311661376953126,0.09331876039505005,-0.11866699159145355,-0.16614289581775665
1772697789597709300,10.321709228515624,0.005279982928186655,0.10781221836805344,-0.00872291810810566
1772697789607758300,10.33175830078125,-0.14294622838497162,0.047333426773548126,0.38644251227378845
1772697789617806300,10.341806396484374,-0.20873136818408966,0.07893529534339905,0.5413886904716492
1772697789627855400,10.35185546875,-0.2795219123363495,-0.013143764808773994,0.43914008140563965
1772697789637903400,10.3619033203125,-0.2857779562473297,-0.09242021292448044,0.29346704483032227
1772697789647952400,10.371952392578125,-0.2530786097049713,-0.12234668433666229,0.1437356024980545
1772697789658001400,10.38200146484375,-0.18097324669361115,-0.16300277411937714,-0.0620974600315094
1772697789668049400,10.39204931640625,-0.16968490183353424,-0.20831193029880524,-0.25780731439590454
1772697789678098400,10.402098388671876,-0.24962687492370605,-0.18872730433940887,-0.4144355356693268
1772697789688146400,10.412146484375,-0.34936386346817017,-0.08785022795200348,-0.4468243718147278
1772697789698195500,10.422195556640625,-0.4592914283275604,0.016887370496988297,-0.3700494170188904
