time,seconds_elapsed,z,y,x
1772697779304192000,0.02819189453125,0.4553336501121521,0.007288619875907898,-0.14175544679164886
1772697779314241000,0.038240966796875,0.5786033868789673,0.2538805603981018,-0.2636547386646271
1772697779324288800,0.048288818359375,0.687935471534729,0.423783540725708,-0.4387810230255127
1772697779334338000,0.058338134765625,0.7521576285362244,0.4467373192310333,-0.5578328371047974
1772697779344385800,0.0683857421875,0.8205465078353882,0.4909954071044922,-0.5514426827430725
1772697779354435000,0.07843505859375,1.0069531202316284,0.4512392282485962,-0.4785657823085785
1772697779364484000,0.088484130859375,1.2388602495193481,0.2663831114768982,-0.4148407280445099
1772697779374532000,0.098531982421875,1.4851666688919067,0.1969185471534729,-0.3799367845058441
1772697779384580900,0.108580810546875,1.7006375789642334,0.31991076469421387,-0.41289156675338745
1772697779394629000,0.118629150390625,1.853859305381775,0.5406124591827393,-0.4483315944671631
1772697779404678000,0.128677978515625,1.9368246793746948,0.8472058773040771,-0.49739328026771545
1772697779414726100,0.13872607421875,1.9616745710372925,1.1977124214172363,-0.4900014102458954
1772697779424775000,0.14877490234375,1.9095067977905273,1.1398024559020996,-0.41529929637908936
1772697779434824000,0.158823974609375,1.956106185913086,1.1143953800201416,-0.37005671858787537
1772697779444872000,0.168871826171875,2.014061212539673,1.3708000183105469,-0.29901736974716187
1772697779454921000,0.1789208984375,2.0211374759674072,1.7434443235397339,-0.2762182950973511
1772697779464969000,0.188968994140625,2.0601038932800293,2.5288732051849365,-0.09987221658229828
1772697779475018000,0.19901806640625,2.2329699993133545,3.4669878482818604,0.07471369951963425
1772697779485066000,0.20906591796875,2.5461831092834473,3.577134132385254,-0.23244675993919373
1772697779495115000,0.219114990234375,2.648158073425293,1.9662370681762695,-1.0296666622161865
1772697779505164000,0.2291640625,2.463707447052002,0.02605516090989113,-1.4858804941177368
1772697779515212000,0.2392119140625,2.277255058288574,-0.44983628392219543,-1.255051612854004
1772697779525260800,0.2492607421875,1.8489689826965332,-0.7944740056991577,-1.0694735050201416
1772697779535309000,0.25930908203125,1.3909510374069214,-0.872596800327301,-0.8937197923660278
1772697779545357800,0.26935791015625,1.1426047086715698,-0.49117594957351685,-0.6115373969078064
1772697779555407000,0.279406982421875,1.0230088233947754,0.015657948330044746,-0.3496623933315277
1772697779565454800,0.289454833984375,0.941413164138794,0.3234267234802246,-0.23544977605342865
1772697779575504100,0.299504150390625,0.8339940309524536,0.4414937198162079,-0.23094822466373444
1772697779585552000,0.3095517578125,0.6980514526367188,0.6144454479217529,-0.21224302053451538
1772697779595601000,0.319600830078125,0.5261508226394653,0.754457414150238,-0.19974453747272491
1772697779605649000,0.32964892578125,0.29433614015579224,0.7819467186927795,-0.19687490165233612
1772697779615698000,0.339697998046875,0.12167917191982269,0.7116847634315491,-0.228135883808136
1772697779625747000,0.349746826171875,0.1888931691646576,0.7891553640365601,-0.2403053641319275
1772697779635795000,0.359794921875,0.3504953980445862,0.7874834537506104,-0.2658354938030243
1772697779645844000,0.369843994140625,0.4412728548049927,0.7805221676826477,-0.29698991775512695
1772697779655892000,0.37989208984375,0.3957439661026001,0.9436287879943848,-0.32669854164123535
1772697779665941000,0.38994091796875,0.3257208466529846,1.0670748949050903,-0.3878498375415802
1772697779675989000,0.399989013671875,0.2456185519695282,1.2250336408615112,-0.41986343264579773
1772697779686038000,0.4100380859375,0.11183904856443405,1.3810092210769653,-0.4064168930053711
1772697779696086800,0.420086669921875,0.07675696164369583,1.1750742197036743,-0.1731591522693634
1772697779706135000,0.430135009765625,0.36811819672584534,0.32246047258377075,0.508087694644928
1772697779716183800,0.440183837890625,0.38277196884155273,0.9099114537239075,0.4885097146034241
1772697779726232000,0.450232177734375,0.3485344350337982,1.4761241674423218,0.4588080942630768
1772697779736280800,0.46028076171875,0.21700544655323029,1.7039624452590942,0.5182362198829651
1772697779746329000,0.4703291015625,0.14961320161819458,1.706336259841919,0.5508996248245239
1772697779756377900,0.4803779296875,0.20959238708019257,1.610310673713684,0.5416147708892822
1772697779766427100,0.49042724609375,0.2836935222148895,1.5169819593429565,0.5392954349517822
1772697779776475000,0.500474853515625,0.3215130865573883,1.5716058015823364,0.5592536926269531
1772697779786524200,0.510524169921875,0.32053104043006897,1.617007851600647,0.5183979272842407
1772697779796572000,0.520572021484375,0.2759776711463928,1.702569842338562,0.39021092653274536
1772697779806621200,0.53062109375,0.24431993067264557,1.990648627281189,0.20648318529129028
1772697779816670000,0.540669921875,0.2700822949409485,2.477642059326172,-0.05431005731225014
1772697779826718000,0.550718017578125,0.2747873067855835,2.789903402328491,-0.2964180111885071
1772697779836767000,0.56076708984375,0.30168044567108154,2.8113250732421875,-0.5009620189666748
1772697779846815000,0.57081494140625,0.3597239851951599,2.855102062225342,-0.7177691459655762
1772697779856864000,0.580864013671875,0.376975417137146,3.0652663707733154,-1.1153922080993652
1772697779866912000,0.590912109375,0.296204149723053,3.2602646350860596,-1.6273411512374878
1772697779876961000,0.6009609375,0.08979079127311707,3.234992504119873,-2.052933931350708
1772697779887009800,0.611009765625,-0.22183538973331451,3.368870973587036,-2.313755750656128
1772697779897058000,0.62105810546875,-0.5932877659797668,3.7471518516540527,-2.5960030555725098
1772697779907106800,0.63110693359375,-0.8864926099777222,4.167961120605469,-2.5148398876190186
1772697779917154800,0.64115478515625,-1.2602746486663818,4.910930633544922,-2.2416205406188965
1772697779927203800,0.651203857421875,-1.4599113464355469,5.364142417907715,-1.8591641187667847
1772697779937252900,0.6612529296875,-1.3230211734771729,5.665575981140137,-1.882736325263977
1772697779947300900,0.67130078125,-1.2644343376159668,5.773504734039307,-2.4603028297424316
1772697779957350000,0.681349853515625,-1.3259085416793823,5.471291542053223,-2.8128855228424072
1772697779967398000,0.69139794921875,-1.3720641136169434,5.282435894012451,-3.032520294189453
1772697779977447000,0.701447021484375,-1.4612081050872803,5.161116600036621,-3.0943024158477783
1772697779987495000,0.711494873046875,-1.463483214378357,4.8684916496276855,-2.9289422035217285
1772697779997544000,0.7215439453125,-1.4007636308670044,4.329283714294434,-2.7779717445373535
1772697780007593000,0.731593017578125,-1.3315372467041016,3.7548186779022217,-2.6914443969726562
1772697780017640700,0.741640625,-1.3701775074005127,3.245586633682251,-2.663858413696289
1772697780027690000,0.75168994140625,-1.4802805185317993,2.8580634593963623,-2.65138578414917
1772697780037737700,0.76173779296875,-1.5458945035934448,2.590510845184326,-2.5646233558654785
1772697780047787000,0.771787109375,-1.548285722732544,2.4664430618286133,-2.375427484512329
1772697780057835800,0.781835693359375,-1.5105193853378296,2.491057872772217,-2.17244553565979
1772697780067883800,0.7918837890625,-1.487720251083374,2.4070422649383545,-2.0411999225616455
1772697780077932800,0.801932861328125,-1.3776606321334839,2.261936664581299,-2.0108673572540283
1772697780087980800,0.811980712890625,-1.1763182878494263,2.0239641666412354,-2.08416485786438
1772697780098029800,0.82202978515625,-0.8881394863128662,1.722050666809082,-2.2020323276519775
1772697780108077800,0.832077880859375,-0.4960938096046448,1.359686255455017,-2.2989561557769775
1772697780118126800,0.842126953125,-0.07684674113988876,0.8297718167304993,-2.2972867488861084
1772697780128175600,0.852175537109375,0.2360987663269043,-0.024747394025325775,-2.0920398235321045
1772697780138223900,0.862223876953125,0.3642905652523041,-0.9056544899940491,-1.414734125137329
1772697780148272600,0.872272705078125,0.24480901658535004,-1.2875635623931885,-0.3826083540916443
1772697780158321000,0.88232080078125,0.06249220669269562,-0.6739650964736938,0.8504648208618164
1772697780168369700,0.89236962890625,0.018019944429397583,0.20322255790233612,1.48996102809906
1772697780178419000,0.9024189453125,-0.17118647694587708,0.4813079833984375,1.5953223705291748
1772697780188466700,0.912466796875,-0.4503514766693115,0.22581489384174347,1.4483448266983032
1772697780198516000,0.922515869140625,-0.6844295263290405,0.03261907771229744,0.9278404116630554
1772697780208563700,0.932563720703125,-0.791391909122467,0.07685700058937073,0.14790096879005432
1772697780218613000,0.942613037109375,-0.7338972091674805,0.06224929168820381,-0.38247931003570557
1772697780228660700,0.95266064453125,-0.5302131772041321,-0.264215886592865,-0.5813496112823486
1772697780238710000,0.9627099609375,-0.20750835537910461,-0.7041969895362854,-0.619657576084137
1772697780248758800,0.9727587890625,0.1604212373495102,-1.0472676753997803,-0.5514710545539856
1772697780258807000,0.98280712890625,0.418007493019104,-1.3873767852783203,-0.5148134827613831
1772697780268855800,0.992855712890625,0.5049136281013489,-1.6471258401870728,-0.6256004571914673
1772697780278903800,1.00290380859375,0.46591827273368835,-1.771519660949707,-0.8760409355163574
1772697780288952800,1.012952880859375,0.3919878304004669,-1.7544331550598145,-1.1748348474502563
1772697780299001900,1.023001953125,0.3004416823387146,-1.9185667037963867,-1.417978286743164
1772697780309049900,1.0330498046875,0.2217874377965927,-2.0016250610351562,-1.6124681234359741
1772697780319099000,1.043098876953125,0.18335722386837006,-1.986476182937622,-1.6892832517623901
1772697780329147000,1.05314697265625,0.2089696079492569,-1.9721306562423706,-1.7032358646392822
1772697780339195600,1.063195556640625,0.2819431722164154,-1.8595046997070312,-1.642632246017456
1772697780349244000,1.073243896484375,0.3171216547489166,-1.7089707851409912,-1.6321144104003906
1772697780359292700,1.083292724609375,0.2703770399093628,-1.5650460720062256,-1.6419198513031006
1772697780369342000,1.093342041015625,0.023872293531894684,-1.1832433938980103,-1.5231108665466309
1772697780379389700,1.1033896484375,-0.3586588501930237,-0.501389741897583,-1.438278079032898
1772697780389439000,1.11343896484375,-0.8154371976852417,0.21217116713523865,-1.4397220611572266
1772697780399486700,1.12348681640625,-1.1221190690994263,0.7870001196861267,-1.487794041633606
1772697780409536000,1.133535888671875,-1.0628294944763184,1.1179722547531128,-1.393036127090454
1772697780419583700,1.143583740234375,-0.6552809476852417,0.8563635945320129,-1.0813391208648682
1772697780429633000,1.153633056640625,-0.20580363273620605,0.26179802417755127,-0.7644414901733398
1772697780439681800,1.163681884765625,0.13106973469257355,-0.18688923120498657,-0.7035666704177856
1772697780449729800,1.173729736328125,0.37325364351272583,-0.5046303272247314,-0.8507766723632812
1772697780459778800,1.18377880859375,0.3776654303073883,-0.7936466932296753,-1.0846797227859497
1772697780469826800,1.193826904296875,0.20361243188381195,-1.0608923435211182,-1.2175198793411255
1772697780479875800,1.203875732421875,-0.006407648324966431,-0.8474839329719543,-1.2967934608459473
1772697780489924900,1.2139248046875,-0.4446108639240265,-0.7768844962120056,-1.3452552556991577
1772697780499972900,1.223972900390625,-1.1499247550964355,-0.8916656374931335,-1.329854130744934
1772697780510022000,1.23402197265625,-1.8496936559677124,-0.8716475963592529,-1.1213040351867676
1772697780520070000,1.24406982421875,-2.363795280456543,-0.8205910921096802,-0.8648935556411743
1772697780530119000,1.254118896484375,-2.574216365814209,-0.9006116986274719,-0.6960598826408386
1772697780540167000,1.2641669921875,-2.4999687671661377,-0.870501697063446,-0.5685535669326782
1772697780550215700,1.274215576171875,-2.122756004333496,-0.509354829788208,-0.4510463774204254
1772697780560264700,1.2842646484375,-1.5573573112487793,-0.13957437872886658,-0.24118633568286896
1772697780570312700,1.294312744140625,-0.8136608600616455,-0.01492391899228096,0.1685500144958496
1772697780580361700,1.30436181640625,-0.004367520567029715,-0.2608282268047333,0.451030969619751
1772697780590409700,1.31440966796875,0.4023738205432892,-1.055739402770996,0.4284624457359314
1772697780600458800,1.324458740234375,0.47980523109436035,-1.6322293281555176,0.2021009474992752
1772697780610507800,1.3345078125,0.43598243594169617,-1.6295052766799927,-0.05915770307183266
1772697780620555800,1.3445556640625,0.37631136178970337,-1.4711565971374512,-0.2636149823665619
1772697780630604800,1.354604736328125,0.47164419293403625,-1.418096899986267,-0.37808385491371155
1772697780640652800,1.36465283203125,0.755254328250885,-1.576594352722168,-0.41003140807151794
1772697780650701800,1.374701904296875,1.0167453289031982,-1.7176716327667236,-0.34480011463165283
1772697780660749800,1.384749755859375,1.1147557497024536,-1.3678580522537231,-0.22673660516738892
1772697780670798800,1.394798828125,1.0617799758911133,-0.5706512331962585,0.033601656556129456
1772697780680848000,1.404847900390625,0.7833806276321411,-0.028628714382648468,0.3872276246547699
1772697780690896000,1.414895751953125,0.626033365726471,0.2906991243362427,0.7104421854019165
1772697780700945000,1.42494482421875,0.5934568047523499,0.2652108371257782,0.9046303033828735
1772697780710993000,1.434992919921875,0.6324350833892822,0.03211485594511032,0.905025064945221
1772697780721042000,1.4450419921875,0.6570959687232971,-0.2503855526447296,0.6756919622421265
1772697780731090700,1.455090576171875,0.5129896402359009,-0.2625412046909332,0.3364819884300232
1772697780741139000,1.465138916015625,0.1733037382364273,-0.13888026773929596,-0.00026326481020078063
1772697780751187700,1.475187744140625,-0.2339155673980713,-0.11721974611282349,-0.22062641382217407
1772697780761236000,1.485236083984375,-0.47994744777679443,-0.2536899745464325,-0.3310315012931824
1772697780771284700,1.49528466796875,-0.4248131513595581,-0.6929688453674316,-0.4118206202983856
1772697780781332700,1.505332763671875,-0.10742241144180298,-1.1375864744186401,-0.500450074672699
1772697780791381800,1.5153818359375,0.25253021717071533,-1.3641400337219238,-0.5769954919815063
1772697780801431000,1.52543115234375,0.45822903513908386,-1.3070781230926514,-0.5889831781387329
1772697780811478800,1.535478759765625,0.4471377730369568,-0.900915801525116,-0.4943315386772156
1772697780821527800,1.54552783203125,0.3855394124984741,-0.2983356714248657,-0.3109593391418457
1772697780831575800,1.555575927734375,0.36792412400245667,0.2733440399169922,-0.14641474187374115
1772697780841624800,1.565624755859375,0.4013870060443878,0.5563299655914307,-0.05951526015996933
1772697780851673900,1.575673828125,0.5185568332672119,0.5491268038749695,-0.005478476174175739
1772697780861721900,1.585721923828125,0.6709570288658142,0.3114417791366577,0.09464412927627563
1772697780871771000,1.59577099609375,0.6494995355606079,0.17145410180091858,0.25882765650749207
1772697780881819000,1.60581884765625,0.32021138072013855,0.015018690377473831,0.4928033947944641
1772697780891868000,1.615867919921875,-0.11964688450098038,-0.11465460807085037,0.6514879465103149
1772697780901916400,1.62591650390625,-0.5068369507789612,-0.05697053670883179,0.6082435250282288
1772697780911965700,1.635965576171875,-0.6592563986778259,0.12452227622270584,0.5157081484794617
1772697780922014500,1.646014404296875,-0.5553022623062134,0.7966106534004211,0.5231285691261292
1772697780932062700,1.656062744140625,-0.3077661097049713,1.5691018104553223,0.4852481484413147
1772697780942111500,1.666111572265625,0.08872159570455551,2.0753228664398193,0.45890894532203674
1772697780952159700,1.67615966796875,0.7333504557609558,2.0952372550964355,0.46673303842544556
1772697780962208500,1.68620849609375,1.518835425376892,1.5032342672348022,0.5039029717445374
1772697780972256800,1.6962568359375,2.2152206897735596,0.5612264275550842,0.5982868671417236
1772697780982305500,1.706305419921875,2.7922732830047607,-0.37436601519584656,0.7616518139839172
1772697780992354600,1.7163544921875,3.105802536010742,-1.1454899311065674,0.7197497487068176
1772697781002402600,1.726402587890625,3.1462740898132324,-1.623173713684082,0.5660533905029297
1772697781012451600,1.73645166015625,2.925076723098755,-1.7397247552871704,0.3483777940273285
1772697781022499600,1.74649951171875,2.517364978790283,-1.5641087293624878,0.16143189370632172
1772697781032548600,1.756548583984375,2.1047422885894775,-1.265084147453308,0.062314823269844055
1772697781042597600,1.76659765625,1.7159817218780518,-1.0027227401733398,0.02425585687160492
1772697781052645600,1.776645751953125,1.4887322187423706,-0.6948825716972351,-0.001891040476039052
1772697781062694700,1.786694580078125,1.4666208028793335,-0.37303370237350464,-0.004632498603314161
1772697781072742700,1.79674267578125,1.613405466079712,-0.05295709893107414,-0.05301329493522644
1772697781082791700,1.806791748046875,1.795045018196106,0.17430268228054047,-0.1787443310022354
1772697781092839400,1.81683935546875,1.9519745111465454,0.2617906928062439,-0.3614363670349121
1772697781102888700,1.826888671875,2.014699697494507,0.24885492026805878,-0.5557225346565247
1772697781112937700,1.836937744140625,2.032193899154663,0.35444921255111694,-0.8336262106895447
1772697781122985700,1.84698583984375,1.9906255006790161,0.6460549831390381,-1.2495012283325195
1772697781133034500,1.857034423828125,1.8181428909301758,0.7522591948509216,-1.5567171573638916
1772697781143082500,1.86708251953125,1.5346137285232544,0.8685368299484253,-1.562729001045227
1772697781153131500,1.877131591796875,1.1389524936676025,1.0302958488464355,-0.7944459319114685
1772697781163180500,1.8871806640625,0.8586318492889404,0.9248069524765015,-0.4061940610408783
1772697781173228500,1.897228515625,0.6998052000999451,0.7590653896331787,-0.16881880164146423
1772697781183277600,1.907277587890625,0.633683443069458,0.6881600618362427,0.12419390678405762
1772697781193325600,1.91732568359375,0.5699195265769958,0.6646371483802795,0.4398319125175476
1772697781203374600,1.92737451171875,0.44494032859802246,0.6667082905769348,0.693175733089447
1772697781213422600,1.937422607421875,0.2941192090511322,0.665608286857605,0.8390215635299683
1772697781223471600,1.9474716796875,0.1585853546857834,0.6398930549621582,0.8143764138221741
1772697781233520400,1.957520263671875,0.1483718603849411,0.5278863310813904,0.6264848113059998
1772697781243568600,1.967568603515625,0.1943204402923584,0.3640390932559967,0.37119951844215393
1772697781253617400,1.977617431640625,0.22094951570034027,0.17066100239753723,0.13460075855255127
1772697781263665700,1.987665771484375,0.2237948477268219,-0.0024676253087818623,0.02519570291042328
1772697781273714400,1.99771435546875,0.21596884727478027,-0.13165763020515442,0.04673157259821892
1772697781283762700,2.0077626953125,0.20040160417556763,-0.21816375851631165,0.13784390687942505
1772697781293811500,2.0178115234375,0.15898658335208893,-0.28848201036453247,0.21324793994426727
1772697781303860700,2.02786083984375,0.12640707194805145,-0.2734444737434387,0.28045547008514404
1772697781313908500,2.037908447265625,0.12868164479732513,-0.17432408034801483,0.38175249099731445
1772697781323957800,2.047957763671875,0.13576804101467133,-0.12274130433797836,0.4282163977622986
1772697781334005500,2.058005615234375,0.12578508257865906,-0.1308629959821701,0.4108726680278778
1772697781344054800,2.0680546875,0.1318693459033966,-0.14275427162647247,0.33305537700653076
1772697781354103600,2.078103515625,0.145874485373497,-0.13047580420970917,0.228383406996727
1772697781364151600,2.088151611328125,0.15330630540847778,-0.1261335164308548,0.13548222184181213
1772697781374200600,2.09820068359375,0.14369164407253265,-0.11653531342744827,0.07238361239433289
1772697781384248600,2.10824853515625,0.12907035648822784,-0.10514017939567566,0.057215847074985504
1772697781394297600,2.118297607421875,0.1277782917022705,-0.10582410544157028,0.057246848940849304
1772697781404345600,2.128345703125,0.12513351440429688,-0.12632060050964355,0.06119365245103836
1772697781414394600,2.13839453125,0.15354584157466888,-0.15200175344944,0.0577327162027359
1772697781424443400,2.148443359375,0.1813202053308487,-0.11593802273273468,0.07599321007728577
1772697781434491600,2.15849169921875,0.1951492726802826,-0.09121140837669373,0.14606282114982605
1772697781444540400,2.16854052734375,0.18344494700431824,-0.08661532402038574,0.2693628966808319
1772697781454588700,2.178588623046875,0.13432586193084717,-0.09966837614774704,0.40312081575393677
1772697781464637400,2.188637451171875,0.08475937694311142,-0.07351560145616531,0.506587564945221
1772697781474685700,2.198685791015625,0.027763621881604195,-0.048906270414590836,0.5368895530700684
1772697781484734500,2.208734375,-0.001199586084112525,-0.030175192281603813,0.5103722214698792
1772697781494783700,2.21878369140625,-0.02007821947336197,-0.029218800365924835,0.4609808623790741
1772697781504831500,2.22883154296875,-0.021332569420337677,-0.025952167809009552,0.43393674492836
1772697781514880800,2.238880859375,-0.034198831766843796,-0.052923865616321564,0.4335889220237732
1772697781524928500,2.248928466796875,-0.04765684902667999,-0.07082829624414444,0.44846293330192566
1772697781534977800,2.258977783203125,-0.06723679602146149,-0.0635216161608696,0.4679310917854309
1772697781545026600,2.269026611328125,-0.07375035434961319,-0.03680558502674103,0.469153493642807
1772697781555074800,2.27907470703125,-0.08046379685401917,-0.03640054911375046,0.45936378836631775
1772697781565123600,2.28912353515625,-0.07250280678272247,-0.05945073813199997,0.42594006657600403
1772697781575171600,2.299171630859375,-0.06514733284711838,-0.07762119919061661,0.38041868805885315
1772697781585220600,2.309220703125,-0.048875678330659866,-0.07890857756137848,0.3426872789859772
1772697781595268600,2.3192685546875,-0.03759269416332245,-0.05750081315636635,0.345038503408432
1772697781605317600,2.329317626953125,-0.018850967288017273,-0.04705749452114105,0.3772939145565033
1772697781615366700,2.33936669921875,-0.02362305298447609,-0.04346642270684242,0.4222838282585144
1772697781625414700,2.34941455078125,-0.05462810769677162,-0.06724392622709274,0.45467373728752136
1772697781635463400,2.35946337890625,-0.08502136170864105,-0.06952469795942307,0.474997341632843
1772697781645511700,2.36951171875,-0.11230465024709702,-0.09465774893760681,0.47107264399528503
1772697781655560400,2.379560546875,-0.12585142254829407,-0.06850546598434448,0.46844786405563354
1772697781665608700,2.389608642578125,-0.1420421004295349,-0.04552052170038223,0.45966875553131104
1772697781675657500,2.399657470703125,-0.15148885548114777,-0.010661925189197063,0.4486244320869446
1772697781685706500,2.40970654296875,-0.15314188599586487,0.06004633381962776,0.4541803300380707
1772697781695754500,2.41975439453125,-0.15975777804851532,0.08368304371833801,0.46137747168540955
1772697781705803500,2.429803466796875,-0.1864197552204132,0.08817499876022339,0.4659527838230133
1772697781715851500,2.4398515625,-0.19887839257717133,0.11691075563430786,0.4737795293331146
1772697781725900500,2.449900634765625,-0.2132277637720108,0.13616859912872314,0.48539409041404724
1772697781735949600,2.459949462890625,-0.23948723077774048,0.1253098100423813,0.48685336112976074
1772697781745997600,2.46999755859375,-0.2317824363708496,0.10064306855201721,0.4912931025028229
1772697781756046600,2.480046630859375,-0.19102895259857178,0.08778228610754013,0.47272786498069763
1772697781766094600,2.490094482421875,-0.15078352391719818,0.05246450752019882,0.4292472302913666
1772697781776143600,2.5001435546875,-0.1457129418849945,-0.006176352966576815,0.3719492554664612
1772697781786191600,2.510191650390625,-0.17385242879390717,-0.06106489896774292,0.34212931990623474
1772697781796240600,2.52024072265625,-0.20481693744659424,-0.0657004863023758,0.3367457687854767
1772697781806289700,2.53028955078125,-0.23150819540023804,-0.023448901250958443,0.34150058031082153
1772697781816337700,2.540337646484375,-0.2502647936344147,0.02109556645154953,0.3620429039001465
1772697781826386700,2.55038671875,-0.2714552879333496,0.04009375721216202,0.3796490430831909
1772697781836434700,2.5604345703125,-0.2969476878643036,0.030635999515652657,0.38548973202705383
1772697781846483500,2.5704833984375,-0.31641674041748047,-0.008621657267212868,0.3937084972858429
1772697781856532500,2.580532470703125,-0.32495906949043274,-0.04990145191550255,0.38593313097953796
1772697781866580500,2.59058056640625,-0.32731199264526367,-0.07112977653741837,0.37541845440864563
1772697781876629500,2.60062939453125,-0.3269203007221222,-0.07345046103000641,0.3681553304195404
1772697781886677500,2.610677490234375,-0.34583380818367004,-0.12105846405029297,0.34755098819732666
1772697781896726500,2.6207265625,-0.34498345851898193,-0.11803796887397766,0.34227678179740906
1772697781906774000,2.63077392578125,-0.36813274025917053,-0.1698092818260193,0.32471349835395813
1772697781916822800,2.64082275390625,-0.37890908122062683,-0.17469429969787598,0.31620141863822937
1772697781926872000,2.6508720703125,-0.3994191288948059,-0.21152661740779877,0.29523277282714844
1772697781936919800,2.660919921875,-0.41184037923812866,-0.19967345893383026,0.28743964433670044
1772697781946969000,2.670968994140625,-0.43466952443122864,-0.17360909283161163,0.2739185094833374
1772697781957016800,2.681016845703125,-0.4394501745700836,-0.13528883457183838,0.2533329725265503
1772697781967066000,2.691066162109375,-0.43940702080726624,-0.09493687748908997,0.22772960364818573
1772697781977113900,2.70111376953125,-0.4287676513195038,-0.004732187837362289,0.20287615060806274
1772697781987163100,2.7111630859375,-0.417027086019516,0.089757040143013,0.17826507985591888
1772697781997212000,2.7212119140625,-0.4115886092185974,0.18207156658172607,0.17570769786834717
1772697782007260000,2.731260009765625,-0.4221307337284088,0.22854240238666534,0.1962348073720932
1772697782017309000,2.741308837890625,-0.4308701455593109,0.23273375630378723,0.2513748109340668
1772697782027357000,2.75135693359375,-0.4354451894760132,0.2238004505634308,0.3086934983730316
1772697782037406000,2.761406005859375,-0.4116062819957733,0.22265595197677612,0.32165566086769104
1772697782047455000,2.771455078125,-0.34499025344848633,0.2726064622402191,0.2666531205177307
1772697782057503000,2.7815029296875,-0.24883802235126495,0.31165704131126404,0.16123612225055695
1772697782067551700,2.7915517578125,-0.14744801819324493,0.30158257484436035,0.016106901690363884
1772697782077600000,2.80160009765625,-0.09616794437170029,0.19894437491893768,-0.11804582178592682
1772697782087648800,2.811648681640625,-0.10064951330423355,0.10502640902996063,-0.26257798075675964
1772697782097697000,2.821697021484375,-0.1570499688386917,0.11665104329586029,-0.3984977602958679
1772697782107745800,2.831745849609375,-0.2078939825296402,0.04076506942510605,-0.4043007791042328
1772697782117795000,2.841795166015625,-0.2684340178966522,-0.1599997729063034,-0.2771507501602173
1772697782127842800,2.8518427734375,-0.3281641900539398,-0.3494280278682709,-0.10672229528427124
1772697782137892000,2.86189208984375,-0.3792160749435425,-0.4154016971588135,0.018353087827563286
1772697782147939800,2.87193994140625,-0.3990260064601898,-0.34840190410614014,0.04526539519429207
1772697782157989000,2.881989013671875,-0.3915760815143585,-0.23931342363357544,-0.010896236635744572
1772697782168038000,2.892037841796875,-0.3467036783695221,-0.17721091210842133,-0.09547317773103714
1772697782178086100,2.902086181640625,-0.2628004848957062,-0.12639175355434418,-0.13928374648094177
1772697782188135000,2.912135009765625,-0.21432429552078247,-0.16613143682479858,-0.18189404904842377
1772697782198183200,2.92218310546875,-0.19153055548667908,-0.2703810930252075,-0.23676802217960358
1772697782208232000,2.93223193359375,-0.16270557045936584,-0.3672695755958557,-0.30899667739868164
1772697782218280200,2.9422802734375,-0.1368832290172577,-0.43633681535720825,-0.4306277930736542
1772697782228329000,2.952328857421875,-0.126530721783638,-0.45857954025268555,-0.5928832292556763
1772697782238378000,2.9623779296875,-0.10783234983682632,-0.45683327317237854,-0.7683181762695312
1772697782248426000,2.972426025390625,-0.08406523615121841,-0.4443497061729431,-0.9128894805908203
1772697782258475000,2.98247509765625,-0.060182563960552216,-0.5069736242294312,-0.9533333778381348
1772697782268523000,2.99252294921875,-0.008448529057204723,-0.42035749554634094,-1.049691915512085
1772697782278571800,3.00257177734375,0.05194121226668358,-0.3213624954223633,-1.163870930671692
1772697782288620000,3.0126201171875,0.09911777824163437,-0.2651596665382385,-1.2286728620529175
1772697782298668800,3.022668701171875,0.12710557878017426,-0.25749671459198,-1.2518401145935059
1772697782308718000,3.032718017578125,0.15432974696159363,-0.24299289286136627,-1.2305454015731812
1772697782318765800,3.042765869140625,0.18058034777641296,-0.20250944793224335,-1.1945868730545044
1772697782328815000,3.052815185546875,0.18905159831047058,-0.17016509175300598,-1.1236757040023804
1772697782338862800,3.06286279296875,0.18909038603305817,-0.1327696591615677,-1.0262171030044556
1772697782348912000,3.072912109375,0.16751797497272491,-0.13780862092971802,-0.9116892218589783
1772697782358961000,3.0829609375,0.1830860674381256,-0.0659802258014679,-0.8514702916145325
1772697782369009000,3.0930087890625,0.20524729788303375,-0.03898083046078682,-0.8008697032928467
1772697782379058000,3.103057861328125,0.2176763117313385,-0.12284418940544128,-0.7020179629325867
1772697782389106000,3.11310595703125,0.224454864859581,-0.23293021321296692,-0.5743585228919983
1772697782399155000,3.123155029296875,0.2226574867963791,-0.30113351345062256,-0.43397819995880127
1772697782409203000,3.133202880859375,0.21942998468875885,-0.327687531709671,-0.3145872950553894
1772697782419252000,3.143251953125,0.19529199600219727,-0.3701319396495819,-0.22316139936447144
1772697782429301000,3.153301025390625,0.1739017516374588,-0.3738907277584076,-0.13920417428016663
1772697782439349000,3.163348876953125,0.1529865562915802,-0.3409748077392578,-0.054151564836502075
1772697782449398000,3.17339794921875,0.1434500366449356,-0.28583085536956787,0.012253557331860065
1772697782459446000,3.183446044921875,0.14636991918087006,-0.21649786829948425,0.030863195657730103
1772697782469495000,3.1934951171875,0.14384151995182037,-0.2168818861246109,-0.018870538100600243
1772697782479543000,3.20354296875,0.1440742164850235,-0.2776172459125519,-0.10058441013097763
1772697782489592000,3.213592041015625,0.14490698277950287,-0.26899152994155884,-0.25293293595314026
1772697782499640800,3.223640869140625,0.1479935199022293,-0.3022322952747345,-0.4348057806491852
1772697782509688800,3.233688720703125,0.15981103479862213,-0.3642005920410156,-0.5842365026473999
1772697782519737900,3.24373779296875,0.18715216219425201,-0.3440393805503845,-0.7407708764076233
1772697782529785900,3.253785888671875,0.17649659514427185,-0.41604700684547424,-0.8575470447540283
1772697782539835000,3.2638349609375,0.14773821830749512,-0.49448561668395996,-0.9268497824668884
1772697782549884000,3.2738837890625,0.12776903808116913,-0.5285128355026245,-0.9486634731292725
1772697782559932000,3.283931884765625,0.11410548537969589,-0.4975831210613251,-0.927899956703186
1772697782569981000,3.29398095703125,0.08717080950737,-0.4157673716545105,-0.8696150779724121
1772697782580029000,3.30402880859375,0.06115198880434036,-0.3315848410129547,-0.8072065711021423
1772697782590078000,3.314077880859375,0.03706556186079979,-0.26948657631874084,-0.7496750950813293
1772697782600126000,3.3241259765625,0.020961608737707138,-0.25129789113998413,-0.7437304854393005
1772697782610175000,3.334175048828125,0.03991052880883217,-0.25344574451446533,-0.8085859417915344
1772697782620224000,3.34422412109375,0.07787291705608368,-0.27830857038497925,-0.9215826988220215
1772697782630272000,3.35427197265625,0.12692540884017944,-0.29037269949913025,-1.0504502058029175
1772697782640321000,3.364321044921875,0.1646621823310852,-0.29452693462371826,-1.1777311563491821
1772697782650369000,3.374369140625,0.18390138447284698,-0.2944132089614868,-1.2560560703277588
1772697782660418000,3.38441796875,0.1413121223449707,-0.2791975140571594,-1.254907250404358
1772697782670466800,3.394466796875,0.06060529127717018,-0.24144241213798523,-1.1873431205749512
1772697782680515000,3.40451513671875,-0.008455689996480942,-0.18879637122154236,-1.1076020002365112
1772697782690563800,3.414563720703125,-0.044818226248025894,-0.10582531988620758,-1.055694818496704
1772697782700612000,3.424612060546875,-0.0324690081179142,-0.00518801249563694,-1.0251061916351318
1772697782710660900,3.434660888671875,0.05235879495739937,0.0649668350815773,-0.992986798286438
1772697782720708900,3.444708984375,0.08500140905380249,0.12010642141103745,-0.9854529500007629
1772697782730758000,3.4547578125,0.09197916090488434,0.1775483936071396,-0.9404630661010742
1772697782740807200,3.46480712890625,0.10022884607315063,0.19625641405582428,-0.8882880806922913
1772697782750855000,3.47485498046875,0.11383573710918427,0.23708613216876984,-0.8479883074760437
1772697782760904200,3.484904296875,0.12648390233516693,0.2846013307571411,-0.8113715052604675
1772697782770952000,3.494951904296875,0.1618429571390152,0.29125016927719116,-0.7631227374076843
1772697782781001000,3.5050009765625,0.227236807346344,0.25441160798072815,-0.7109531164169312
1772697782791049000,3.515049072265625,0.29926201701164246,0.16441139578819275,-0.6618412137031555
1772697782801098000,3.525097900390625,0.34392890334129333,0.12115928530693054,-0.6519556045532227
1772697782811147000,3.53514697265625,0.47651171684265137,0.22904448211193085,-0.6483531594276428
1772697782821195000,3.545195068359375,0.6000426411628723,0.3446212708950043,-0.6556179523468018
1772697782831244000,3.555244140625,0.6668683290481567,0.3862377107143402,-0.623630166053772
1772697782841292000,3.5652919921875,0.672247588634491,0.3312602639198303,-0.5733585357666016
1772697782851341000,3.575341064453125,0.6802727580070496,0.2675241529941559,-0.5259561538696289
1772697782861389800,3.585389892578125,0.6774616837501526,0.1959906667470932,-0.5031961798667908
1772697782871438000,3.59543798828125,0.6425990462303162,0.08990418165922165,-0.53307044506073
1772697782881486800,3.60548681640625,0.6309704184532166,-0.044854894280433655,-0.6130767464637756
1772697782891535000,3.61553515625,0.6472088098526001,-0.19653655588626862,-0.7537896633148193
1772697782901584000,3.625583984375,0.7023738026618958,-0.26419126987457275,-0.9184988141059875
1772697782911632400,3.63563232421875,0.7256266474723816,-0.19818325340747833,-1.0475727319717407
1772697782921681200,3.64568115234375,0.7203908562660217,-0.059831295162439346,-1.103662371635437
1772697782931730200,3.655730224609375,0.6852637529373169,0.049881353974342346,-1.1001884937286377
1772697782941778200,3.665778076171875,0.6654011607170105,0.12703543901443481,-1.0727628469467163
1772697782951827200,3.6758271484375,0.6771393418312073,0.10932755470275879,-1.0990991592407227
1772697782961875200,3.685875244140625,0.6902127265930176,-0.00002900790423154831,-1.1620385646820068
1772697782971924200,3.69592431640625,0.7076119184494019,-0.14066176116466522,-1.2171812057495117
1772697782981973200,3.70597314453125,0.7468292713165283,-0.25535330176353455,-1.242291808128357
1772697782992021200,3.716021240234375,0.7857514023780823,-0.28255295753479004,-1.2843576669692993
1772697783002070300,3.7260703125,0.7851188778877258,-0.1337086260318756,-1.3181058168411255
1772697783012118000,3.736117919921875,0.7315307259559631,0.015537850558757782,-1.323524832725525
1772697783022167300,3.746167236328125,0.6595144867897034,0.01264951191842556,-1.2933450937271118
1772697783032215000,3.756215087890625,0.5734112858772278,0.02817494049668312,-1.106987476348877
1772697783042264300,3.766264404296875,0.48130515217781067,0.06018940731883049,-0.7756349444389343
1772697783052313300,3.776313232421875,0.3508288860321045,-0.0023338920436799526,-0.45259079337120056
1772697783062361300,3.786361328125,0.17547963559627533,-0.1534620076417923,-0.2514772117137909
1772697783072410000,3.79641015625,0.12007364630699158,-0.365626722574234,-0.1680862158536911
1772697783082458400,3.806458251953125,0.2116732895374298,-0.5705379247665405,-0.13100914657115936
1772697783092507100,3.816507080078125,0.35317501425743103,-0.5169146656990051,0.010536528192460537
1772697783102556200,3.82655615234375,0.4349197447299957,-0.19227907061576843,0.24567045271396637
1772697783112604200,3.836604248046875,0.4724407494068146,0.16298846900463104,0.4305982291698456
1772697783122653200,3.846653076171875,0.46173936128616333,0.370983749628067,0.4433305263519287
1772697783132701200,3.856701171875,0.3846043646335602,0.4330521821975708,0.3349369466304779
1772697783142750200,3.866750244140625,0.2804637849330902,0.4048745334148407,0.2255878895521164
1772697783152798200,3.876798095703125,0.17782075703144073,0.30656102299690247,0.21687082946300507
1772697783162847200,3.88684716796875,0.12920527160167694,0.15472440421581268,0.3144119381904602
1772697783172896300,3.896896240234375,0.127983957529068,0.016918864101171494,0.47484686970710754
1772697783182944300,3.9069443359375,0.12986764311790466,-0.029119934886693954,0.6241269707679749
1772697783192993300,3.9169931640625,0.13095128536224365,-0.0006576655432581902,0.7310014367103577
1772697783203041300,3.927041259765625,0.1365661919116974,0.023349449038505554,0.7682385444641113
1772697783213090300,3.93709033203125,0.1265479177236557,0.02284664288163185,0.7231624126434326
1772697783223138000,3.947137939453125,0.08013195544481277,-0.0006103366613388062,0.6298999786376953
1772697783233187000,3.95718701171875,0.009195996448397636,-0.005394705571234226,0.5298415422439575
1772697783243236400,3.967236328125,-0.053017761558294296,0.024627450853586197,0.43413281440734863
1772697783253284000,3.9772841796875,-0.08325902372598648,0.06528379768133163,0.34828847646713257
1772697783263333400,3.98733349609375,-0.06806614249944687,0.11503252387046814,0.2836659848690033
1772697783273381000,3.997381103515625,-0.04739442095160484,0.17257970571517944,0.25407081842422485
1772697783283430100,4.00743017578125,-0.0238153338432312,0.20423844456672668,0.25953033566474915
1772697783293479200,4.017479248046875,-0.004991844762116671,0.22989001870155334,0.2765093147754669
1772697783303527200,4.027527099609375,0.0011987718753516674,0.2436966449022293,0.287035197019577
1772697783313576200,4.037576171875,0.0067903450690209866,0.2506014406681061,0.27023544907569885
1772697783323624200,4.047624267578125,0.015841513872146606,0.24188557267189026,0.22778229415416718
1772697783333673200,4.057673095703125,0.03537686914205551,0.21955284476280212,0.1873600333929062
1772697783343721200,4.06772119140625,0.07716047763824463,0.16395366191864014,0.17878945171833038
1772697783353770200,4.077770263671875,0.1189018040895462,0.07276222109794617,0.22956155240535736
1772697783363819000,4.087819091796875,0.13269077241420746,-0.025743653997778893,0.3376191258430481
1772697783373867300,4.0978671875,0.1223561093211174,-0.09871053695678711,0.48414146900177
1772697783383916000,4.107916015625,0.09577447921037674,-0.1910192221403122,0.6363022923469543
1772697783393964300,4.11796435546875,0.04293070733547211,-0.2754438519477844,0.7843080163002014
1772697783404013000,4.128012939453125,-0.022332269698381424,-0.3046591579914093,0.9197454452514648
1772697783414062300,4.138062255859375,-0.08171597123146057,-0.250810831785202,1.0059425830841064
1772697783424110000,4.148110107421875,-0.14205282926559448,-0.12777476012706757,1.027277946472168
1772697783434159400,4.158159423828125,-0.19009359180927277,0.00886696856468916,0.998798668384552
1772697783444207000,4.16820703125,-0.24245253205299377,0.09508688747882843,0.9454569816589355
1772697783454256400,4.17825634765625,-0.2836045026779175,0.13974303007125854,0.9157017469406128
1772697783464304000,4.18830419921875,-0.2986242175102234,0.13669638335704803,0.8896040916442871
1772697783474353400,4.198353515625,-0.304632306098938,0.13588304817676544,0.8648646473884583
1772697783484402200,4.208402099609375,-0.3147064447402954,0.16193075478076935,0.8517950773239136
1772697783494450200,4.2184501953125,-0.331738144159317,0.19290705025196075,0.8445755243301392
1772697783504499200,4.228499267578125,-0.34814321994781494,0.2214307188987732,0.8460943698883057
1772697783514547200,4.238547119140625,-0.3323823809623718,0.18688338994979858,0.8328959941864014
1772697783524596200,4.24859619140625,-0.3162267804145813,0.11424031108617783,0.8053542971611023
1772697783534644200,4.258644287109375,-0.30134183168411255,0.10255995392799377,0.7824388742446899
1772697783544693200,4.268693359375,-0.3040125072002411,0.1403680443763733,0.7343636155128479
1772697783554742000,4.278741943359375,-0.3260214030742645,0.1911182999610901,0.6885250210762024
1772697783564790300,4.288790283203125,-0.3252491056919098,0.21139875054359436,0.6731207370758057
1772697783574839000,4.298839111328125,-0.3228757083415985,0.24707739055156708,0.6743927001953125
1772697783584887300,4.30888720703125,-0.30923017859458923,0.26276203989982605,0.664531409740448
1772697783594936000,4.31893603515625,-0.28553256392478943,0.23435328900814056,0.617972731590271
1772697783604985300,4.3289853515625,-0.2797091007232666,0.20627397298812866,0.5618254542350769
1772697783615033000,4.339033203125,-0.27242428064346313,0.1716803014278412,0.5040140748023987
1772697783625082400,4.349082275390625,-0.262282133102417,0.1488126963376999,0.46681201457977295
1772697783635130000,4.359130126953125,-0.26273593306541443,0.14454658329486847,0.4459162950515747
1772697783645179400,4.369179443359375,-0.26868316531181335,0.15935976803302765,0.4624803960323334
1772697783655227100,4.37922705078125,-0.2823702096939087,0.20350699126720428,0.4910459816455841
1772697783665276400,4.3892763671875,-0.29246214032173157,0.21366040408611298,0.5565834641456604
1772697783675325200,4.3993251953125,-0.31258177757263184,0.1902163326740265,0.6291793584823608
1772697783685373200,4.409373291015625,-0.3478270173072815,0.20453549921512604,0.7224042415618896
1772697783695422200,4.419422119140625,-0.3936333656311035,0.21420544385910034,0.8277618288993835
1772697783705470200,4.42947021484375,-0.4257209300994873,0.15993747115135193,0.9255828261375427
1772697783715519200,4.439519287109375,-0.4515533149242401,0.08558440208435059,0.9986826181411743
1772697783725568300,4.449568359375,-0.46230897307395935,0.02224389836192131,1.033125638961792
1772697783735616300,4.4596162109375,-0.4539458453655243,-0.027332976460456848,1.0487232208251953
1772697783745665300,4.469665283203125,-0.43013983964920044,-0.03456958383321762,1.0172932147979736
1772697783755713300,4.47971337890625,-0.4093674421310425,-0.024777404963970184,0.9541701078414917
1772697783765762000,4.489761962890625,-0.39611709117889404,-0.0015636840835213661,0.8751769065856934
1772697783775810300,4.499810302734375,-0.38214829564094543,0.02432064339518547,0.8064516186714172
1772697783785859000,4.509859130859375,-0.3706740438938141,0.05047682672739029,0.7706385850906372
1772697783795908000,4.519908203125,-0.3604661524295807,0.07957638800144196,0.7752759456634521
1772697783805956000,4.5299560546875,-0.3577013313770294,0.1138082817196846,0.8207096457481384
1772697783816005000,4.540005126953125,-0.353472501039505,0.15306887030601501,0.897314727306366
1772697783826053000,4.55005322265625,-0.3627452850341797,0.18626613914966583,0.9714600443840027
1772697783836102100,4.56010205078125,-0.3812713027000427,0.20913363993167877,1.0450077056884766
1772697783846151200,4.570151123046875,-0.37663811445236206,0.2318383753299713,1.0647274255752563
1772697783856199200,4.58019921875,-0.3713434934616089,0.23012836277484894,1.0122767686843872
1772697783866248200,4.590248291015625,-0.36516067385673523,0.17510852217674255,0.91731858253479
1772697783876296200,4.600296142578125,-0.35960960388183594,0.08301588147878647,0.8215683698654175
1772697783886345200,4.61034521484375,-0.3561893701553345,0.007259531412273645,0.7355235815048218
1772697783896393200,4.620393310546875,-0.3551185131072998,-0.029891299083828926,0.6805399656295776
1772697783906442500,4.6304423828125,-0.35402002930641174,-0.07160227745771408,0.6595982909202576
1772697783916491300,4.6404912109375,-0.37158408761024475,-0.12445244193077087,0.6832149624824524
1772697783926539500,4.65053955078125,-0.4004407227039337,-0.1815425604581833,0.7377658486366272
1772697783936588300,4.66058837890625,-0.43114137649536133,-0.22368788719177246,0.8038897514343262
1772697783946636500,4.670636474609375,-0.45299580693244934,-0.2466573864221573,0.8596909642219543
1772697783956685300,4.680685302734375,-0.46320557594299316,-0.2686396539211273,0.9026362895965576
1772697783966733300,4.6907333984375,-0.4483768939971924,-0.28062233328819275,0.8900299072265625
1772697783976782300,4.7007822265625,-0.39085420966148376,-0.22639930248260498,0.7900250554084778
1772697783986831400,4.710831298828125,-0.3096923828125,-0.11909502744674683,0.641499936580658
1772697783996879400,4.72087939453125,-0.2229233831167221,0.00785626471042633,0.48205623030662537
1772697784006928400,4.730928466796875,-0.16426172852516174,0.09960140287876129,0.32296353578567505
1772697784016976400,4.740976318359375,-0.17853599786758423,0.14844058454036713,0.15439742803573608
1772697784027025200,4.751025146484375,-0.23478032648563385,0.1826970875263214,0.004983845166862011
1772697784037074400,4.761074462890625,-0.22871604561805725,0.23422633111476898,-0.09759126603603363
1772697784047122200,4.7711220703125,-0.19350314140319824,0.2955935597419739,-0.1470545381307602
1772697784057171500,4.78117138671875,-0.1835692822933197,0.2985438108444214,-0.11842343211174011
1772697784067219200,4.79121923828125,-0.2224414348602295,0.15957395732402802,0.031189115718007088
1772697784077268500,4.8012685546875,-0.2911643087863922,-0.01680692285299301,0.26857373118400574
1772697784087316200,4.811316162109375,-0.34921321272850037,-0.0953684002161026,0.4663899838924408
1772697784097365500,4.821365478515625,-0.35953590273857117,-0.09580196440219879,0.5636166334152222
1772697784107414300,4.831414306640625,-0.3356871008872986,-0.08057606220245361,0.5804462432861328
1772697784117462300,4.841462158203125,-0.31471070647239685,-0.07436264306306839,0.5412660837173462
1772697784127511300,4.85151123046875,-0.31325122714042664,-0.11952637135982513,0.4854431748390198
1772697784137559300,4.861559326171875,-0.32214033603668213,-0.24020299315452576,0.44083043932914734
1772697784147608300,4.8716083984375,-0.33130553364753723,-0.4207637906074524,0.39617568254470825
1772697784157656300,4.88165625,-0.3394441306591034,-0.5785523056983948,0.3432735800743103
1772697784167705300,4.891705322265625,-0.3309650421142578,-0.643190324306488,0.24459010362625122
1772697784177754400,4.90175439453125,-0.3004566729068756,-0.5776525735855103,0.090762197971344
1772697784187802400,4.91180224609375,-0.24499909579753876,-0.37967872619628906,-0.10632775723934174
1772697784197851400,4.921851318359375,-0.16881591081619263,-0.1059664860367775,-0.3119504451751709
1772697784207899400,4.9318994140625,-0.09512677788734436,0.1309889405965805,-0.5148358345031738
1772697784217948400,4.941948486328125,-0.021270399913191795,0.25736740231513977,-0.6676456332206726
1772697784227997200,4.9519970703125,0.019759289920330048,0.3139653503894806,-0.7235379815101624
1772697784238045200,4.962045166015625,0.026886707171797752,0.3319464921951294,-0.7241880297660828
1772697784248094200,4.97209423828125,0.010420585051178932,0.2987467646598816,-0.7132664322853088
1772697784258142200,4.98214208984375,0.01755652390420437,0.24089278280735016,-0.7250471711158752
1772697784268191200,4.992191162109375,0.044231660664081573,0.1967117190361023,-0.788383424282074
1772697784278239200,5.0022392578125,0.09185084700584412,0.18245741724967957,-0.8575393557548523
1772697784288288300,5.012288330078125,0.14920209348201752,0.1424456089735031,-0.8762741684913635
1772697784298337300,5.022337158203125,0.1909029334783554,0.03385576233267784,-0.8176367282867432
1772697784308385300,5.03238525390625,0.21329505741596222,-0.09760276228189468,-0.6862517595291138
1772697784318434300,5.042434326171875,0.2235381007194519,-0.21584925055503845,-0.508566677570343
1772697784328482300,5.052482421875,0.22347159683704376,-0.38659802079200745,-0.330711305141449
1772697784338531300,5.06253125,0.21941587328910828,-0.5873316526412964,-0.19989897310733795
1772697784348580400,5.072580322265625,0.22329117357730865,-0.7249866724014282,-0.12581482529640198
1772697784358628400,5.08262841796875,0.1982223093509674,-0.7947561740875244,-0.12675118446350098
1772697784368677400,5.092677490234375,0.16264715790748596,-0.8289051651954651,-0.17251677811145782
1772697784378725400,5.102725341796875,0.1421637237071991,-0.8534507155418396,-0.2756010890007019
1772697784388774400,5.1127744140625,0.14405658841133118,-0.8356145024299622,-0.46330711245536804
1772697784398822400,5.122822509765625,0.1470222920179367,-0.8155395984649658,-0.7480186820030212
1772697784408871400,5.132871337890625,0.1586187332868576,-0.8190897703170776,-1.0767899751663208
1772697784418920200,5.142920166015625,0.17810775339603424,-0.7770917415618896,-1.3067859411239624
1772697784428968400,5.152968505859375,0.1993652880191803,-0.6754706501960754,-1.3907371759414673
1772697784439017200,5.163017333984375,0.23531556129455566,-0.5649084448814392,-1.3308775424957275
1772697784449065500,5.1730654296875,0.2806421220302582,-0.436428427696228,-1.1979105472564697
1772697784459114200,5.1831142578125,0.2897599935531616,-0.36987072229385376,-1.0231372117996216
1772697784469163500,5.19316357421875,0.2800673544406891,-0.32101961970329285,-0.8674731254577637
1772697784479211300,5.203211181640625,0.27064111828804016,-0.3088359236717224,-0.7384796738624573
1772697784489260500,5.213260498046875,0.2519877851009369,-0.3164186477661133,-0.6520858407020569
1772697784499308300,5.223308349609375,0.2413148730993271,-0.2999195456504822,-0.614107072353363
1772697784509357600,5.233357666015625,0.17172163724899292,-0.23563654720783234,-0.6147672533988953
1772697784519405300,5.2434052734375,0.045929085463285446,-0.19013909995555878,-0.6274236440658569
1772697784529454300,5.253454345703125,-0.021496552973985672,-0.1803806573152542,-0.59689861536026
1772697784539503400,5.26350341796875,-0.035821959376335144,-0.1938948631286621,-0.5537047982215881
1772697784549551400,5.27355126953125,-0.020424896851181984,-0.19231055676937103,-0.5451507568359375
1772697784559600400,5.283600341796875,0.043594300746917725,-0.11413266509771347,-0.55730140209198
1772697784569648400,5.2936484375,0.1385803371667862,0.02078193426132202,-0.5761452317237854
1772697784579697400,5.303697509765625,0.2342839539051056,0.1451776623725891,-0.6130715608596802
1772697784589745400,5.313745361328125,0.3070565164089203,0.2184028923511505,-0.6255894899368286
1772697784599794400,5.32379443359375,0.3322095274925232,0.1878764033317566,-0.5700716376304626
1772697784609843200,5.33384326171875,0.32787007093429565,0.10924309492111206,-0.4761955142021179
1772697784619891500,5.343891357421875,0.3441922962665558,0.003544365521520376,-0.3753487765789032
1772697784629940200,5.353940185546875,0.36530181765556335,-0.07595038414001465,-0.3001576364040375
1772697784639988500,5.363988525390625,0.38826730847358704,-0.05116993933916092,-0.2621577978134155
1772697784650037200,5.374037353515625,0.4049312174320221,0.007430365774780512,-0.24438217282295227
1772697784660086300,5.384086181640625,0.43066319823265076,0.07008308917284012,-0.24404636025428772
1772697784670134300,5.39413427734375,0.46536433696746826,0.1217106282711029,-0.25729063153266907
1772697784680183300,5.404183349609375,0.4847247302532196,0.14985652267932892,-0.296039342880249
1772697784690231300,5.414231201171875,0.5296881794929504,0.1238970160484314,-0.3798161745071411
1772697784700280300,5.4242802734375,0.5724963545799255,0.09853066504001617,-0.5054787993431091
1772697784710328300,5.434328369140625,0.6033927798271179,0.09547321498394012,-0.6321810483932495
1772697784720377300,5.44437744140625,0.6169021725654602,0.09899365156888962,-0.727406919002533
1772697784730426400,5.45442626953125,0.6063216924667358,0.08823591470718384,-0.7710617184638977
1772697784740474000,5.46447412109375,0.5834651589393616,0.04162953048944473,-0.7567129135131836
1772697784750523400,5.4745234375,0.5616346597671509,-0.041485875844955444,-0.7213287353515625
1772697784760571100,5.484571044921875,0.5394241213798523,-0.1477968692779541,-0.7028245329856873
1772697784770620400,5.494620361328125,0.5106115341186523,-0.23232854902744293,-0.73691725730896
1772697784780669400,5.50466943359375,0.48256394267082214,-0.3002769947052002,-0.8100745677947998
1772697784790717400,5.514717529296875,0.4635026454925537,-0.37525102496147156,-0.9158201217651367
1772697784800766200,5.52476611328125,0.4595651626586914,-0.4341100752353668,-1.0313329696655273
1772697784810814500,5.534814453125,0.472041517496109,-0.47132471203804016,-1.1409177780151367
1772697784820863200,5.54486328125,0.5047251582145691,-0.4555729031562805,-1.194858431816101
1772697784830911500,5.554911376953125,0.568978488445282,-0.39485520124435425,-1.1871062517166138
1772697784840960300,5.564960205078125,0.6456402540206909,-0.3296245336532593,-1.126818299293518
1772697784851009300,5.57500927734375,0.7160645723342896,-0.2945328950881958,-1.0632200241088867
1772697784861057300,5.585057373046875,0.7676947116851807,-0.28343310952186584,-1.0167814493179321
1772697784871106300,5.595106201171875,0.8056212067604065,-0.30851981043815613,-0.9978234767913818
1772697784881154300,5.605154296875,0.7954426407814026,-0.3469926416873932,-1.046400547027588
1772697784891203300,5.615203369140625,0.7041417360305786,-0.30478987097740173,-1.1207098960876465
1772697784901251300,5.625251220703125,0.5816997289657593,-0.3282565772533417,-1.1726857423782349
1772697784911299800,5.6352998046875,0.4749205410480499,-0.3788570761680603,-1.1256693601608276
1772697784921349000,5.64534912109375,0.3931974470615387,-0.31550928950309753,-0.8872458338737488
1772697784931396900,5.65539697265625,0.30346357822418213,-0.27634385228157043,-0.587277352809906
1772697784941446100,5.665446044921875,0.11697863042354584,-0.4023824632167816,-0.4788427948951721
1772697784951495000,5.675494873046875,-0.017249945551156998,-0.6848042607307434,-0.6280979514122009
1772697784961543000,5.68554296875,0.05498909577727318,-0.8187783360481262,-0.7256593704223633
1772697784971592000,5.695592041015625,0.2616400122642517,-0.48245567083358765,-0.4696936309337616
1772697784981640000,5.705639892578125,0.45759814977645874,0.0028456789441406727,-0.024727754294872284
1772697784991689000,5.71568896484375,0.5411099195480347,0.3166147470474243,0.330417275428772
1772697785001737000,5.725737060546875,0.540705144405365,0.39668187499046326,0.4500901401042938
1772697785011786000,5.735785888671875,0.5230801105499268,0.3655641973018646,0.3535730540752411
1772697785021834800,5.745834716796875,0.4715963900089264,0.3816797733306885,0.11281289905309677
1772697785031883000,5.755883056640625,0.37434425950050354,0.5389595031738281,-0.07532159239053726
1772697785041931800,5.765931884765625,0.3278507888317108,0.6693511009216309,-0.0735415369272232
1772697785051980000,5.77597998046875,0.4203054904937744,0.6532601118087769,0.09794683009386063
1772697785062028800,5.78602880859375,0.5255658626556396,0.5943171381950378,0.2965027987957001
1772697785072078000,5.796078125,0.558186948299408,0.4187847971916199,0.3970273435115814
1772697785082125800,5.806125732421875,0.5220893621444702,0.14685048162937164,0.38270777463912964
1772697785092175000,5.816175048828125,0.4304488003253937,-0.12053335458040237,0.28402775526046753
1772697785102222800,5.826222900390625,0.3520064651966095,-0.31655532121658325,0.14103621244430542
1772697785112272100,5.836272216796875,0.3006362020969391,-0.45069605112075806,0.001185285160318017
1772697785122320000,5.84631982421875,0.26086482405662537,-0.5289527177810669,-0.11098919063806534
1772697785132369200,5.856369140625,0.2098119854927063,-0.5189653635025024,-0.1612013727426529
1772697785142418000,5.86641796875,0.18222562968730927,-0.4401922821998596,-0.14091260731220245
1772697785152466200,5.876466064453125,0.18690629303455353,-0.3177209198474884,-0.06617829203605652
1772697785162515000,5.886514892578125,0.2126087248325348,-0.13229674100875854,0.03875824436545372
1772697785172563200,5.896563232421875,0.21934206783771515,0.1183675080537796,0.14816881716251373
1772697785182612000,5.906612060546875,0.20622333884239197,0.32177603244781494,0.2576340436935425
1772697785192661000,5.916660888671875,0.17232468724250793,0.4116256535053253,0.3447105288505554
1772697785202709000,5.926708984375,0.11744973063468933,0.38709765672683716,0.39395689964294434
1772697785212758000,5.936758056640625,0.07845807820558548,0.2785157561302185,0.4183987081050873
1772697785222806000,5.946805908203125,0.06252943724393845,0.15248806774616241,0.44889697432518005
1772697785232854800,5.956854736328125,0.06409795582294464,-0.029774591326713562,0.5121081471443176
1772697785242903000,5.966903076171875,0.06634992361068726,-0.1626327633857727,0.6025887727737427
1772697785252951800,5.976951904296875,0.051703985780477524,-0.15270628035068512,0.6666660308837891
1772697785263001000,5.9870009765625,0.01929890736937523,0.016543466597795486,0.6485812664031982
1772697785273048800,5.997048828125,-0.017232665792107582,0.20569618046283722,0.5799368023872375
1772697785283097900,6.007097900390625,-0.04785981401801109,0.31651565432548523,0.5239563584327698
1772697785293145900,6.017145751953125,-0.07148081064224243,0.34731823205947876,0.5004302859306335
1772697785303195000,6.02719482421875,-0.09319089353084564,0.352756142616272,0.4800848364830017
1772697785313244000,6.037243896484375,-0.11163105815649033,0.34305107593536377,0.44475480914115906
1772697785323292000,6.0472919921875,-0.11663353443145752,0.32885855436325073,0.41039496660232544
1772697785333341000,6.0573408203125,-0.1188112199306488,0.3155771493911743,0.4051492512226105
1772697785343389000,6.067388916015625,-0.13070383667945862,0.3083253502845764,0.4229527413845062
1772697785353438000,6.07743798828125,-0.16553963720798492,0.30426669120788574,0.4327021837234497
1772697785363486000,6.08748583984375,-0.2024792730808258,0.3027998208999634,0.4187999367713928
1772697785373535000,6.097534912109375,-0.24045366048812866,0.3012320399284363,0.38616490364074707
1772697785383584000,6.107583984375,-0.27034977078437805,0.3022541403770447,0.3428262174129486
1772697785393632000,6.117632080078125,-0.28447622060775757,0.31087231636047363,0.2972080707550049
1772697785403681000,6.127680908203125,-0.29304975271224976,0.3228251338005066,0.2611909508705139
1772697785413729000,6.13772900390625,-0.30747735500335693,0.33191606402397156,0.2458290010690689
1772697785423778000,6.147778076171875,-0.31920111179351807,0.33811402320861816,0.2644929587841034
1772697785433826800,6.157826904296875,-0.3413274586200714,0.31887736916542053,0.31800028681755066
1772697785443875000,6.167875,-0.3618292808532715,0.30175670981407166,0.3820554316043854
1772697785453923800,6.177923828125,-0.38849976658821106,0.2947840690612793,0.446961373090744
1772697785463971800,6.187971923828125,-0.4114628732204437,0.2908034324645996,0.49973776936531067
1772697785474020900,6.198020751953125,-0.43518492579460144,0.2726515233516693,0.5339096188545227
1772697785484068900,6.20806884765625,-0.45548298954963684,0.24322625994682312,0.5499229431152344
1772697785494118000,6.218117919921875,-0.47545239329338074,0.199137881398201,0.5524344444274902
1772697785504167000,6.2281669921875,-0.48931947350502014,0.1502385139465332,0.5532235503196716
1772697785514215000,6.23821484375,-0.49978697299957275,0.1177060678601265,0.5611419677734375
1772697785524264000,6.248263916015625,-0.5144465565681458,0.10295481979846954,0.5761049389839172
1772697785534312000,6.25831201171875,-0.5324873924255371,0.08358333259820938,0.6241709589958191
1772697785544361000,6.26836083984375,-0.5575669407844543,0.059534456580877304,0.6975902915000916
1772697785554410000,6.278409912109375,-0.579632043838501,0.06997963786125183,0.7580075860023499
1772697785564458000,6.2884580078125,-0.5935332179069519,0.0920306146144867,0.7936726212501526
1772697785574507000,6.298507080078125,-0.5976598262786865,0.0798383429646492,0.8059718608856201
1772697785584555000,6.308554931640625,-0.6046652793884277,0.04396316409111023,0.8197166919708252
1772697785594604000,6.31860400390625,-0.6178621649742126,0.011097118258476257,0.8220452666282654
1772697785604652000,6.328652099609375,-0.6332795023918152,-0.01806129887700081,0.8133662939071655
1772697785614701000,6.338701171875,-0.6461906433105469,-0.01445887703448534,0.8132349848747253
1772697785624749800,6.348749755859375,-0.6470156908035278,0.02654687874019146,0.8134254217147827
1772697785634798000,6.358798095703125,-0.6305209994316101,0.09858301281929016,0.79706209897995
1772697785644846800,6.368846923828125,-0.6002904176712036,0.1943340301513672,0.7728294730186462
1772697785654895000,6.37889501953125,-0.57508784532547,0.26498886942863464,0.7398167848587036
1772697785664943900,6.38894384765625,-0.5525282025337219,0.3042478561401367,0.7269097566604614
1772697785674993200,6.3989931640625,-0.5485023260116577,0.3246563971042633,0.7397491335868835
1772697785685041000,6.409041015625,-0.5345337390899658,0.3087022006511688,0.7625178098678589
1772697785695090200,6.419090087890625,-0.5271674990653992,0.28018903732299805,0.7929176688194275
1772697785705138000,6.429137939453125,-0.5177145600318909,0.2438720166683197,0.8322775959968567
1772697785715187200,6.439187255859375,-0.5063360929489136,0.22158655524253845,0.8628272414207458
1772697785725236000,6.449236083984375,-0.4964462220668793,0.20600228011608124,0.8778930306434631
1772697785735284000,6.459283935546875,-0.47411876916885376,0.21947669982910156,0.8628053665161133
1772697785745333000,6.4693330078125,-0.44582027196884155,0.2619410753250122,0.8277754783630371
1772697785755381000,6.479381103515625,-0.4474017918109894,0.25893479585647583,0.8021998405456543
1772697785765430000,6.489429931640625,-0.45284849405288696,0.2124415934085846,0.7913237810134888
1772697785775477800,6.499477783203125,-0.4765526056289673,0.1613181084394455,0.7923592329025269
1772697785785527000,6.509527099609375,-0.4925491511821747,0.035752732306718826,0.8099890947341919
1772697785795575800,6.519575927734375,-0.47046083211898804,-0.13102170825004578,0.8267567753791809
1772697785805624000,6.5296240234375,-0.46009501814842224,-0.25235265493392944,0.8059441447257996
1772697785815672800,6.5396728515625,-0.5225402116775513,-0.38738054037094116,0.7413775324821472
1772697785825721000,6.54972119140625,-0.5677710771560669,-0.599293053150177,0.6426022052764893
1772697785835769900,6.559769775390625,-0.563472330570221,-0.658326268196106,0.5232141613960266
1772697785845819000,6.56981884765625,-0.5654736757278442,-0.4769512116909027,0.33681657910346985
1772697785855867000,6.579866943359375,-0.5919250249862671,-0.1009519100189209,0.13704735040664673
1772697785865916000,6.589916015625,-0.6293842196464539,0.18860720098018646,0.004876002203673124
1772697785875964000,6.5999638671875,-0.7042466998100281,0.28671517968177795,0.026868309825658798
1772697785886013000,6.610012939453125,-0.7607728242874146,0.2540925145149231,0.1996299773454666
1772697785896061000,6.62006103515625,-0.717438280582428,0.21227559447288513,0.4278431832790375
1772697785906110000,6.63010986328125,-0.6037594079971313,0.17352581024169922,0.6113322973251343
1772697785916159200,6.6401591796875,-0.49789464473724365,0.12531962990760803,0.680048406124115
1772697785926207000,6.65020703125,-0.47417545318603516,0.060006409883499146,0.6736360192298889
1772697785936256300,6.66025634765625,-0.4732763171195984,-0.04264957457780838,0.6664773225784302
1772697785946304000,6.670303955078125,-0.42561453580856323,-0.15430021286010742,0.6566299796104431
1772697785956353300,6.680353271484375,-0.37463563680648804,-0.2789740562438965,0.6548753380775452
1772697785966402000,6.690402099609375,-0.3686470091342926,-0.3528807759284973,0.6521301865577698
1772697785976450300,6.7004501953125,-0.3655025362968445,-0.373179167509079,0.6337801814079285
1772697785986499000,6.7104990234375,-0.3967970609664917,-0.359129399061203,0.6041038036346436
1772697785996547300,6.72054736328125,-0.4194561839103699,-0.3232467472553253,0.5811826586723328
1772697786006596000,6.73059619140625,-0.38309335708618164,-0.173148050904274,0.603209912776947
1772697786016644400,6.740644287109375,-0.06833424419164658,-0.7705914974212646,0.9177583456039429
1772697786026693000,6.750693115234375,0.16926738619804382,-2.117434024810791,1.4713698625564575
1772697786036742100,6.7607421875,0.016836103051900864,-2.52230167388916,1.6370272636413574
1772697786046790100,6.7707900390625,-0.0704556554555893,-2.427217960357666,1.5407313108444214
1772697786056839200,6.780839111328125,-0.20967218279838562,-1.7602065801620483,1.1315176486968994
1772697786066887200,6.79088720703125,-0.35329461097717285,-0.8457723259925842,0.5642493963241577
1772697786076936000,6.80093603515625,-0.382503867149353,-0.21056820452213287,0.17254552245140076
1772697786086985200,6.810985107421875,-0.3101857304573059,-0.08130022138357162,0.13013441860675812
1772697786097033000,6.821032958984375,-0.22648271918296814,-0.15552036464214325,0.24422305822372437
1772697786107082200,6.831082275390625,-0.15647566318511963,-0.12371715903282166,0.29448598623275757
1772697786117130000,6.8411298828125,-0.0643780529499054,-0.034294888377189636,0.29809531569480896
1772697786127179300,6.85117919921875,0.02013576030731201,0.04659117013216019,0.2648891806602478
1772697786137227000,6.86122705078125,0.08418785035610199,0.1306951940059662,0.16660554707050323
1772697786147276300,6.8712763671875,0.1102849617600441,0.12504982948303223,0.06370259821414948
1772697786157325000,6.881324951171875,0.0869169756770134,0.05614792928099632,0.0009056050330400467
1772697786167373000,6.891373046875,0.08162527531385422,0.011983931995928288,-0.0269412063062191
1772697786177422000,6.901422119140625,0.1129336729645729,-0.07135041803121567,-0.0044134315103292465
1772697786187470000,6.911469970703125,0.16718651354312897,-0.42877912521362305,0.12216182053089142
1772697786197519000,6.92151904296875,0.22993458807468414,-0.7080533504486084,0.24455714225769043
1772697786207568100,6.931568115234375,0.3314380347728729,-0.9007340669631958,0.3820958435535431
1772697786217616100,6.9416162109375,0.4708608090877533,-1.0674340724945068,0.5932237505912781
1772697786227665200,6.9516650390625,0.6554359793663025,-1.1422510147094727,0.8516486287117004
1772697786237713200,6.961713134765625,0.8681000471115112,-1.1090260744094849,1.1192227602005005
1772697786247762200,6.97176220703125,1.0962212085723877,-0.978404700756073,1.3901671171188354
1772697786257810200,6.98181005859375,1.304770827293396,-0.8352881073951721,1.5977661609649658
1772697786267859200,6.991859130859375,1.5058897733688354,-0.8535885214805603,1.7202590703964233
1772697786277908000,7.001907958984375,1.6433100700378418,-1.0835485458374023,1.761596441268921
1772697786287956200,7.011956298828125,1.6984010934829712,-1.4297016859054565,1.695996642112732
1772697786298005000,7.0220048828125,1.6977568864822388,-1.7884175777435303,1.5040035247802734
1772697786308053000,7.032052978515625,1.7188624143600464,-2.2212584018707275,1.1915234327316284
1772697786318102000,7.04210205078125,1.7019846439361572,-2.7300662994384766,0.8161697387695312
1772697786328151300,7.0521513671875,1.5557425022125244,-3.1855268478393555,0.5712939500808716
1772697786338199000,7.062198974609375,1.4787248373031616,-3.2811708450317383,0.28982603549957275
1772697786348248300,7.072248291015625,1.4146614074707031,-3.2674922943115234,0.06982042640447617
1772697786358296000,7.082296142578125,1.3313535451889038,-3.281951427459717,-0.026568660512566566
1772697786368345000,7.092344970703125,1.2439566850662231,-3.078885078430176,-0.07169166207313538
1772697786378393000,7.10239306640625,1.1745976209640503,-2.5238699913024902,-0.10305566340684891
1772697786388442000,7.112442138671875,1.0665080547332764,-1.7067221403121948,-0.10118479281663895
1772697786398491100,7.1224912109375,0.9690421223640442,-0.9353839755058289,-0.1089656874537468
1772697786408539100,7.1325390625,0.9124875068664551,-0.28912192583084106,-0.10137487947940826
1772697786418588200,7.142588134765625,0.9777894020080566,0.24617135524749756,-0.11160726100206375
1772697786428636200,7.15263623046875,1.1808431148529053,0.5704309344291687,-0.15446364879608154
1772697786438685200,7.162685302734375,1.26837158203125,0.8483328223228455,-0.32920077443122864
1772697786448734000,7.17273388671875,1.183761715888977,0.881243884563446,-0.35873815417289734
1772697786458782200,7.1827822265625,0.9439066648483276,0.7951440215110779,-0.7281143069267273
1772697786468831000,7.1928310546875,0.7551940083503723,0.48651212453842163,-1.1430002450942993
1772697786478879200,7.202879150390625,0.563278079032898,0.2778480350971222,-1.5081486701965332
1772697786488928000,7.212927978515625,0.4840511977672577,0.23378977179527283,-1.6051244735717773
1772697786498976300,7.222976318359375,0.4557942748069763,0.16022537648677826,-1.6077173948287964
1772697786509025000,7.23302490234375,0.4185448884963989,-0.05334896594285965,-1.642837643623352
1772697786519074300,7.24307421875,0.3290174603462219,-0.27740025520324707,-1.6594518423080444
1772697786529122000,7.2531220703125,0.19146811962127686,-0.43441063165664673,-1.678680419921875
1772697786539171300,7.26317138671875,0.06220095977187157,-0.5608140230178833,-1.5881763696670532
1772697786549219000,7.273218994140625,-0.09806860983371735,-0.6093834638595581,-1.3839603662490845
1772697786559268400,7.283268310546875,-0.22599105536937714,-0.5509158372879028,-1.1150954961776733
1772697786569317000,7.293317138671875,-0.20853270590305328,-0.39951831102371216,-0.8923472166061401
1772697786579365000,7.303365234375,-0.08642804622650146,-0.2612680196762085,-0.7847108840942383
1772697786589414100,7.3134140625,0.02322547882795334,-0.11083351820707321,-0.676391065120697
1772697786599462100,7.323462158203125,0.01826438307762146,0.06833101063966751,-0.5636376142501831
1772697786609511200,7.33351123046875,-0.020050780847668648,0.23025518655776978,-0.34301894903182983
1772697786619559200,7.34355908203125,-0.05285349488258362,0.30265384912490845,-0.07026005536317825
1772697786629608200,7.353608154296875,-0.09827077388763428,-0.09591697156429291,0.02175881341099739
1772697786639657000,7.363656982421875,-0.15742388367652893,-0.5525965094566345,-0.20849215984344482
1772697786649705200,7.373705322265625,-0.16926217079162598,-0.7808791995048523,-0.5105843544006348
1772697786659754000,7.38375390625,-0.1920361965894699,-0.7844701409339905,-0.6971753835678101
1772697786669802200,7.39380224609375,-0.28432589769363403,-0.8617923259735107,-0.7374900579452515
1772697786679851000,7.40385107421875,-0.36006221175193787,-0.9634145498275757,-0.6754001379013062
1772697786689900000,7.413900146484375,-0.39661118388175964,-0.9403347969055176,-0.5207645297050476
1772697786699948000,7.423947998046875,-0.4515334665775299,-0.8688366413116455,-0.36826443672180176
1772697786709997000,7.4339970703125,-0.49093466997146606,-0.916848361492157,-0.2689298689365387
1772697786720045000,7.444045166015625,-0.5734028816223145,-0.8507550358772278,-0.2878897786140442
1772697786730094000,7.454093994140625,-0.573502779006958,-0.7855725884437561,-0.38507145643234253
1772697786740143000,7.46414306640625,-0.5168251395225525,-0.7272303104400635,-0.4406835436820984
1772697786750191000,7.474191162109375,-0.41951242089271545,-0.6279894709587097,-0.4294455349445343
1772697786760240000,7.484240234375,-0.3488657772541046,-0.5257812142372131,-0.3901482820510864
1772697786770288000,7.4942880859375,-0.2774896025657654,-0.5424909591674805,-0.36309564113616943
1772697786780337200,7.504337158203125,-0.1988992989063263,-0.6133202910423279,-0.37196117639541626
1772697786790385000,7.514385009765625,-0.14221790432929993,-0.5747305154800415,-0.4404059946537018
1772697786800434200,7.52443408203125,-0.2147613763809204,-0.6779751181602478,-0.5884385108947754
1772697786810483200,7.534483154296875,-0.23310869932174683,-0.7248265147209167,-0.670663595199585
1772697786820531200,7.54453125,-0.22694267332553864,-0.7813667058944702,-0.7145863175392151
1772697786830580200,7.554580322265625,-0.20308928191661835,-0.7477283477783203,-0.7372487783432007
1772697786840628200,7.564628173828125,-0.20060841739177704,-0.7389523386955261,-0.7243756651878357
1772697786850677000,7.574677001953125,-0.1629638373851776,-0.7697001099586487,-0.6364763975143433
1772697786860726000,7.58472607421875,-0.10988932847976685,-0.8994791507720947,-0.5578494668006897
1772697786870774000,7.59477392578125,-0.07119732350111008,-0.9572593569755554,-0.5142410397529602
1772697786880823000,7.604822998046875,-0.14075858891010284,-0.8920205235481262,-0.5167251825332642
1772697786890871000,7.61487109375,-0.18997353315353394,-0.6785873174667358,-0.5049441456794739
1772697786900920000,7.624920166015625,-0.17840984463691711,-0.4063414931297302,-0.473454087972641
1772697786910967800,7.6349677734375,-0.16227960586547852,-0.2217961698770523,-0.4848010241985321
1772697786921016600,7.6450166015625,-0.16242416203022003,-0.10608566552400589,-0.5097537636756897
1772697786931065900,7.65506591796875,-0.261667400598526,0.2108757644891739,-0.5257591009140015
1772697786941113600,7.665113525390625,-0.3356766402721405,0.335222989320755,-0.5087600946426392
1772697786951163000,7.675162841796875,-0.4032849669456482,0.4632382094860077,-0.41389238834381104
1772697786961210600,7.685210693359375,-0.3945590555667877,0.5042822957038879,-0.21143491566181183
1772697786971260000,7.695260009765625,-0.36920762062072754,0.5159181952476501,-0.08121832460165024
1772697786981308700,7.70530859375,-0.4007916748523712,0.37183985114097595,-0.06654839217662811
1772697786991357000,7.71535693359375,-0.40408414602279663,0.2831510007381439,-0.07540180534124374
1772697787001405700,7.72540576171875,-0.40004420280456543,0.281322181224823,-0.11444642394781113
1772697787011454000,7.735453857421875,-0.37462300062179565,0.2490965873003006,-0.21460898220539093
1772697787021502700,7.745502685546875,-0.347236692905426,0.42872384190559387,-0.18966905772686005
1772697787031550700,7.75555078125,-0.2956278324127197,0.5051954388618469,-0.12536223232746124
1772697787041599700,7.765599853515625,-0.25683361291885376,0.49548864364624023,-0.11443033814430237
1772697787051648800,7.775648681640625,-0.25017544627189636,0.568417489528656,-0.11153761297464371
1772697787061696800,7.78569677734375,-0.21568946540355682,0.5087684988975525,-0.15571005642414093
1772697787071745500,7.79574560546875,0.02112707495689392,0.28888508677482605,-0.057470835745334625
1772697787081793800,7.805793701171875,-0.31650084257125854,0.2812291979789734,0.027863938361406326
1772697787091842600,7.815842529296875,-0.3134208917617798,0.3242374062538147,0.1057605966925621
1772697787101891800,7.825891845703125,-0.24686406552791595,0.27547621726989746,0.18637153506278992
1772697787111939600,7.835939697265625,-0.17803174257278442,0.15531572699546814,0.2476109266281128
1772697787121988900,7.84598876953125,0.3329409658908844,-0.2589157223701477,0.4194844961166382
1772697787132036600,7.85603662109375,0.2322215437889099,-0.3254944980144501,0.42109808325767517
1772697787142086000,7.8660859375,-0.03495633602142334,-0.01522018201649189,0.25891005992889404
1772697787152134700,7.876134765625,-0.14708393812179565,0.23006734251976013,0.16677559912204742
1772697787162183000,7.886182861328125,-0.22334471344947815,0.2486862689256668,0.17950202524662018
1772697787172231700,7.896231689453125,-0.2912446856498718,0.11257345229387283,0.22373154759407043
1772697787182280000,7.906280029296875,-0.32454755902290344,0.0594579242169857,0.25313809514045715
1772697787192328700,7.91632861328125,-0.40279123187065125,0.09772887825965881,0.2868523597717285
1772697787202377700,7.926377685546875,-0.4762285053730011,0.09500326961278915,0.295406699180603
1772697787212425700,7.93642578125,-0.48031938076019287,0.05696427822113037,0.27565163373947144
1772697787222474800,7.946474853515625,-0.4444638788700104,0.005105245858430862,0.2675861418247223
1772697787232522800,7.956522705078125,-0.4385777413845062,-0.06441684067249298,0.2821024954319
1772697787242571800,7.96657177734375,-0.44100406765937805,-0.10355712473392487,0.38834381103515625
1772697787252619800,7.976619873046875,-0.37119704484939575,-0.051084328442811966,0.5730116367340088
1772697787262668800,7.986668701171875,-0.12435448169708252,-0.06507830321788788,0.9061314463615417
1772697787272717800,7.9967177734375,-0.295721173286438,-0.15604841709136963,0.8513978719711304
1772697787282765800,8.006765869140626,-0.31017595529556274,0.06545782089233398,0.6597034931182861
1772697787292814800,8.01681494140625,-0.349388062953949,0.4431228041648865,0.6476577520370483
1772697787302862600,8.026862548828126,-0.39283496141433716,0.6823545098304749,0.7971925735473633
1772697787312912000,8.036911865234375,-0.3427257239818573,0.7654477953910828,1.0041792392730713
1772697787322961000,8.0469609375,-0.2173747718334198,0.6852425336837769,1.1142079830169678
1772697787333008600,8.057008544921874,0.03795633837580681,0.4501815736293793,1.2133876085281372
1772697787343057700,8.0670576171875,0.0749506950378418,0.3699578046798706,1.2901164293289185
1772697787353105700,8.077105712890624,-0.010939182713627815,0.5071324110031128,1.3885023593902588
1772697787363154700,8.08715478515625,-0.14942920207977295,0.5551804304122925,1.378398060798645
1772697787373203700,8.09720361328125,-0.22876237332820892,0.8539074659347534,1.466871738433838
1772697787383251700,8.107251708984375,-0.31528863310813904,1.2751928567886353,1.5868480205535889
1772697787393300700,8.11730078125,-0.45998963713645935,1.2910387516021729,1.5167946815490723
1772697787403348700,8.1273486328125,-0.5727162957191467,1.0663011074066162,1.278862476348877
1772697787413397800,8.137397705078126,-0.6879430413246155,0.9505724906921387,0.8964429497718811
1772697787423445800,8.14744580078125,-0.6262372732162476,0.9115357995033264,0.6263875961303711
1772697787433494800,8.157494873046875,-0.6208332180976868,0.9649234414100647,0.5141885876655579
1772697787443543600,8.16754345703125,-0.6662470102310181,0.8863644599914551,0.47017642855644226
1772697787453591800,8.177591796875,-0.7171549201011658,0.7688833475112915,0.4478926956653595
1772697787463640600,8.187640625,-0.7724523544311523,0.7753593921661377,0.471866637468338
1772697787473688800,8.197688720703125,-0.8497934937477112,0.7673206329345703,0.47917383909225464
1772697787483737600,8.207737548828124,-0.9310876727104187,0.7434827089309692,0.48581990599632263
1772697787493787000,8.217786865234375,-1.001450538635254,0.6898253560066223,0.5173064470291138
1772697787503834600,8.227834716796876,-1.0952423810958862,0.5759828686714172,0.5868957042694092
1772697787513884000,8.2378837890625,-1.172758936882019,0.5041475892066956,0.6131848692893982
1772697787523931600,8.247931640625,-1.2249401807785034,0.44764429330825806,0.5751318335533142
1772697787533981000,8.25798095703125,-1.2696503400802612,0.40016892552375793,0.5176845192909241
1772697787544029700,8.26802978515625,-1.3392858505249023,0.38506320118904114,0.47220972180366516
1772697787554078000,8.278077880859374,-1.4221477508544922,0.41222482919692993,0.42577335238456726
1772697787564126700,8.288126708984375,-1.4915298223495483,0.4580535590648651,0.37812161445617676
1772697787574174700,8.2981748046875,-1.5202038288116455,0.5029184818267822,0.35137227177619934
1772697787584223700,8.3082236328125,-1.4768853187561035,0.4726351797580719,0.3694932162761688
1772697787594271700,8.318271728515626,-1.444817066192627,0.4054819643497467,0.391707181930542
1772697787604320800,8.32832080078125,-1.4170118570327759,0.36574578285217285,0.41992074251174927
1772697787614369800,8.338369873046876,-1.3447896242141724,0.3707357347011566,0.4334980845451355
1772697787624417800,8.348417724609375,-1.2462854385375977,0.3062477707862854,0.480398029088974
1772697787634466600,8.358466552734376,-1.1570801734924316,0.12673845887184143,0.5841169357299805
1772697787644514800,8.368514892578125,-1.1691192388534546,-0.06182541698217392,0.6618087887763977
1772697787654563600,8.3785634765625,-1.0951688289642334,-0.3375243842601776,0.7322880625724792
1772697787664612900,8.38861279296875,-0.9942560791969299,-0.3926141858100891,0.6819335222244263
1772697787674660600,8.39866064453125,-0.9384940266609192,-0.4762992262840271,0.5969957113265991
1772697787684710000,8.4087099609375,-0.90544593334198,-0.543192982673645,0.5308032631874084
1772697787694757600,8.418757568359375,-0.8297895193099976,-0.5495970845222473,0.4209135174751282
1772697787704807000,8.428806884765624,-0.7982195615768433,-0.5167622566223145,0.327799916267395
1772697787714855700,8.438855712890625,-0.8002766370773315,-0.49980059266090393,0.2780552804470062
1772697787724904000,8.448904052734376,-0.8626893758773804,-0.5990540385246277,0.2565092146396637
1772697787734952700,8.45895263671875,-1.020331621170044,-0.6623957753181458,0.23170268535614014
1772697787745001000,8.4690009765625,-1.1772916316986084,-0.7422466278076172,0.23206432163715363
1772697787755049700,8.4790498046875,-1.3129301071166992,-0.691451370716095,0.25398799777030945
1772697787765098000,8.489097900390625,-1.3764857053756714,-0.4628709852695465,0.28309547901153564
1772697787775146800,8.499146728515624,-1.4020977020263672,-0.29234400391578674,0.3144744336605072
1772697787785195800,8.50919580078125,-1.4244481325149536,-0.23122923076152802,0.2584761679172516
1772697787795243800,8.519243896484374,-1.4404114484786987,-0.2544320225715637,0.14059481024742126
1772697787805292800,8.529292724609375,-1.4443079233169556,-0.26490435004234314,0.014525167644023895
1772697787815340800,8.5393408203125,-1.4905682802200317,-0.3080507516860962,-0.167875275015831
1772697787825389800,8.549389892578125,-1.649817943572998,-0.23365086317062378,-0.31658247113227844
1772697787835438800,8.55943896484375,-1.8966822624206543,-0.1522822380065918,-0.4537986218929291
1772697787845486600,8.569486572265625,-2.2894699573516846,-0.23631960153579712,-0.7033557295799255
1772697787855535900,8.579535888671876,-2.646150827407837,-0.3741898238658905,-1.0802521705627441
1772697787865583600,8.58958349609375,-2.8951430320739746,-0.8301451206207275,-1.682718276977539
1772697787875632600,8.599632568359375,-3.1276333332061768,-1.6845636367797852,-2.2582075595855713
1772697787885680600,8.6096806640625,-2.8927769660949707,-1.8218464851379395,-2.5212926864624023
1772697787895729700,8.619729736328125,-2.419712781906128,-1.4770517349243164,-2.5294671058654785
1772697787905779500,8.629779541015624,-2.1719934940338135,-1.3700752258300781,-2.553305149078369
1772697787915827200,8.6398271484375,-1.8732587099075317,-1.0248768329620361,-2.5660221576690674
1772697787925876200,8.649876220703124,-1.5910159349441528,-0.03893619403243065,-2.296954393386841
1772697787935924200,8.65992431640625,-1.5346179008483887,1.2001386880874634,-1.971036434173584
1772697787945973200,8.66997314453125,-1.7092734575271606,2.218524694442749,-1.6811184883117676
1772697787956022300,8.680022216796875,-1.9389234781265259,3.0066516399383545,-1.409885048866272
1772697787966070300,8.6900703125,-1.970977544784546,3.789508819580078,-1.1233958005905151
1772697787976119300,8.700119384765625,-1.9580308198928833,4.074174880981445,-0.7702435851097107
1772697787986167300,8.710167236328125,-1.815309762954712,3.787787675857544,-0.3926800489425659
1772697787996216300,8.72021630859375,-1.5695828199386597,3.3982648849487305,-0.07215661555528641
1772697788006265000,8.73026513671875,-1.3106383085250854,3.012822389602661,0.11671822518110275
1772697788016313300,8.740313232421874,-1.0493273735046387,2.600494146347046,0.17639274895191193
1772697788026362000,8.750362060546875,-0.8826637864112854,2.1722042560577393,0.18913081288337708
1772697788036410400,8.760410400390626,-0.6542985439300537,1.6502918004989624,0.27424943447113037
1772697788046459100,8.770459228515625,-0.6499786972999573,1.3798282146453857,0.37299221754074097
1772697788056507400,8.78050732421875,-0.6560512185096741,1.4953467845916748,0.3831652104854584
1772697788066556200,8.79055615234375,-0.6505733132362366,1.7163331508636475,0.32952988147735596
1772697788076605400,8.80060546875,-0.591208815574646,1.957608699798584,0.2254367619752884
1772697788086653200,8.810653076171874,-0.5099221467971802,2.129655599594116,0.1101575493812561
1772697788096702500,8.820702392578125,-0.3930833637714386,2.2996256351470947,0.058934833854436874
1772697788106750200,8.830750244140624,-0.254426509141922,2.596435546875,0.13403436541557312
1772697788116799200,8.84079931640625,-0.0045897746458649635,2.9252631664276123,0.19558881223201752
1772697788126848300,8.85084814453125,0.1982569843530655,3.059882164001465,0.19308355450630188
1772697788136896300,8.860896240234375,0.24971218407154083,3.199291467666626,0.15852291882038116
1772697788146945300,8.8709453125,0.1420675814151764,3.493694305419922,0.13281872868537903
1772697788156993000,8.880992919921875,-0.031268246471881866,3.9551608562469482,0.07997521758079529
1772697788167042300,8.891042236328126,-0.20592378079891205,4.4485087394714355,0.05177925154566765
1772697788177090000,8.901090087890625,-0.30890050530433655,4.819910526275635,0.056816622614860535
1772697788187139300,8.911139404296875,-0.30960357189178467,4.910820007324219,0.10782209783792496
1772697788197188000,8.92118798828125,-0.10536683350801468,4.849160194396973,0.19317640364170074
1772697788207236400,8.931236328125,0.32249417901039124,4.722933292388916,0.2836773991584778
1772697788217285000,8.94128515625,0.8724598288536072,4.66272497177124,0.4519979655742645
1772697788227333400,8.95133349609375,1.3799623250961304,4.6775641441345215,0.7308276295661926
1772697788237382100,8.961382080078126,1.782045841217041,4.825794696807861,1.0472362041473389
1772697788247431200,8.97143115234375,2.118034839630127,5.142739772796631,1.2850018739700317
1772697788257479200,8.981479248046876,2.365631580352783,5.35174036026001,1.481640338897705
1772697788267528200,8.991528076171875,2.5406274795532227,5.388487815856934,1.6862986087799072
1772697788277576200,9.001576171875,2.703876256942749,5.239518165588379,1.8036872148513794
1772697788287625200,9.011625244140625,2.8291730880737305,5.034762382507324,1.867342233657837
1772697788297674200,9.02167431640625,2.9274327754974365,4.755265235900879,1.9518805742263794
1772697788307722200,9.03172216796875,2.975491523742676,4.499328136444092,2.1056580543518066
1772697788317771300,9.041771240234375,2.9498696327209473,4.371521472930908,2.346285104751587
1772697788327819300,9.0518193359375,2.8231892585754395,4.136019706726074,2.5580575466156006
1772697788337868300,9.061868408203125,2.826483964920044,3.8302643299102783,2.731480121612549
1772697788347916300,9.071916259765626,2.9003190994262695,3.268427848815918,2.8440098762512207
1772697788357965300,9.08196533203125,2.9017460346221924,2.7936651706695557,2.9086692333221436
1772697788368014300,9.092014404296876,2.797379493713379,2.4973607063293457,2.9813625812530518
1772697788378062300,9.102062255859375,2.5953209400177,2.2845497131347656,3.1373450756073
1772697788388111400,9.112111328125,2.3593385219573975,2.0971338748931885,3.368257761001587
1772697788398159400,9.122159423828125,2.130716562271118,1.8407062292099,3.637986421585083
1772697788408208100,9.1322080078125,2.0057921409606934,1.4998224973678589,3.900322914123535
1772697788418257200,9.142257080078124,2.018557071685791,1.1336040496826172,4.091484069824219
1772697788428305200,9.15230517578125,2.1421449184417725,0.7727280855178833,4.158045291900635
1772697788438354200,9.162354248046874,2.258439302444458,0.295962929725647,4.159417629241943
1772697788448402200,9.172402099609375,2.3543810844421387,-0.20812369883060455,4.057352542877197
1772697788458451200,9.182451171875,2.41337513923645,-0.6680864691734314,3.8688979148864746
1772697788468499200,9.192499267578125,2.3098814487457275,-1.0777184963226318,3.6774489879608154
1772697788478548200,9.20254833984375,2.1148290634155273,-1.3175305128097534,3.564908742904663
1772697788488597200,9.21259716796875,1.8450597524642944,-1.455444097518921,3.551218032836914
1772697788498645200,9.222645263671875,1.5288751125335693,-1.5900295972824097,3.65944504737854
1772697788508694300,9.2326943359375,1.2234257459640503,-1.7382687330245972,3.795332908630371
1772697788518742300,9.2427421875,1.0030832290649414,-1.8128045797348022,3.875872850418091
1772697788528791300,9.252791259765624,1.0637208223342896,-1.46931791305542,3.7468254566192627
1772697788538840300,9.26284033203125,1.2118929624557495,-1.1929670572280884,3.6439731121063232
1772697788548888300,9.272888427734374,1.3552021980285645,-1.216085433959961,3.6405375003814697
1772697788558937300,9.282937255859375,1.516636848449707,-1.4002954959869385,3.6643946170806885
1772697788568985300,9.2929853515625,1.6185415983200073,-1.8149504661560059,3.711225748062134
1772697788579034400,9.303034423828125,1.5537165403366089,-2.3724091053009033,3.7657573223114014
1772697788589083100,9.313083251953126,1.19852614402771,-2.8140950202941895,3.854353427886963
1772697788599131400,9.32313134765625,0.6540447473526001,-2.856727123260498,3.850857973098755
1772697788609180200,9.33318017578125,0.4917328655719757,-2.005681037902832,3.4578776359558105
1772697788619228400,9.343228515625,0.5183977484703064,-1.1726384162902832,3.10092830657959
1772697788629277200,9.353277099609375,0.5102030038833618,-1.068515658378601,2.917412757873535
1772697788639325200,9.3633251953125,0.658356249332428,-1.1951968669891357,2.758455753326416
1772697788649374200,9.373374267578125,1.0131710767745972,-1.8235167264938354,2.6769845485687256
1772697788659423200,9.38342333984375,1.427491307258606,-2.942523717880249,2.604248046875
1772697788669471200,9.39347119140625,1.6662431955337524,-4.232487201690674,2.4865524768829346
1772697788679520300,9.403520263671876,1.8013503551483154,-4.685624122619629,2.1437370777130127
1772697788689568300,9.413568359375,1.711548924446106,-4.316337585449219,1.8451517820358276
1772697788699617000,9.423616943359375,1.3302960395812988,-3.759653091430664,1.7152577638626099
1772697788709665300,9.433665283203124,0.8424487709999084,-3.209833860397339,1.7076783180236816
1772697788719714000,9.443714111328125,0.48923349380493164,-2.9874935150146484,1.6605286598205566
1772697788729763300,9.453763427734375,0.3551854193210602,-3.413994550704956,1.5192084312438965
1772697788739811000,9.46381103515625,0.37397801876068115,-4.355670928955078,1.2629338502883911
1772697788749860400,9.4738603515625,0.2334367036819458,-6.008526802062988,1.3876978158950806
1772697788759908000,9.483908203125,-0.08859752863645554,-6.718043327331543,1.951049566268921
1772697788769957400,9.493957275390626,-0.42475906014442444,-6.491281509399414,2.1109957695007324
1772697788780006100,9.504006103515625,-0.6865518093109131,-7.018277645111084,2.504099130630493
1772697788790054400,9.514054443359376,-0.6759452223777771,-6.293627738952637,2.7578938007354736
1772697788800103200,9.524103271484375,-0.9942449331283569,-4.659317970275879,3.7370331287384033
1772697788810151400,9.5341513671875,-1.580997347831726,-5.2197089195251465,4.3786749839782715
1772697788820200200,9.5442001953125,-1.6363348960876465,-5.477210998535156,4.217686653137207
1772697788830249200,9.554249267578125,-1.549387812614441,-5.3227057456970215,3.711390256881714
1772697788840297200,9.564297119140624,-1.499854326248169,-5.065189838409424,3.1143698692321777
1772697788850346200,9.57434619140625,-1.5173014402389526,-4.639768123626709,2.675602912902832
1772697788860394200,9.584394287109374,-1.6987239122390747,-4.011114597320557,2.2228519916534424
1772697788870443300,9.594443359375,-2.113373279571533,-3.745654344558716,1.8708527088165283
1772697788880491300,9.6044912109375,-2.693833827972412,-3.9064857959747314,1.8647364377975464
1772697788890540300,9.614540283203125,-3.291778326034546,-4.771539211273193,1.9545594453811646
1772697788900589300,9.62458935546875,-3.6526269912719727,-5.766188621520996,2.1152615547180176
1772697788910637300,9.63463720703125,-3.65834641456604,-6.816433906555176,2.319180965423584
1772697788920686600,9.6446865234375,-3.4835219383239746,-7.560812950134277,2.520256996154785
1772697788930734300,9.654734375,-2.8602187633514404,-7.027220249176025,2.253716230392456
1772697788940783400,9.664783447265625,-1.8799902200698853,-5.5769243240356445,1.2427289485931396
1772697788950831400,9.674831298828124,-1.1230380535125732,-4.751015663146973,0.27998456358909607
1772697788960880400,9.68488037109375,-0.7327965497970581,-4.3554768562316895,-0.37659355998039246
1772697788970929400,9.694929443359374,-0.5692797303199768,-3.6636383533477783,-0.9280853867530823
1772697788980977400,9.704977294921875,-0.38358011841773987,-3.0010318756103516,-1.3583106994628906
1772697788991026400,9.7150263671875,-0.240801140666008,-2.5210134983062744,-1.6572757959365845
1772697789001074400,9.725074462890625,-0.25641152262687683,-2.2707161903381348,-1.8454231023788452
1772697789011123500,9.73512353515625,-0.41719427704811096,-2.0451676845550537,-2.0237960815429688
1772697789021172200,9.745172119140625,-0.7339034676551819,-1.7676007747650146,-2.189518690109253
1772697789031220500,9.755220458984375,-1.143902063369751,-1.3354181051254272,-2.218377113342285
1772697789041269200,9.765269287109374,-1.3957353830337524,-0.922318160533905,-2.0661494731903076
1772697789051317500,9.7753173828125,-1.3804283142089844,-0.6539512872695923,-1.7576510906219482
1772697789061366300,9.7853662109375,-1.2489409446716309,-0.48711198568344116,-1.3211547136306763
1772697789071414500,9.79541455078125,-1.1684297323226929,-0.44027820229530334,-0.8092353343963623
1772697789081463300,9.80546337890625,-1.1857740879058838,-0.5135441422462463,-0.3205215334892273
1772697789091512300,9.81551220703125,-1.260459542274475,-0.6375767588615417,0.10426581650972366
1772697789101560300,9.825560302734376,-1.32585608959198,-0.6818307638168335,0.4251210689544678
1772697789111609300,9.835609375,-1.417441964149475,-0.5849423408508301,0.5107649564743042
1772697789121657300,9.8456572265625,-1.54872727394104,-0.41256389021873474,0.5082030296325684
1772697789131706400,9.855706298828125,-1.6671147346496582,-0.23342294991016388,0.4388520121574402
1772697789141755400,9.86575537109375,-1.674695372581482,-0.09101946651935577,0.33486491441726685
1772697789151803400,9.875803466796874,-1.567478060722351,-0.016042649745941162,0.22261415421962738
1772697789161852400,9.885852294921875,-1.430071234703064,0.006331098265945911,0.08857645839452744
1772697789171900200,9.895900146484376,-1.2851823568344116,0.010166618973016739,-0.007748712785542011
1772697789181949400,9.905949462890625,-1.176813006401062,0.0983249694108963,-0.0034967095125466585
1772697789191998500,9.91599853515625,-1.1295937299728394,0.16004157066345215,0.08313922584056854
1772697789202046500,9.92604638671875,-1.120593786239624,0.19037951529026031,0.22009281814098358
1772697789212095200,9.93609521484375,-1.1322473287582397,0.2557314336299896,0.34496787190437317
1772697789222143500,9.9461435546875,-1.132898211479187,0.2963973581790924,0.43064308166503906
1772697789232192300,9.956192138671875,-1.1195889711380005,0.2694798707962036,0.47052088379859924
1772697789242240500,9.966240478515624,-1.0875670909881592,0.049383744597435,0.4913742244243622
1772697789252289300,9.976289306640625,-0.9992558360099792,-0.21739442646503448,0.48397889733314514
1772697789262338300,9.98633837890625,-0.8205957412719727,-0.43271419405937195,0.4637641906738281
1772697789272386300,9.99638623046875,-0.5861825346946716,-0.49260732531547546,0.4131034314632416
1772697789282435300,10.006435302734374,-0.37216293811798096,-0.447776734828949,0.2994343936443329
1772697789292483300,10.0164833984375,-0.22712048888206482,-0.3431653678417206,0.12149622291326523
1772697789302532400,10.026532470703126,-0.1591387689113617,-0.25864461064338684,-0.10693322122097015
1772697789312580400,10.036580322265625,-0.12903237342834473,-0.19022774696350098,-0.350532591342926
1772697789322629400,10.04662939453125,-0.08910199254751205,-0.12666796147823334,-0.5627828240394592
1772697789332678400,10.056678466796875,-0.035422444343566895,-0.08112238347530365,-0.6947516798973083
1772697789342726400,10.066726318359375,0.009672861546278,-0.07523280382156372,-0.7493102550506592
1772697789352775400,10.076775390625,-0.026025058701634407,-0.037458088248968124,-0.7352373003959656
1772697789362823400,10.086823486328125,-0.09058807045221329,-0.06569638848304749,-0.6198009848594666
1772697789372872400,10.09687255859375,-0.15513309836387634,-0.07913641631603241,-0.44247332215309143
1772697789382921500,10.10692138671875,-0.1959870606660843,-0.13248273730278015,-0.27700579166412354
1772697789392969500,10.116969482421876,-0.19810639321804047,-0.25513380765914917,-0.15187130868434906
1772697789403018500,10.1270185546875,-0.17312541604042053,-0.4478822350502014,-0.058093953877687454
1772697789413066500,10.13706640625,-0.11776880919933319,-0.6227016448974609,-0.01856326125562191
1772697789423115500,10.147115478515625,-0.008060155436396599,-0.7888386845588684,0.0005955199594609439
1772697789433163500,10.15716357421875,0.08923139423131943,-0.833225429058075,-0.04110049456357956
1772697789443212300,10.16721240234375,0.13317754864692688,-0.8207961916923523,-0.09775711596012115
1772697789453261300,10.17726123046875,0.11723306775093079,-0.7026875615119934,-0.15822678804397583
1772697789463309300,10.187309326171874,0.0485440194606781,-0.5859844088554382,-0.22054928541183472
1772697789473358300,10.1973583984375,-0.013944710604846478,-0.5031888484954834,-0.24056442081928253
1772697789483406300,10.20740625,0.016816396266222,-0.4948366582393646,-0.19362035393714905
1772697789493455400,10.217455322265625,0.11811061948537827,-0.5165830850601196,-0.15974050760269165
1772697789503504400,10.22750439453125,0.20677310228347778,-0.5649218559265137,-0.12504644691944122
1772697789513552400,10.237552490234375,0.23519305884838104,-0.5401727557182312,-0.06374868750572205
1772697789523601400,10.247601318359376,0.23276080191135406,-0.5313089489936829,-0.003946342505514622
1772697789533649400,10.2576494140625,0.22832846641540527,-0.4881017804145813,0.05987851694226265
1772697789543698400,10.267698486328126,0.20894518494606018,-0.42166924476623535,0.10189521312713623
1772697789553746400,10.277746337890624,0.18900395929813385,-0.3465219736099243,0.08917106688022614
1772697789563795500,10.28779541015625,0.16850720345973969,-0.26860347390174866,0.02476304955780506
1772697789573844500,10.297844482421874,0.14226815104484558,-0.20053093135356903,-0.057470571249723434
1772697789583892200,10.307892333984375,0.1144101545214653,-0.15556852519512177,-0.14028076827526093
1772697789593941500,10.31794140625,0.05783644691109657,-0.07666344195604324,-0.18013641238212585
1772697789603989200,10.3279892578125,-0.12746550142765045,0.15348853170871735,0.3375978171825409
1772697789614038500,10.33803857421875,-0.17167499661445618,0.04791288822889328,0.5015015602111816
1772697789624087300,10.34808740234375,-0.2620062232017517,0.026753539219498634,0.4975734055042267
1772697789634135600,10.358135498046876,-0.2862192988395691,-0.07938437163829803,0.34502550959587097
1772697789644184300,10.368184326171875,-0.267807275056839,-0.11947054415941238,0.20764769613742828
1772697789654232300,10.378232421875,-0.21191862225532532,-0.1520971804857254,0.01671823486685753
1772697789664281300,10.38828125,-0.15659330785274506,-0.19916082918643951,-0.18849162757396698
1772697789674329300,10.398329345703125,-0.21016785502433777,-0.22634755074977875,-0.36563220620155334
1772697789684378400,10.40837841796875,-0.3121165931224823,-0.13214674592018127,-0.4538494050502777
1772697789694427400,10.418427490234375,-0.4205288290977478,-0.023920077830553055,-0.4093404710292816
1772697789704475400,10.428475341796876,-0.5101870894432068,0.05661524087190628,-0.28533995151519775
