time,seconds_elapsed,z,y,x
1772702180318381600,0.062381591796875,0.000007014262676239014,-0.00255797738712281,0.003548365247517358
1772702180328430300,0.072430419921875,-0.001786298894882202,-0.006090023970790207,0.004936310191289522
1772702180338480400,0.08248046875,0.015870938348770142,-0.0026285401389934122,0.008858066195307764
1772702180348529400,0.092529296875,0.008688917890191078,0.009342596025951206,0.004204123459220863
1772702180358579500,0.102579345703125,-0.009116203391551971,0.0005790602632798254,0.0003644425483536906
1772702180368628500,0.11262841796875,0.018566753304004667,-0.010775606237445026,-0.0031085239419713613
1772702180378678500,0.122678466796875,-0.003131283763051033,-0.013000223484355956,0.005565851682925131
1772702180388727600,0.1327275390625,-0.0031318682849407193,-0.014173998237773775,0.00939244478335604
1772702180398777600,0.142777587890625,0.0009095160603523254,-0.017940931289549916,-0.011780273784941528
1772702180408826400,0.152826416015625,0.00973579659461975,-0.01870725775323808,0.016690928945166522
1772702180418876400,0.16287646484375,0.014227262794971465,0.00359910220419988,-0.008445791033410933
1772702180428925400,0.172925537109375,0.007944821524620055,-0.0035283567892387506,-0.01504471209112089
1772702180438975500,0.1829755859375,0.005550619864463806,-0.005777779683843255,-0.009316902178979944
1772702180449024500,0.1930244140625,0.0022568390160799027,-0.012449731728434561,0.004184859353036154
1772702180459074600,0.203074462890625,0.011833645656704903,-0.007671502742264419,0.011999060784908942
1772702180469123300,0.213123291015625,0.0015092355191707611,-0.005900127421878278,0.007159052858233917
1772702180479173400,0.22317333984375,0.007794014877080917,0.004115417695883661,0.01622876620995812
1772702180489222400,0.233222412109375,0.001505143865942955,0.01232968554534018,-0.003103653687320184
1772702180499272400,0.2432724609375,-0.008070493730902671,0.008108871246222405,0.009628851921693422
1772702180509321500,0.253321533203125,-0.002533317869901657,-0.010351152013987302,-0.0011014652857440524
1772702180519371500,0.26337158203125,0.004200374299287796,0.005520553519763052,-0.003889440620015375
1772702180529420300,0.273420166015625,0.013481412863731383,-0.0037544754290021955,-0.006836072548141237
1772702180539469600,0.283469482421875,0.0025590368330478666,-0.005012530932389199,0.0246511626680498
1772702180549519600,0.29351953125,0.0027080899149179456,-0.0023113822149112818,0.01728993145135464
1772702180559568400,0.303568359375,0.008245850297808647,-0.0153906805511564,0.011103733080113306
1772702180569618400,0.313618408203125,0.0025578677892684936,-0.013956738757900893,0.019445381035748867
1772702180579667500,0.32366748046875,0.011090133813023567,-0.0036128202022984624,-0.005276399183098692
1772702180589717200,0.33371728515625,0.003011456775665283,-0.002182422072999179,-0.006860846229793969
1772702180599766300,0.343766357421875,-0.0025251345634460447,-0.01566001727813855,-0.005837024173967074
1772702180609816300,0.35381640625,-0.006265490135550498,-0.004746628271508961,-0.006692257330392021
1772702180619865000,0.363864990234375,0.0045043256819248196,-0.009065934509038925,-0.0009442243308410979
1772702180629915100,0.3739150390625,-0.0047726212292909615,-0.006382467578724026,0.00581929215445416
1772702180639964200,0.383964111328125,-0.012253916895389556,-0.016884627169650047,0.004931935410271399
1772702180650014200,0.39401416015625,0.0013666121780872343,0.0003390774949453771,-0.007100984261755365
1772702180660063200,0.404063232421875,-0.00042670097947120663,-0.019392920196149497,0.012360685755091253
1772702180670113000,0.414113037109375,-0.005512625941634178,-0.012266557181254028,0.0024959404350025577
1772702180680162300,0.424162353515625,0.011093640944361686,0.0003001337240450084,0.012433661943045444
1772702180690212400,0.43421240234375,0.008699439284205437,-0.0073259407076053315,-0.010404316106485203
1772702180700261000,0.44426123046875,0.006904372560977936,-0.019910422997921704,-0.0030032848856528286
1772702180710311200,0.454311279296875,0.004057750958204269,-0.012274977949727326,0.001070165965182241
1772702180720360200,0.464360107421875,0.010338438662886619,-0.009539123245049267,0.007936453271785285
1772702180730410000,0.474409912109375,0.011540215668082237,-0.012451978484448045,-0.006129739493248052
1772702180740459300,0.484459228515625,0.008548048114776611,-0.006163381467945874,0.008146324029646348
1772702180750508300,0.49450830078125,0.002412321838736534,-0.007044018493685871,0.01653410811537178
1772702180760558000,0.50455810546875,0.0036123452782630917,-0.004894311380200088,-0.005162036105408333
1772702180770607400,0.514607421875,-0.005064297652244568,-0.005587134216260165,-0.0016746506473748013
1772702180780657400,0.524657470703125,0.006610358050465583,-0.006920793972816318,-0.0018282337738899513
1772702180790706200,0.5347060546875,0.003466799327731132,0.004970554954186082,0.001996640010201372
1772702180800756200,0.544756103515625,0.01469371126294136,-0.013787026480492204,0.01880856726982165
1772702180810805200,0.55480517578125,0.00047813890576362607,-0.01063986929487437,0.008436692128214053
1772702180820855000,0.56485498046875,0.010201660540699958,-0.0014097572000697255,0.012991830115346237
1772702180830904300,0.574904296875,-0.0025169512569904328,-0.009491265515331178,0.010051068522292188
1772702180840954400,0.584954345703125,-0.002218260571360588,-0.008424092941544949,0.00206121597927995
1772702180851003100,0.595003173828125,0.010199322453141212,0.0012643573800101876,0.013514102707069832
1772702180861053200,0.60505322265625,0.00031856442987918853,-0.004651004143618047,-0.00294004464042373
1772702180871102200,0.615102294921875,0.012138766083121299,-0.012818236247263848,-0.0015564904606901108
1772702180881152300,0.62515234375,0.007796352964639664,-0.007141030861064791,0.003464705552055966
1772702180891201300,0.635201171875,0.012287819164991378,-0.01470012273741886,-0.0074047826640540725
1772702180901251300,0.645251220703125,-0.004921089789271354,-0.017385050972457974,-0.0017866436714655718
1772702180911300000,0.655300048828125,0.008396656945347785,-0.011535411628801374,0.00976109771594638
1772702180921350100,0.66535009765625,0.010493921485543251,-0.008945102874655275,0.018630989063077138
1772702180931399200,0.675399169921875,0.008550970724225044,-0.0008375285363756119,0.004505581490672193
1772702180941449200,0.68544921875,-0.0031201778471469876,-0.005910557484347373,-0.0010395173818804322
1772702180951498200,0.695498291015625,0.0025648820519447325,-0.01977713374076411,0.007282286512257996
1772702180961548000,0.705548095703125,0.013784195202589035,-0.009735212072730063,0.007390388812520541
1772702180971597300,0.715597412109375,0.012588263416290282,-0.011991192572284488,0.01661943004495697
1772702180981647400,0.7256474609375,-0.0010316811352968215,-0.0001930200877599418,0.02027856904043583
1772702180991696100,0.735696044921875,-0.003281505888700485,-0.007312040046416223,0.009738963515951764
1772702181001745200,0.7457451171875,0.004346504771709442,-0.014089754020422696,0.008891180730331688
1772702181011795200,0.755795166015625,-0.007324059277772903,-0.004283394673932343,0.01624334272458218
1772702181021844200,0.76584423828125,0.013027823877334595,-0.014203169533330947,0.015818326812121086
1772702181031894300,0.775894287109375,0.012727379626035689,-0.02567099581863731,0.023746754324366338
1772702181041943300,0.785943359375,0.010481062003970145,-0.00884818183882162,0.0038185582077363504
1772702181051993000,0.7959931640625,0.021550153028964996,-0.003276793180964887,-0.016911798304365948
1772702181062042000,0.8060419921875,0.007184943068027496,0.0005971804418601095,0.00405660246402258
1772702181072092400,0.816092529296875,0.004494973331689835,-0.004345153064839542,0.005645234778779559
1772702181082141200,0.82614111328125,-0.0002963525980710983,-0.018581402883864936,0.015556890263804234
1772702181092191200,0.836191162109375,0.002995674684643745,-0.012429182130750269,0.007265734952967614
1772702181102240300,0.846240234375,-0.00044423663616180415,-0.006965418565832078,-0.0004883817385649309
1772702181112290000,0.8562900390625,0.013321838387846946,-0.004838416474498808,0.001492451064439956
1772702181122339300,0.86633935546875,0.00703705902993679,-0.0045490233401767905,0.012229186596220824
1772702181132389400,0.876389404296875,0.006739537388086319,-0.010323807349335402,0.023227746835385914
1772702181142438100,0.886438232421875,0.0026958149552345273,-0.008816033134888858,0.012375757743348367
1772702181152488200,0.89648828125,0.0002986906856298446,-0.015693207161687314,0.014875607168488203
1772702181162537200,0.906537109375,0.008228899163007735,-0.007311364192981272,0.008530503324931486
1772702181172587300,0.916587158203125,-0.001645429119467735,0.0035291787731461226,0.005007818224653601
1772702181182636300,0.92663623046875,0.0017997428983449935,0.011015059282816946,-0.010132764589530415
1772702181192686300,0.936686279296875,-0.0034364041894674297,0.004675060872640461,0.0005245124978711828
1772702181202735000,0.946735107421875,0.008983516922593117,-0.012808098445739597,-0.007612055039452389
1772702181212785200,0.95678515625,-0.0002922609448432922,0.00015164689775556324,-0.02235148230737541
1772702181222834200,0.966834228515625,0.010328501790761948,-0.015112320267502217,0.00456101288878126
1772702181232883200,0.97688330078125,0.008231821772456169,-0.011925671321712433,-0.008239333792054094
1772702181242933200,0.986933349609375,-0.00044072950482368465,-0.0003533982812426984,-0.0012690860707662067
1772702181252982000,0.99698193359375,-0.0019353519767522811,0.0016824183952994644,0.012742823790339752
1772702181263032300,1.0070322265625,0.009735212072730063,0.006944942033383995,0.005518101267772727
1772702181273081300,1.017081298828125,-0.0004418985486030578,-0.006889942176826298,0.013934873985964803
1772702181283131100,1.027131103515625,-0.004785480710864067,-0.014487649030517786,0.00910692867313046
1772702181293180200,1.03718017578125,0.0008989946663379669,-0.022634057541843503,-0.014280938344122841
1772702181303230200,1.047230224609375,0.003142389678955078,-0.008051186242233962,-0.0035287449483061206
1772702181313279200,1.057279296875,0.0013444003462791442,0.010184636340662837,0.009309844533819705
1772702181323329300,1.067329345703125,0.002091419321298599,0.006657960051856935,0.017936280230607372
1772702181333378300,1.07737841796875,0.0032861820638179777,-0.000905260010343045,0.0051511471019242885
1772702181343428000,1.087427978515625,-0.006140986973047256,-0.017519618871249257,-0.006815093692194204
1772702181353477000,1.09747705078125,0.0007417582780122757,-0.0017639226662926374,-0.00956654325822601
1772702181363527400,1.10752734375,0.01121288340985775,0.004985423729754984,0.00006374941859394312
1772702181373576200,1.117576171875,0.0032826749324798583,-0.019139749152678995,0.0016068187087075784
1772702181383626200,1.127626220703125,-0.005991933891177177,-0.0060820598600432275,0.004661911413411144
1772702181393675000,1.137675048828125,0.01256663610637188,-0.005351133503299206,-0.014454356398980598
1772702181403725000,1.14772509765625,0.013913959062099456,-0.011063209273479879,0.00488610524085816
1772702181413774300,1.1577744140625,0.009576222118735312,-0.017396777942869812,0.010352037929976358
1772702181423824400,1.167824462890625,0.005987257716059685,-0.0068626523111015554,0.008407749161520041
1772702181433873200,1.177873046875,0.005241992306709289,0.0015540975742042065,0.012135226985742337
1772702181443922200,1.187922119140625,0.000005845218896865844,0.0007613945602439343,-0.0038191084802965632
1772702181453972200,1.19797216796875,-0.004184007686376571,-0.00810267896745354,0.008021341376530471
1772702181464021200,1.208021240234375,0.0034457565397024155,-0.012369944490492344,0.0073914596748887555
1772702181474071300,1.2180712890625,0.0016524433821439742,-0.0018520576074719428,0.012139346038433722
1772702181484120000,1.2281201171875,0.015866846695542336,-0.008231986169237643,0.013401424696389585
1772702181494170000,1.238170166015625,0.016765256839990614,-0.015723474435787647,0.0055179802534752525
1772702181504219400,1.248219482421875,0.016163199293613432,-0.006122757196612655,0.01157238263832405
1772702181514269200,1.258269287109375,0.00613689531981945,-0.005216346408799291,0.008235812960984185
1772702181524318200,1.268318115234375,0.008383212941884995,-0.0039610125854611395,0.00557019221461378
1772702181534368300,1.2783681640625,-0.005085924962162971,-0.0013540084248408674,0.008389140359172598
1772702181544417000,1.2884169921875,-0.006582300999760628,-0.005113781083468347,0.020738142526336014
1772702181554467300,1.29846728515625,-0.001645429119467735,-0.008060100201051681,0.006227827289572451
1772702181564516400,1.308516357421875,0.00135024556517601,-0.0056379693543538445,-0.004168737052008509
1772702181574566100,1.318566162109375,-0.00911971052289009,0.002832191218622029,-0.007804280542768538
1772702181584615700,1.32861572265625,0.0009071779727935791,-0.0009881525208242238,0.006275290010357275
1772702181594665500,1.33866552734375,-0.0041799160331487655,-0.005778492069896311,0.0035120769412955266
1772702181604714800,1.34871484375,-0.00402852486371994,-0.006008026509452611,0.008000394486624282
1772702181614764800,1.358764892578125,0.012582418197393417,0.0159243307701312,0.015080648770893457
1772702181624813600,1.3688134765625,0.013330021694302557,0.006066917089838534,-0.006252215095446444
1772702181634863600,1.378863525390625,0.0037543840974569318,-0.0074538596699014305,0.01578054980171146
1772702181644912600,1.38891259765625,0.007197218027710914,-0.005706869872100651,0.009069804683269466
1772702181654961700,1.398961669921875,0.010638882914185523,-0.004646053973864764,0.0025591327311703933
1772702181665011700,1.40901171875,0.006295885273814201,-0.0016702712997794151,0.007124748729832936
1772702181675060500,1.419060546875,-0.006268997266888618,0.0011411328591406345,-0.005570452509517781
1772702181685110500,1.429110595703125,0.005250760135054588,-0.005662062615994364,0.0008187690369784831
1772702181695159600,1.43915966796875,0.006298807883262634,-0.010771350187435745,-0.008763412465085276
1772702181705209900,1.4492099609375,0.003455108889937401,-0.01149297899287194,0.005306661890621763
1772702181715258600,1.459258544921875,0.0030067806005477904,-0.0011876206156797707,0.010711806586501189
1772702181725308700,1.46930859375,-0.0010357727885246277,-0.011089366628043353,0.021231314604450015
1772702181735357400,1.479357421875,0.003006196078658104,-0.004709693794604391,0.0032007482530898414
1772702181745407500,1.489407470703125,0.0015086509972810744,-0.007206077187601477,0.020795681399852037
1772702181755456800,1.499456787109375,0.0030050270348787305,-0.009301533363200724,0.008557704142399597
1772702181765506600,1.509506591796875,0.008994622838497161,-0.009457235381565987,0.0004521756307338364
1772702181775555600,1.5195556640625,0.000315057298541069,-0.0009200191880576312,0.00897862155176699
1772702181785605600,1.529605712890625,0.0018108488142490385,-0.004208886399306356,0.008689417930401396
1772702181795654700,1.539654541015625,0.0021066168904304503,-0.01885475819883868,0.019008679252071305
1772702181805704700,1.54970458984375,0.01273088675737381,-0.027125304546486585,0.018813407841720618
1772702181815753700,1.559753662109375,-0.006271919876337051,-0.022543602779414505,0.008735958202579058
1772702181825803500,1.569803466796875,0.006294716230034828,-0.02046524386908859,0.006919654611789156
1772702181835852500,1.5798525390625,-0.0059749827563762665,0.004617521999124437,-0.001575448606198188
1772702181845901800,1.58990185546875,0.0015074819535017012,-0.00019292875621467829,-0.001105248695006594
1772702181855951600,1.59995166015625,0.0070434887707233424,-0.00599195215748623,0.004241786305198911
1772702181866000600,1.610000732421875,0.00165828860104084,-0.015476112078595906,-0.001911297531018499
1772702181876050700,1.62005078125,-0.008815759140253067,-0.017300952885579316,0.011993880003003868
1772702181886099500,1.630099365234375,0.009438274952769278,-0.02558675160128623,-0.004821988212794531
1772702181896149800,1.640149658203125,0.008693009543418884,-0.015846571092493832,0.015744174730521625
1772702181906198800,1.65019873046875,-0.001034019222855568,-0.015082619248982519,0.020488814257632475
1772702181916248600,1.66024853515625,0.015875030001997945,-0.0016097184852696955,0.018589942383347078
1772702181926297600,1.670297607421875,0.006450199052691459,0.0012503105883486568,0.01506475251544034
1772702181936347600,1.68034765625,0.0019639935493469237,-0.004113481467124074,0.009205416044965387
1772702181946396700,1.690396728515625,0.0015139116942882538,-0.004487191884033382,0.003945070664235391
1772702181956446700,1.70044677734375,-0.0016308160722255706,-0.020080281405802813,-0.003708766273886431
1772702181966495500,1.71049560546875,0.010189970102906227,-0.005381492108944804,0.0058416090175393036
1772702181976545500,1.720545654296875,0.0022626842349767686,-0.01795885053873062,0.021201398956798945
1772702181986594600,1.730594482421875,0.01528057124018669,-0.030826752880308776,0.02237233329915907
1772702181996644600,1.74064453125,0.009895955592393875,-0.018803868261817843,0.01786835011052899
1772702182006693600,1.750693603515625,-0.0023725743502378462,-0.00047419338300824164,0.002731082631438039
1772702182016743700,1.76074365234375,0.011393500673770905,-0.0023926672901958225,-0.0024969747647526673
1772702182026792400,1.77079248046875,-0.004468669846653938,-0.00688725702939555,-0.0013028901589568704
1772702182036842500,1.780842529296875,-0.008662029883265495,-0.01659974581366405,0.011488569962524342
1772702182046891800,1.790891845703125,0.008996376404166222,-0.011378321370948106,0.007583431733166799
1772702182056940500,1.8009404296875,-0.0032779987573623654,-0.014180354913324117,0.017764901152497622
1772702182066990600,1.810990478515625,-0.008068155643343925,-0.0037865510676987468,0.006565548511070665
1772702182077039600,1.82103955078125,0.010637129348516464,-0.004849540656711906,0.007548287354549392
1772702182087089700,1.831089599609375,0.01407587162554264,-0.004598305842000991,0.013338328298344276
1772702182097138700,1.841138671875,-0.0011889175236225128,-0.004529368791636079,0.006470164128486067
1772702182107188700,1.851188720703125,-0.0005868599772453308,-0.00782535986341536,0.0026043509792303666
1772702182117237500,1.861237548828125,-0.0013338789522647856,-0.008786660909932107,0.000014722645096480846
1772702182127287600,1.87128759765625,-0.007169160977005958,-0.007295107177924365,-0.0018176575809484346
1772702182137336800,1.8813369140625,0.007794599398970603,-0.00400273283533752,0.012538099565054289
1772702182147386600,1.89138671875,-0.003881809869408607,-0.0011052943607792257,-0.0025417820208589546
1772702182157435600,1.901435546875,-0.007474865925312042,0.0007487725406885147,0.007976330907735973
1772702182167485700,1.911485595703125,0.0009030863195657729,0.01219035013988614,0.008457659567717928
1772702182177534500,1.921534423828125,0.00269873756468296,-0.011626925837155432,0.000008850026736035942
1772702182187584500,1.93158447265625,0.001499298647046089,-0.007926792677585035,-0.00356810656102607
1772702182197633500,1.941633544921875,-0.014213234269618987,-0.0177646248745732,0.002429622316698078
1772702182207683600,1.95168359375,0.0070353054642677305,-0.008766220910102129,-0.004203872297471389
1772702182217732600,1.961732666015625,0.003592471534013748,-0.022348445533495395,-0.008624049660167657
1772702182227781600,1.97178173828125,0.00613514175415039,-0.00554727712990716,-0.005874232645507436
1772702182237831700,1.981831787109375,0.012274959683418274,0.0008544614048674702,0.014220458594849333
1772702182247880700,1.991880615234375,-0.004485036459565162,-0.007814272213820368,-0.00008585850241361186
1772702182257930500,2.001930419921875,-5.845218896865844e-7,-0.009697492144536227,0.009832445919106248
1772702182267979500,2.0119794921875,0.006885667860507965,-0.01612536976756528,0.002070072855881881
1772702182278029600,2.022029541015625,-0.0038870705664157865,-0.005274835130386054,0.006402670116536319
1772702182288078600,2.03207861328125,0.0008984101444482803,-0.007547675433196127,-0.011255971349624451
1772702182298128600,2.042128662109375,0.0058376201122999185,-0.019138178250100463,0.01112997719964478
1772702182308177700,2.052177734375,-0.004935118314623833,-0.018613040131144225,-0.009757154476479627
1772702182318227500,2.0622275390625,-0.006128127491474151,-0.0011322371666319668,0.001852450333116576
1772702182328276700,2.07227685546875,0.004497311419248581,0.0012256693374365568,0.013957729705167001
1772702182338326800,2.082326904296875,-0.0056780456364154816,-0.0035434082278981804,0.004402792403055355
1772702182348375600,2.09237548828125,0.0023994623571634292,-0.002365194761380553,-0.0141890565262991
1772702182358425600,2.102425537109375,0.017211831563711165,0.005051547768525779,0.00021399894370697438
1772702182368474600,2.112474609375,0.006288871011137962,0.008614391349256038,0.01881447870408883
1772702182378524400,2.1225244140625,0.0025502690047025677,-0.003759407332446426,0.00647356166196987
1772702182388573700,2.13257373046875,0.0140688573628664,0.0069112954921089105,0.002170430241106078
1772702182398623700,2.142623779296875,-0.011814940956234931,0.008540540661755948,0.005050476906157564
1772702182408672500,2.152672607421875,0.013173369827866554,-0.008613605897966772,0.012550744417496025
1772702182418721800,2.1627216796875,0.00883738645017147,-0.008596764361020177,0.0058855531905428506
1772702182428771800,2.172771728515625,-0.011216390541195869,-0.010311897715833037,0.0014125998944160528
1772702182438820600,2.182820556640625,-0.014808862075209617,0.006220390618499368,0.010619310564035549
1772702182448870700,2.19287060546875,0.00270049113035202,-0.006291373495478183,0.00908346788244089
1772702182458919400,2.20291943359375,0.012874094620347023,-0.0160870470511727,-0.006459092461911496
1772702182468969500,2.212969482421875,0.006291793620586395,-0.003562606118712574,-0.002587883901619352
1772702182479018800,2.223018798828125,0.0049468087524175645,0.00698439726093784,-0.0038684183815843425
1772702182489068500,2.233068603515625,0.0124263508528471,0.00691440076464787,0.0037996274616918526
1772702182499117600,2.24311767578125,0.007039397117495536,-0.008333583380188792,0.007394030657887924
1772702182509167600,2.253167724609375,-0.0005927051961421966,-0.01785517096854746,0.000754980802477803
1772702182519216600,2.263216552734375,0.008535188633203506,-0.0199647287347354,0.00714508369838586
1772702182529266700,2.2732666015625,0.015717793613672256,-0.01950891125863418,0.020939546849951148
1772702182539315700,2.283315673828125,0.004942132577300072,-0.012704802468046545,-0.0011985461517819204
1772702182549365500,2.293365478515625,0.006285948401689529,0.0018008388768881558,0.007312060596013907
1772702182559414500,2.30341455078125,-0.007783493483066559,-0.00047234848579391837,0.007230688755761366
1772702182569464600,2.313464599609375,0.0011918401330709458,0.00008844546843320131,0.01919772185103502
1772702182579513600,2.323513671875,0.007778232786059379,-0.01331639502774924,-0.00376709059869172
1772702182589562000,2.33356201171875,0.007629764226078987,-0.007229677258897572,0.011953148417104965
1772702182599612000,2.34361181640625,0.008532266023755073,-0.014160846495255827,0.014946012373443226
1772702182609661200,2.3536611328125,0.0058376201122999185,-0.012193912070151417,0.006078443130850791
1772702182619711200,2.363711181640625,0.013617606464028358,0.007614164798147976,-0.003511437620478682
1772702182629760000,2.373760009765625,-0.007331073540449142,-0.0028700207446701823,0.01759239184651524
1772702182639810000,2.38381005859375,0.00329261180460453,-0.006452226612996309,0.012428558792953844
1772702182649859000,2.393859130859375,0.0053892918229103085,-0.009387896472401916,0.0008518881385796703
1772702182659909000,2.4039091796875,-0.005532499685883522,-0.021107085436582563,0.003660700764902867
1772702182669958100,2.413958251953125,-0.005981412497162819,-0.017800719101261346,0.01602364240916213
1772702182680008200,2.42400830078125,-0.009424830949306488,-0.0035043548591434954,0.0011913880419218911
1772702182690057000,2.434056884765625,-0.0038888241320848465,-0.006357680197339504,0.0018367184744449332
1772702182700107000,2.44410693359375,0.0007487725406885147,0.011805186747200786,0.02665496307139983
1772702182710156000,2.454156005859375,0.0074824647098779675,0.003412676254007965,0.010289026013610418
1772702182720206000,2.4642060546875,0.009724690678715705,0.0020212401619181036,0.0011232113266712986
1772702182730255000,2.474255126953125,0.004783727145195007,-0.0120543757352978,-0.004485835610586218
1772702182740305200,2.48430517578125,0.007474281403422356,-0.016722933801915495,0.005461605857161339
1772702182750354200,2.494354248046875,-0.003002688947319984,-0.009570742226019502,0.0129837678231881
1772702182760403200,2.5044033203125,0.007770634001493453,-0.005349927926901727,0.011379510964325162
1772702182770453000,2.514452880859375,0.001934182932972908,-0.009505294040683657,-0.01131471351624932
1772702182780502000,2.524501953125,0.006425064611434936,0.004181212941091508,0.006920551944221369
1772702182790552000,2.534552001953125,-0.007190203765034675,-0.00006475406559184193,0.005819703146407846
1772702182800601000,2.54460107421875,-0.0019534721553325653,-0.012318999754544346,0.013039336218615062
1772702182810651100,2.554651123046875,0.014207973572611807,-0.008898085395153611,-0.001081504776526708
1772702182820700200,2.5647001953125,0.013311316993832588,-0.011799852984957396,-0.0012312611112953163
1772702182830750000,2.57475,0.0013408932149410247,-0.009728581402543932,0.010034770408039913
1772702182840799000,2.584799072265625,-0.010329086312651633,-0.0029137320222333072,0.012001028979709371
1772702182850849000,2.59484912109375,0.004933364748954772,0.0042936238070018585,0.002819523533293977
1772702182860898000,2.60489794921875,0.01630582263469696,-0.008135247796494513,0.008644946317723952
1772702182870948000,2.614947998046875,0.0013438158243894577,-0.0032909678367897864,-0.002043778504000511
1772702182880997000,2.6249970703125,0.016311667853593826,-0.005407265871018171,0.0037149174534599296
1772702182891047000,2.635046875,0.023947861820459364,-0.005150551163591444,0.01154181853670161
1772702182901096200,2.64509619140625,-0.002242225968837738,-0.009043814008776099,-0.012177189264213666
1772702182911146200,2.655146240234375,0.00568681346476078,-0.026020192848797887,0.010102412833750712
1772702182921195000,2.665195068359375,0.004492050722241401,-0.021941106841620057,0.009566088883788324
1772702182931245000,2.6752451171875,-0.0034410803645849226,-0.006733454707171767,0.006258437056967522
1772702182941294000,2.685294189453125,0.0076326868355274195,0.0026755576184950766,0.008712065870338119
1772702182951343000,2.695343017578125,0.027831425255537032,-0.003200604405906051,-0.004414179163461085
1772702182961393200,2.70539306640625,-0.002845452558994293,0.0002598017136566341,-0.013204052660497836
1772702182971442000,2.71544189453125,0.0005967968493700027,-0.003918780878931284,-0.014727908076776656
1772702182981492000,2.725491943359375,0.0016425065100193024,-0.005664144975226372,0.0037379467025981284
1772702182991541200,2.735541259765625,0.0122650228112936,-0.01636869527045637,0.009383457759302109
1772702183001591000,2.745591064453125,0.006730185037851333,-0.014339217003155498,0.012548072969797066
1772702183011640000,2.75564013671875,-0.0031458968102931976,-0.011810776237770914,-0.002491504005191382
1772702183021690000,2.765690185546875,0.0011935936987400055,-0.010928933635633438,0.0011912715942016803
1772702183031739000,2.77573876953125,0.01376432145833969,-0.008717303734458982,0.006618717170145828
1772702183041789000,2.785788818359375,0.011370704320073127,-0.005445259793847799,-0.003598104407067876
1772702183051838200,2.795838134765625,-0.004191021949052811,-0.0008089052300900221,-0.015076077627053017
1772702183061888000,2.805887939453125,0.007628010660409927,-0.005798256216291338,0.00445202467252966
1772702183071937000,2.81593701171875,0.010023965886235237,-0.013030509024765342,0.0006100741727626882
1772702183081987000,2.825987060546875,0.01047346321940422,-0.017092315103579312,0.010386620619590394
1772702183092036000,2.8360361328125,0.00523497804403305,-0.014942790653184055,0.01886972287253011
1772702183102086100,2.846086181640625,0.025737667846679687,-0.006018438305612653,0.01099731128028361
1772702183112135200,2.85613525390625,-0.007929623955488204,-0.02238994658766314,0.024595694737322628
1772702183122184000,2.866183837890625,-0.0017956512451171875,-0.007684837147872894,0.01647451656537596
1772702183132234000,2.87623388671875,0.016311667853593826,0.0037934739988297224,0.01211703145863721
1772702183142283000,2.886282958984375,-0.008377367722988128,0.011209540675301104,0.008535044786019717
1772702183152333000,2.8963330078125,0.0019493805021047592,0.012025058309268206,0.006404225036094431
1772702183162382000,2.906382080078125,-0.0032873511075973507,0.005269793629087508,0.007040241934289224
1772702183172432100,2.91643212890625,0.012720365363359451,0.0048349824083968995,0.0019593653232906944
1772702183182481200,2.926481201171875,0.010478139394521713,-0.015765998403262347,0.003531133268214762
1772702183192531200,2.93653125,-0.0026876316487789154,-0.017510942374449223,0.00590168234143639
1772702183202580000,2.946580078125,-0.004034954604506492,-0.005823335858620703,0.006582659476075787
1772702183212630000,2.956630126953125,0.007633271357417106,0.004928396312892437,-0.00822348548566224
1772702183222679000,2.966678955078125,0.013017887005209922,0.006972670290526002,0.014907780988595912
1772702183232729000,2.97672900390625,0.01047346321940422,-0.0025660145631060003,0.008308339341077954
1772702183242778000,2.986778076171875,-0.001194178220629692,-0.0007864559362642466,0.010753741465508938
1772702183252828200,2.996828125,0.00135024556517601,-0.006748579211067408,0.021589672188600525
1772702183262877000,3.006876953125,0.0011994389176368714,-0.007615388640854507,-0.005813129558437504
1772702183272927000,3.016927001953125,0.0008995791882276535,-0.002794507823046297,0.0039927799801924265
1772702183282976300,3.026976318359375,0.00045183542072772977,-0.0001397737968713045,0.011768279669759794
1772702183293025000,3.03702490234375,-0.0004489128112792969,-0.0022516879169270396,-0.010145427708281203
1772702183303075000,3.047074951171875,0.0124175830245018,0.00849248200263828,0.003247879897023085
1772702183313124000,3.0571240234375,0.003583703705668449,0.009745075879618524,-0.00008488582145655527
1772702183323174000,3.067173828125,0.002085574102401733,-0.01591481402311474,0.004083926579076797
1772702183333223200,3.07722314453125,0.01794365296959877,-0.030571481211297213,0.012340547149360646
1772702183343273200,3.087273193359375,0.005526654466986656,-0.008992814473900943,0.023425011556711978
1772702183353322000,3.097322021484375,0.009270517170429229,0.00241708934539929,0.008520146327698602
1772702183363372000,3.1073720703125,0.008521160107851028,-0.009642126961797476,0.0018518041624338364
1772702183373421300,3.11742138671875,-0.006290040054917335,0.009981204456742852,0.02202925548253115
1772702183383471000,3.12747119140625,0.006280103182792663,-0.0026301110415719448,0.007809529823332559
1772702183393520000,3.13752001953125,0.004187514817714691,0.008517780840676278,0.03147085490354802
1772702183403570200,3.147570068359375,0.005985504150390624,0.0066398398732766505,0.018270311657676938
1772702183413619000,3.157618896484375,-0.006737783822417259,-0.005440090428385883,-0.0004355647059390321
1772702183423669000,3.1676689453125,-0.007488309928774833,-0.023761892527993766,0.002210319293499924
1772702183433718000,3.177718017578125,0.0010404489636421203,0.0027303930782712994,0.0002718483444768935
1772702183443768000,3.18776806640625,0.007473696881532668,-0.007110909717436879,-0.0035784841078566384
1772702183453817000,3.197817138671875,0.013311316993832588,-0.0019587145860306917,0.015564164821384474
1772702183463866000,3.2078662109375,0.0032873511075973507,-0.007279964407719671,-0.004221654549334198
1772702183473916200,3.217916259765625,-0.006439677658677101,0.003846574159245938,0.02006743790725013
1772702183483965200,3.227965087890625,0.005226210215687752,0.005123553558811545,0.019410798346134833
1772702183494015000,3.238014892578125,-0.0004594342052936554,-0.011673176131676882,-0.0003773979280493222
1772702183504064000,3.24806396484375,-0.0013578443497419357,-0.01147948019048199,-0.00897975406292826
1772702183514114000,3.258114013671875,0.0031318682849407193,-0.000601619154959917,-0.011910377854458056
1772702183524163000,3.2681630859375,-0.00015898995399475096,-0.012478976089227944,-0.001922223067120649
1772702183534213000,3.278213134765625,-0.015423779103159903,-0.010625548508577049,-0.005345110187889077
1772702183544262100,3.28826220703125,-0.0022550854504108427,-0.01423789378684014,-0.0008008634875295683
1772702183554312000,3.29831201171875,0.005825929674506187,-0.011248301783110946,0.002704295089212246
1772702183564361200,3.308361328125,-0.0010550620108842848,-0.016713691049534827,-0.0008001259853015653
1772702183574411300,3.318411376953125,0.00956979237794876,-0.007180924480035901,-0.0018345082510495558
1772702183584460800,3.328460693359375,0.013162848433852195,-0.0015439415063709019,-0.01751622590434272
1772702183594510800,3.3385107421875,0.004634089541435241,-0.004422748345695436,0.018106503964669535
1772702183604559600,3.3485595703125,-0.003748538878560066,0.017119878963939846,0.02777298676630016
1772702183614609700,3.358609619140625,0.002236380749940872,0.003968611370027065,0.02110191607112065
1772702183624659000,3.368658935546875,0.005974398234486579,0.02055880390405655,-0.0007137514596572145
1772702183634707700,3.378707763671875,0.008066402077674865,0.005733794411644339,0.01121189246259164
1772702183644757800,3.3887578125,0.020634207227826117,-0.004840681496821344,-0.010470266615319997
1772702183654806500,3.398806640625,0.01794014583826065,0.00265789409764111,0.004361585893121082
1772702183664856600,3.408856689453125,-0.010341945794224738,0.009581555880978703,0.0006730838058399967
1772702183674905900,3.41890576171875,0.004023848688602448,-0.004370999892149121,-0.002734183337399736
1772702183684955600,3.42895556640625,0.0019300912797451017,0.00021101240217685698,0.01407546976674348
1772702183695004700,3.439004638671875,-0.0022591771036386487,0.004676010720711201,-0.012198006006667855
1772702183705054700,3.4490546875,-0.0037532150536775588,0.002925038867536932,-0.006355606971262023
1772702183715103700,3.459103759765625,0.0017833762854337692,-0.0012450681576505302,-0.005100111034431028
1772702183725153800,3.46915380859375,-0.0025578677892684936,0.008241557715181261,0.005548302326502744
1772702183735202800,3.479202880859375,-0.005700257468223571,-0.0006868132203817367,-0.0026310814392403697
1772702183745252600,3.489252685546875,-0.0006119944185018539,-0.013459529825486241,0.009443341570242772
1772702183755301600,3.499301513671875,-0.0013595979154109954,-0.008247128939442336,0.021982347600883804
1772702183765351700,3.5093515625,-0.0091454294860363,-0.02689843698805198,0.0036203048224328085
1772702183775400700,3.519400634765625,-0.0013666121780872343,0.0008917429416440426,0.017243082935211713
1772702183785450800,3.52945068359375,0.008657353708148002,-0.002155698462855071,0.002330388309480622
1772702183795499800,3.539499755859375,0.01239887832403183,-0.011319193328544497,-0.004920448185165878
1772702183805548500,3.549548583984375,0.0032698154509067535,-0.007413290197495371,0.003154481975547969
1772702183815598800,3.559598876953125,-0.0042120647370815275,-0.006369114906806498,0.022617558498191647
1772702183825647600,3.569647705078125,0.0013233575582504273,0.001348071874398738,0.015095494713576045
1772702183835697700,3.57969775390625,0.011498714613914489,-0.004047119966335594,0.03200742773197125
1772702183845746700,3.58974658203125,0.006412205129861831,-0.007696326656267047,0.007635383399401325
1772702183855796700,3.599796630859375,-0.005405073913931847,-0.018976704078074544,0.010880032443010713
1772702183865845800,3.609845703125,0.0065735331714153284,-0.008190466848760843,0.008638075902231503
1772702183875895800,3.619895751953125,0.014504326170682907,0.005872198235336691,0.00822994034262374
1772702183885944600,3.629944580078125,0.011665887874364853,0.005531312375795096,0.0025833858230151236
1772702183895994600,3.63999462890625,0.0007435118436813354,-0.007404869429022074,0.0127930492903688
1772702183906043600,3.650043701171875,-0.00838555102944374,-0.02710015183892101,-0.0010489633469493128
1772702183916093700,3.66009375,0.016606266885995865,-0.011790281439013778,0.017197200250159948
1772702183926142700,3.670142822265625,0.01975216369628906,0.010825199266523122,0.010071444590040482
1772702183936192800,3.68019287109375,0.015264789149165153,-0.003014251520950347,-0.008639612555480562
1772702183946241500,3.690241455078125,-0.01511281345784664,0.011978113895002751,0.013185204112844075
1772702183956291600,3.70029150390625,-0.001346153911948204,-0.01196784822931513,0.021877720465918536
1772702183966340900,3.7103408203125,-0.0058352820247411724,0.004529916780907661,0.012583514175936578
1772702183976389600,3.7203896484375,0.000754033237695694,-0.0037918665636330843,-0.001280956888361834
1772702183986439700,3.730439697265625,-0.0020867431461811066,-0.010015398987289518,-0.010064948633883613
1772702183996488700,3.74048876953125,0.01063596030473709,-0.0055481721790507435,0.010334390392142814
1772702184006538800,3.750538818359375,0.006297638839483261,-0.015035199910681694,0.01674851576774381
1772702184016587800,3.760587890625,0.007648468926548958,0.008874941981583832,0.003255483248166274
1772702184026637800,3.770637939453125,0.0025590368330478666,-0.005252860760595649,0.016505133182636928
1772702184036686600,3.7806865234375,0.009286883783340454,-0.00022511399276554583,0.010396196732111274
1772702184046736600,3.790736572265625,-0.0023877719193696975,-0.005808741077687591,0.0028171922956011257
1772702184056786000,3.800785888671875,-0.005682137289643287,-0.023656240196432917,0.009129391666688025
1772702184066835700,3.810835693359375,0.0070364745080471035,-0.013143376548402011,0.0053519783200928935
1772702184076884700,3.820884765625,0.021399346381425856,0.0023937267361208796,0.0024104563919245263
1772702184086934800,3.830934814453125,0.006287117445468902,0.006684300069510937,-0.0037970222293632104
1772702184096983600,3.840983642578125,0.021699206110835072,0.004009838429559022,-0.0011097901560948229
1772702184107033900,3.851033935546875,0.006736030256748199,-0.0016915332835167646,-0.0014058345102006568
1772702184117082600,3.86108251953125,-0.005087094005942344,-0.00909391849450767,0.01641568991707172
1772702184127132700,3.871132568359375,0.014365794482827186,-0.011340400513354687,0.007541907846112735
1772702184137181700,3.881181640625,-0.0032920272827148436,-0.021034714320115742,-0.0031490956976660527
1772702184147230700,3.891230712890625,-0.0010498013138771057,-0.0031365079274401067,0.0069348247814574274
1772702184157280800,3.90128076171875,0.0026905542582273483,-0.002371953295730054,0.015237702496128621
1772702184167329800,3.911329833984375,-0.0038929157853126524,0.0007710574377328157,0.008580169419245795
1772702184177379600,3.921379638671875,-0.002546177351474762,0.003928334158565849,0.005958289633190725
1772702184187428600,3.9314287109375,0.01510755276083946,-0.0008691657836548983,0.01511025389129063
1772702184197478700,3.941478759765625,0.010918868899345397,-0.0011976305530406533,0.02894515180123271
1772702184207527700,3.951527587890625,0.0025415011763572693,0.001394760560337454,0.021432643579540306
1772702184217577700,3.96157763671875,0.015112228935956954,-0.014927373888343571,-0.01001069997928571
1772702184227626800,3.971626708984375,0.008528758892416954,-0.020486140526644884,0.008565282377367839
1772702184237676500,3.981676513671875,0.01152092644572258,-0.01317179892528802,0.0028824829340213906
1772702184247725800,3.991725830078125,-0.0055371758610010145,-0.006895641265250742,-0.018970379368565046
1772702184257775900,4.00177587890625,-0.004190437427163123,0.00027492621755227447,0.0028555583944777025
1772702184267824600,4.01182470703125,0.0022445640563964844,-0.003206687086820602,0.012503546558192465
1772702184277874700,4.021874755859375,0.0011976853519678114,-0.013398703016340732,-0.007659883086418267
1772702184287923700,4.031923828125,0.0056885670304298395,-0.004343198569770902,-0.002751287452538963
1772702184297972700,4.04197265625,-0.0014957915157079696,-0.005474284958932548,-0.0016752214695326983
1772702184308022800,4.052022705078125,0.002096095496416092,-0.003991699984669685,0.01149433298303047
1772702184318071600,4.062071533203125,0.007782324439287185,-0.01909508802704513,0.01930952992874663
1772702184328121600,4.07212158203125,-0.0010462941825389862,-0.006520926201343536,0.023532186841790096
1772702184338171000,4.0821708984375,0.014065350231528282,0.006121113228797912,0.0161695217198343
1772702184348220700,4.092220703125,-0.0106225163012743,0.006155983612779528,0.0008073594436864368
1772702184358269700,4.102269775390625,-0.0013467384338378906,-0.0058945379313081496,-0.0051394201315124515
1772702184368319700,4.11231982421875,0.0005950432837009429,-0.011435275722574441,0.01251948391284095
1772702184378368500,4.122368408203125,0.01196925473511219,-0.012885273601487278,0.003922084797581192
1772702184388418600,4.13241845703125,0.006433247917890549,0.0019027831477113066,0.0003454729864024557
1772702184398467800,4.1424677734375,0.0034422494083642956,-0.013709266802854836,0.006072289667988662
1772702184408517600,4.152517578125,0.003890577697753906,0.0033606172732077535,-0.0026945888292393646
1772702184418566700,4.162566650390625,-0.002697568520903587,-0.0040885114226490256,0.007759336289344355
1772702184428616700,4.17261669921875,0.00029576807618141173,-0.01428575151655823,0.0046235749972867776
1772702184438665700,4.182665771484375,-0.008980594313144684,-0.008200586383976041,0.00003441372625529766
1772702184448714800,4.19271484375,0.0029904139876365658,-0.010872180213406682,0.005084938581474125
1772702184458764800,4.202764892578125,0.009725275200605392,-0.008983334259502589,0.005195705479569733
1772702184468813600,4.2128134765625,0.002542085698246956,0.0004826324177905917,-0.001883539591124281
1772702184478863600,4.222863525390625,0.010921206986904144,-0.013399999924283474,0.014304163956083357
1772702184488913000,4.232912841796875,-0.0005997194588184357,0.0037596265281550586,0.010495147611538413
1772702184498962700,4.242962646484375,-0.006885667860507965,0.008870101409684866,0.007291250703425612
1772702184509011700,4.25301171875,-0.014368717092275619,-0.006173208742216229,0.012942958605475723
1772702184519061800,4.263061767578125,-0.004639350238442421,-0.017955781798809765,0.00874419859125046
1772702184529110800,4.27311083984375,0.0023977087914943693,-0.006299903861805796,0.0005437355048605241
1772702184539160800,4.283160888671875,-0.013311316993832588,-0.01315404407288879,0.012752217239770106
1772702184549209600,4.293209716796875,-0.011662380743026732,-0.010266250209510325,0.02108380045911763
1772702184559259600,4.303259765625,0.01362578977048397,-0.009212302443478256,0.008860691977234091
1772702184569308700,4.31330859375,0.0027010756522417067,-0.020982600540388373,-0.008312798603775444
1772702184579358700,4.323358642578125,0.0024018004447221753,-0.010680347435735165,-0.0020262656801962294
1772702184589407500,4.333407470703125,-0.0059761518001556395,-0.005219616078119725,0.001722871419985313
1772702184599457500,4.34345751953125,0.0006061491996049881,-0.0036541203270666297,0.01701066926869098
1772702184609506300,4.35350634765625,-0.0028349311649799344,-0.00036423020251095294,0.02607733443009201
1772702184619555600,4.3635556640625,0.0030009353816509246,0.015805508429743348,0.005585197987500578
1772702184629605600,4.373605712890625,0.007940729871392249,0.008982987199630588,0.005975236201414372
1772702184639654400,4.383654296875,-0.006421557480096817,-0.006254585149046033,0.006198436798306647
1772702184649704400,4.393704345703125,0.0016553659915924071,-0.020644162366259843,-0.002876893443451263
1772702184659753500,4.40375341796875,0.01541910292804241,-0.02558830423755571,0.0031520799559075384
1772702184669803300,4.41380322265625,0.017063363003730774,-0.012208872177265583,-0.009873182071582413
1772702184679852500,4.4238525390625,-0.009422492861747742,-0.00981194883706048,0.02401443338380195
1772702184689902600,4.433902587890625,-0.0014905308187007902,-0.011197320514544844,0.017915742049366235
1772702184699951400,4.443951416015625,0.006288286489248275,-0.007990505563560873,0.01568351003486896
1772702184710001400,4.45400146484375,0.00015314473509788512,-0.0019855477940291166,0.015096592975407839
1772702184720050700,4.46405078125,0.008228899163007735,0.0062903323158621785,-0.007145483273896388
1772702184730100500,4.4741005859375,-0.008980594313144684,-0.007572408015653491,0.010159205071884206
1772702184740149500,4.4841494140625,-0.0031441432446241376,0.003622227351460606,0.012393996652937493
1772702184750199600,4.494199462890625,0.013463292685151099,-0.009302190950326621,0.009557487735513131
1772702184760248300,4.504248291015625,0.012263853767514227,-0.010264697573240845,-0.0016086636059219016
1772702184770297600,4.514297607421875,0.008072831818461417,-0.0005010996562428772,0.005343986809882335
1772702184780347400,4.524347412109375,0.002838438296318054,0.00430396253792569,0.009676072613883297
1772702184790396400,4.534396484375,0.011519757401943206,0.012691778589691966,0.0009972948085051028
1772702184800446500,4.544446533203125,-0.006434416961669922,0.003013685265369713,0.004536351088271476
1772702184810495500,4.55449560546875,-0.004340659552812576,0.00022200872022658586,0.011644934134592767
1772702184820545500,4.564545654296875,0.0011947627425193785,-0.001692629262059927,-0.006771304782817606
1772702184830594600,4.574594482421875,0.01376256789267063,-0.004461600785050541,-0.016637394959910307
1772702184840644400,4.584644287109375,0.021092472389340398,-0.002242408631928265,0.004174643919698428
1772702184850693400,4.594693359375,0.00807400086224079,-0.0016166596827097237,0.013113597898068837
1772702184860743400,4.604743408203125,0.0008943184912204742,-0.0090519242499955,0.0063397746478905895
1772702184870792400,4.61479248046875,0.0019458733707666397,-0.0012970906058326363,-0.004221748164168093
1772702184880842500,4.624842529296875,-0.0007505261063575744,0.0022632322242483495,0.006577951334917452
1772702184890891500,4.6348916015625,0.015412088665366171,-0.002594290809519589,0.004112531619053334
1772702184900941300,4.64494140625,0.005536591339111328,-0.006662197835557162,0.011391326982993631
1772702184910990600,4.654990478515625,0.0019458733707666397,-0.007878478290140628,0.01068097305682022
1772702184921040600,4.66504052734375,0.019152444237470624,-0.0010933299283497034,0.011527593648526816
1772702184931089400,4.67508935546875,0.00793371560871601,-0.024161139244958756,0.019623671628546436
1772702184941138400,4.685138427734375,-0.004184592208266258,-0.00540962222488597,-0.00037515802190173417
1772702184951188500,4.6951884765625,0.011079027897119521,-0.0016974881002679465,0.0017551913705654441
1772702184961237500,4.705237548828125,0.0009060089290142059,-0.02170302376942709,0.011547908067482057
1772702184971287600,4.71528759765625,-0.007028291201591492,-0.008689118819590657,0.011893716697313357
1772702184981336300,4.72533642578125,0.011675240224599837,0.0019950462747365233,0.0023112132515525443
1772702184991386400,4.735386474609375,0.0026952304333448408,-0.005428564387373626,0.009327224926883355
1772702185001435400,4.745435302734375,0.002245148578286171,-0.012085245797596872,0.007005321317957714
1772702185011485400,4.7554853515625,-0.003892331263422966,0.0002714921514503658,0.004760236671753228
1772702185021534500,4.765534423828125,-0.0031482348978519436,-0.007647847872041165,0.030393834505893755
1772702185031584500,4.77558447265625,0.006876900032162666,-0.008968118424061686,0.017452344055008142
1772702185041633300,4.78563330078125,0.003133037328720093,-0.000450520246475935,0.015323417151358444
1772702185051683300,4.795683349609375,0.006725508862733841,-0.004083670850750058,0.005415636407141574
1772702185061732600,4.805732666015625,0.007622165441513061,-0.014669216142501681,-0.00527836509461049
1772702185071782400,4.815782470703125,0.016600421667098998,-0.009285824337415396,-0.006258838915766682
1772702185081831400,4.82583154296875,0.0019330138891935347,-0.002562872757948935,0.003276172126457095
1772702185091880400,4.83588037109375,0.008069909209012984,0.0016863821843639015,-0.010556408245523926
1772702185101930500,4.845930419921875,0.017494155636429785,-0.005065484962332993,0.0052033704795059746
1772702185111979500,4.8559794921875,0.0034299744486808773,-0.009925821007695049,0.012105468885006848
1772702185122029600,4.866029541015625,-0.002555529701709747,-0.01728855006173253,0.01082578607170144
1772702185132078300,4.876078369140625,-0.008839140015840529,-0.007318926444929093,0.017053992387186735
1772702185142128400,4.88612841796875,0.001488192731142044,-0.013679127392917871,0.011013673326617571
1772702185152177700,4.896177734375,-0.004347673815488815,-0.019040435230359434,0.02043992904803017
1772702185162227500,4.9062275390625,-0.0025508535265922547,-0.011144896207563579,-0.001019518056756351
1772702185172276500,4.9162763671875,0.006580547434091567,0.0074020381511189035,0.01435444425503956
1772702185182326500,4.926326416015625,0.004783727145195007,0.0035384397918358443,0.003491529626899864
1772702185192375300,4.936375244140625,0.010321487528085708,0.006758771811518818,0.0067253924150136295
1772702185202425600,4.946425537109375,0.01481529181599617,0.008056611336022614,-0.00024276838046498596
1772702185212474400,4.956474365234375,0.007481880187988281,-0.003596764116641134,-0.001994909277418628
1772702185222524400,4.9665244140625,-0.015416180318593977,-0.012696546096354722,0.008975623593793716
1772702185232573400,4.976573486328125,-0.011227496457099913,-0.0011233232078142464,0.010384663841233122
1772702185242622500,4.98662255859375,0.006579962912201881,0.010232421005144715,0.001555186702881474
1772702185252672500,4.996672607421875,0.0001432078629732132,0.0014770502826198936,0.025150789603125303
1772702185262721500,5.006721435546875,0.009125555741786957,-0.015609255205281078,0.0074056297641363926
1772702185272771300,5.016771240234375,0.0013479074776172636,-0.011574136203993111,0.024123770943214183
1772702185282820400,5.0268203125,0.0013484919995069504,-0.014752254783455281,0.018305303055956026
1772702185292870400,5.036870361328125,0.0028419454276561737,-0.008980868307780474,0.011570250046742147
1772702185302919400,5.04691943359375,0.009278115954995154,-0.014285915913339704,-0.0004568700721603818
1772702185312969500,5.056969482421875,0.0019447043269872665,-0.0061514353018254034,-0.0225698628819664
1772702185323018500,5.0670185546875,0.004487374547123908,0.004080419447738677,0.002812438488670159
1772702185333068300,5.077068359375,0.0038870705664157865,-0.01978078700257465,0.014307157347479369
1772702185343117600,5.08711767578125,-0.0013496610432863236,-0.021585114744491873,0.003969405954470858
1772702185353167600,5.097167724609375,-0.009283376652002334,0.0019861140496097505,-0.005827724339370615
1772702185363216400,5.10721630859375,0.012861819660663604,-0.015604231970291585,0.0005915704016922973
1772702185373266400,5.117266357421875,0.008670213189721106,-0.01509295797990635,0.01049862277683569
1772702185383315500,5.1273154296875,0.0032820904105901718,0.006072725776117295,0.004945806388708297
1772702185393364500,5.137364501953125,0.008366846328973769,-0.005802968924026936,0.002181974548427388
1772702185403414500,5.14741455078125,0.009863222366571426,0.004090411118790507,0.015052363391325343
1772702185413463300,5.15746337890625,-0.0033066403299570083,0.009394819403532892,0.006986395138490479
1772702185423513300,5.167513427734375,0.006267243701219559,-0.006640113867912441,0.0026112944599590263
1772702185433562600,5.177562744140625,-0.004209142127633094,-0.007311638187617063,0.010823932041332592
1772702185443612400,5.1876123046875,-0.0019639935493469237,0.011648023424111306,-0.010318089994601905
1772702185453661400,5.197661376953125,-0.00061608607172966,0.0011154138959944247,-0.00984367741588503
1772702185463711500,5.20771142578125,0.0001309329032897949,-0.007067490700818598,-0.0015641600272036156
1772702185473760300,5.21776025390625,-0.006154430976510048,-0.011207275652978568,-0.004720276837411802
1772702185483810300,5.227810302734375,-0.005254851788282394,-0.007533628641534596,-0.020415714772092176
1772702185493859600,5.237859619140625,-0.0037578912287950512,-0.02044891378879547,-0.000011220080335624515
1772702185503909400,5.247909423828125,0.021675240713357923,-0.002289718372374773,0.005307616305269766
1772702185513958400,5.25795849609375,0.020627777487039565,0.004442348095308989,-0.005189750662818551
1772702185524008400,5.268008544921875,0.003868365865945816,-0.004085387883801013,0.011866093471448402
1772702185534057500,5.278057373046875,0.0016243863314390182,-0.018163214004412294,0.005195529666345101
1772702185544106500,5.2881064453125,-0.0025648820519447325,-0.013108232169784604,-0.013930547154007945
1772702185554156500,5.298156494140625,0.004019757035374641,-0.011184844625461847,-0.002741419079073239
1772702185564205300,5.308205322265625,-0.0018149404674768447,-0.01105336373290047,0.004752952981018461
1772702185574255400,5.31825537109375,0.007764788782596587,-0.002958941137138754,0.007858204970380757
1772702185584304600,5.3283046875,0.011207038190960883,-0.011651366158667952,0.013339887784479651
1772702185594354200,5.338354248046875,-0.0013619360029697416,-0.0010215068011544643,0.024206887215981257
1772702185604403200,5.3484033203125,0.00911444982588291,0.0005202427481301128,-0.005657011981541291
1772702185614453200,5.358453369140625,0.0011836568266153334,-0.006495335102360695,-0.004935928882088046
1772702185624502300,5.368502197265625,-0.0012087912678718567,-0.0009130049253813922,-0.017619948857009876
1772702185634552300,5.37855224609375,-0.008989362141489982,0.000856397633627057,-0.012517186924477572
1772702185644601000,5.38860107421875,-0.005699672946333885,-0.002204597372189164,0.010109445362736004
1772702185654651100,5.398651123046875,-0.011084873116016388,0.0029615532193332907,-0.0020072116365656254
1772702185664700200,5.4087001953125,-0.0022556699723005292,-0.021331085184495894,0.012850718311336821
1772702185674750200,5.418750244140625,0.003729834178090095,-0.007118490235693753,0.006703694323147646
1772702185684799200,5.42879931640625,-0.0028571429967880245,-0.012814363789744675,0.007236698371439706
1772702185694849300,5.438849365234375,0.0028308395117521284,-0.006447897497750818,0.0027696245435392484
1772702185704898000,5.44889794921875,0.002533317869901657,-0.005922978574503213,-0.011631501547573133
1772702185714947300,5.458947265625,-0.0015086509972810744,-0.006607417174708098,0.015610143404558765
1772702185724997400,5.468997314453125,-0.00405249026119709,-0.022316315095871685,0.001211184154357761
1772702185735046100,5.479046142578125,-0.006148001235723495,-0.01285544471880421,0.011066287146555259
1772702185745096200,5.48909619140625,0.013302549165487289,-0.013650924211740493,0.0035425497113727032
1772702185755145200,5.499145263671875,-0.01273614745438099,-0.023481048026308415,0.003389571656344924
1772702185765195000,5.509195068359375,-0.008548048114776611,-0.0018335721027106045,0.010306573086744174
1772702185775244300,5.519244384765625,0.0067155719906091685,-0.0018395086531527338,-0.0059981375863892026
1772702185785294300,5.52929443359375,-0.005254851788282394,-0.009501366784237325,0.004641199702234007
1772702185795343000,5.539343017578125,0.009410217902064323,-0.0014467099432833492,0.01601917629659874
1772702185805393200,5.54939306640625,0.008661445361375808,0.00618975801821798,-0.004588056159333791
1772702185815442400,5.5594423828125,-0.009444120171666145,-0.023761655065976082,0.0010698189053102395
1772702185825492200,5.5694921875,-0.010191723668575287,-0.013746109948214142,0.01680262970831245
1772702185835541200,5.579541259765625,0.000730067840218544,-0.002738119727000594,0.0011308649101643823
1772702185845591300,5.58959130859375,-0.002266191366314888,-0.013388528682198374,0.010553175108821596
1772702185855640000,5.59964013671875,-0.0018190321207046509,-0.005819481667410582,0.007468116524117067
1772702185865689300,5.609689453125,-0.0018190321207046509,-0.015572576456703244,0.005782693320978432
1772702185875739100,5.6197392578125,-0.01693067653477192,-0.013691913809254764,-0.0026329468860523775
1772702185885788200,5.6297880859375,0.011499299135804176,-0.007517152430769056,0.0018952186124748549
1772702185895838200,5.639838134765625,0.0071603931486606594,-0.009608279491122812,0.011651046498259529
1772702185905887200,5.64988720703125,0.014642857858538626,-0.009635660688392817,0.01914773837960092
1772702185915937300,5.659937255859375,-0.0009194529324769973,-0.012193437146116048,0.003380061759194359
1772702185925986300,5.669986328125,-0.005410919132828712,0.0007840630497783422,-0.009352777209959457
1772702185936036000,5.6800361328125,0.00955284124314785,-0.011801624816935509,-0.006258973629795946
1772702185946085000,5.690085205078125,-0.00376665905714035,-0.0055767589527182275,0.003809185307903681
1772702185956135200,5.70013525390625,0.009700725281238555,-0.00394603421203792,0.005509237541304901
1772702185966184200,5.71018408203125,-0.0009194529324769973,-0.000063694619666785,0.004060840247722808
1772702185976234200,5.720234130859375,0.00042670097947120663,0.0050519496273249385,0.003805986420530826
1772702185986283300,5.730283203125,-0.0027197803527116773,-0.0031883111799135802,0.006749967450555413
1772702185996333000,5.7403330078125,0.00865267753303051,-0.003174848910141736,0.01202818413140485
1772702186006382300,5.75038232421875,0.0010229133069515229,-0.002215264896675944,0.018980875646404455
1772702186016432400,5.760432373046875,0.01000116953253746,-0.011643511645775288,0.01078932651883224
1772702186026481200,5.770481201171875,0.0029670331120491026,-0.02058108880110085,-0.014012763811054173
1772702186036531200,5.78053125,-0.006611527094244956,-0.006127287241257727,-0.0008288155069574713
1772702186046580200,5.790580322265625,0.014936287847161292,-0.004163238892983645,0.00915092079519527
1772702186056629200,5.800629150390625,0.00760696787238121,-0.011621701672766356,0.011309505334880668
1772702186066679300,5.81067919921875,0.010453004953265189,-0.00035860417932271954,0.01214027533690678
1772702186076728000,5.82072802734375,0.0005769231051206588,-0.010525924059003591,0.007205280319869052
1772702186086778000,5.830778076171875,0.009404372683167458,-0.01842195627214387,0.00899391730231
1772702186096827400,5.840827392578125,0.002521627432107925,-0.014723320949915795,0.006442570585373323
1772702186106877200,5.850877197265625,0.01224456454515457,-0.011154266824107617,0.009049709460022858
1772702186116926200,5.86092626953125,0.009254150557518005,-0.009737787622306496,0.011051801963476464
1772702186126976300,5.870976318359375,0.0025187048226594923,0.0010691270688548684,-0.0014523268333170563
1772702186137025000,5.88102490234375,-0.006162029761075973,0.002443155368417501,-0.003273176451772451
1772702186147075000,5.891074951171875,0.011049217280745505,0.003073598759062588,-0.004622271239478141
1772702186157124400,5.901124267578125,0.0017675941944122313,-0.00886999181183055,0.026583950511668807
1772702186167174100,5.911174072265625,0.00386252064704895,-0.010381127027142792,0.0137161166687496
1772702186177223200,5.92122314453125,0.0016167875468730926,-0.014689071620441972,0.0038281388868344948
1772702186187273200,5.931273193359375,0.006551321339607239,-0.014825064291339366,0.031073914308100938
1772702186197322200,5.941322265625,0.005502104547619819,-0.0075543061033822596,-0.0000824016034253873
1772702186207372300,5.951372314453125,0.006250292566418647,-0.004551544090826064,0.009211745321052149
1772702186217421300,5.96142138671875,0.006552490383386612,0.008970894903037697,0.0077912018654868005
1772702186227470000,5.971469970703125,0.014935118803381919,0.006461706827394664,-0.0009886936602299101
1772702186237520100,5.98152001953125,-0.011248539245128631,-0.009835603707283735,0.0029003816336044107
1772702186247569400,5.9915693359375,-0.007208908465504646,-0.002194550902210176,0.002399396141793113
1772702186257619200,6.001619140625,0.011046879193186759,-0.00967557257367298,0.001550489978166297
1772702186267668200,6.011668212890625,0.002814472898840904,-0.008236333550792186,-0.00070355200933991
1772702186277718300,6.02171826171875,0.008499532797932625,-0.004005034390278161,0.009108627439872362
1772702186287767300,6.031767333984375,-0.0006266074657440185,-0.017993629591166974,0.014223104926373343
1772702186297817300,6.0418173828125,0.008352233281731606,0.009829977684095501,0.007200944354757666
1772702186307866000,6.0518662109375,0.009250643426179886,-0.005771477807220071,0.004100503254542127
1772702186317916200,6.061916259765625,0.015084756407141684,-0.0038940300301648673,-0.006445388163544703
1772702186327965200,6.071965087890625,0.011489362263679503,-0.013290566466748715,0.0043670361030846835
1772702186338015200,6.08201513671875,-0.006914893954992294,-0.013321655724756418,0.011279852265422231
1772702186348064300,6.092064208984375,-0.006019990941882133,-0.0012175042972899972,0.013590449029044247
1772702186358114300,6.1021142578125,-0.0018307225584983824,-0.004935173113550991,-0.004114979304466396
1772702186368163000,6.1121630859375,-0.002881692916154861,0.012881273279804735,0.001463983021781314
1772702186378212000,6.122212158203125,0.0014560440272092818,-0.0066461234835907814,0.008227689020032994
1772702186388262100,6.13226220703125,0.0065425535112619395,0.0029767325221560894,-0.005673205064516514
1772702186398311200,6.142311279296875,0.006242693781852722,0.002569448629207909,0.0071749217142234555
1772702186408361200,6.152361328125,0.0004068272352218628,-0.025734854835085568,0.0010606743343407287
1772702186418410200,6.16241015625,-0.0012444471031427384,-0.016231789284106343,0.013929567623184994
1772702186428460000,6.1724599609375,-0.000647065731883049,-0.01544284912981093,0.0009453796748886816
1772702186438509300,6.18250927734375,0.006534954726696014,-0.0022521628409624098,0.006248438536049798
1772702186448559400,6.192559326171875,-0.00004734627306461334,0.0009702880705706775,0.016433038344094528
1772702186458608000,6.202608154296875,0.005938742399215698,-0.01057633907198906,0.010018426628015003
1772702186468658200,6.212658203125,0.0006996727019548416,0.004751322712935507,0.017908476624940523
1772702186478707200,6.222707275390625,0.0011468319475650788,-0.019409907863568512,0.015355691436165943
1772702186488757200,6.23275732421875,-0.0007996259450912475,-0.005009389127232134,0.010519026244047562
1772702186498806300,6.24280615234375,0.010121581041812896,0.0009314721638336777,0.011474256026092916
1772702186508856300,6.252856201171875,-0.0021539631634950635,-0.0021265819662250576,0.0075381518363137725
1772702186518905000,6.262905029296875,-0.010838204878568649,-0.001008501189108938,0.005683059738250449
1772702186528955100,6.272955078125,0.0038262802898883816,-0.00567662086430937,0.02239908659205539
1772702186539004200,6.283004150390625,0.0011310498565435408,0.009373301691468805,0.019223746774857862
1772702186549053200,6.29305322265625,-0.002908580923080444,0.0075624894098378715,0.016173964999511372
1772702186559103200,6.303103271484375,-0.0026075521498918532,-0.008243347813468426,0.00538557006244082
1772702186569152000,6.313152099609375,-0.006348492243885994,-0.005682447816897183,0.0076562572240713046
1772702186579202000,6.3232021484375,0.003525836038589477,-0.018896697644423692,0.01152404541799333
1772702186589251300,6.333251220703125,0.00008943184912204742,-0.003697703740466386,-0.004718518705165479
1772702186599301400,6.34330126953125,0.005475801062583923,-0.00017729279566556215,0.008048343547887634
1772702186609350400,6.353350341796875,-0.003652677288651466,-0.011088014921173452,0.003279804838669952
1772702186619400200,6.363400146484375,0.02104278802871704,-0.00021404460947960615,-0.0005208638026379048
1772702186629449500,6.373449462890625,0.017602292186021804,-0.006121423756051808,0.002546248133422341
1772702186639499500,6.38349951171875,-0.0004991816937923431,-0.02292682994334027,0.014019773507153149
1772702186649548300,6.39354833984375,0.00339022696018219,-0.012401198145281523,-0.001124633815488778
1772702186659598300,6.403598388671875,0.011769932770729064,-0.004463737943209707,0.00009890521365450694
1772702186669647000,6.413647216796875,0.012968202644586563,0.0013300978262908757,-0.0016410817379131912
1772702186679697200,6.423697265625,-0.004088146096467972,0.00871202477114275,0.023462080747645813
1772702186689746400,6.433746337890625,-0.006934183177351951,0.009550302226189524,-0.004244065027253236
1772702186699795200,6.443795166015625,0.003095627927780151,0.006098883130680769,0.002385424698656425
1772702186709845200,6.45384521484375,0.0013017302483320236,-0.006705580319557339,0.010355293899565004
1772702186719894500,6.46389453125,0.005041501298546791,-0.0012759016873314976,0.0003144225443014875
1772702186729944300,6.4739443359375,-0.0024397943675518036,-0.003389130981639027,0.00013860703638056293
1772702186739993300,6.483993408203125,0.00609247165620327,0.002616027717292309,0.03242096783576999
1772702186750043400,6.49404345703125,0.006241524738073349,0.004910440531093627,0.01764969782459084
1772702186760092200,6.504092041015625,0.0013034838140010834,0.014021200562547891,-0.008123365562455728
1772702186770142200,6.51414208984375,-0.0063292030215263365,0.016005561046488582,0.0018835144749493337
1772702186780191500,6.52419140625,0.002503507253527641,-0.018413572036288677,0.003399613559746649
1772702186790241300,6.5342412109375,-0.005575754305720329,-0.05245216310257092,0.001992409076367039
1772702186800290300,6.544290283203125,0.00011456629037857055,-0.062393181679397815,-0.0014038663154002278
1772702186810340400,6.55434033203125,-0.19199089084267615,-0.022507344155944884,-0.050461519008316094
1772702186820389400,6.564389404296875,-0.5715893428772687,0.041824970626179125,-0.12063409338439814
1772702186830438400,6.5744384765625,0.1522960093140602,0.028058859069552272,0.028875901940325275
1772702186840488400,6.584488525390625,0.6856126124203205,-0.020680439256038515,0.13994848671793006
1772702186850537200,6.594537109375,-0.1360404555618763,0.0222276321654208,-0.022910161936329675
1772702186860587300,6.604587158203125,0.048016135150194164,0.018563008710648865,0.007335165193676948
1772702186870636300,6.61463623046875,0.0017886369824409484,-0.01892367698289454,-0.0006462163485120981
1772702186880686300,6.624686279296875,0.07098083115220069,0.0024024762981571255,0.01967398389354348
1772702186890735400,6.6347353515625,0.2708072379261255,-0.018609806994441896,0.05735480391969904
1772702186900785400,6.644785400390625,0.21563246319293974,-0.03125153589732945,0.0724027080483269
1772702186910834400,6.65483447265625,-0.11734686100780964,-0.0044246845744550225,0.010580617954884654
1772702186920884500,6.664884521484375,-0.7879699940890074,0.06955362962698564,-0.18770546860843895
1772702186930933200,6.674933349609375,0.49464112775325775,-0.066142104150448,0.12849124575871973
