time,seconds_elapsed,z,y,x
1772702180318381600,0.062381591796875,0.0013470156118273735,-0.0008145454339683056,-0.0028414567932486534
1772702180328430300,0.072430419921875,0.0018887026235461235,-0.0010025645606219769,0.0012632734142243862
1772702180338480400,0.08248046875,-0.0025480366311967373,-0.0016165981069207191,0.00019887261441908777
1772702180348529400,0.092529296875,-0.0005991351790726185,0.00042897602543234825,0.0004116591881029308
1772702180358579500,0.102579345703125,0.0007401625043712556,-0.0024030152708292007,0.00039526954060420394
1772702180368628500,0.11262841796875,0.0023053023032844067,0.0008066263981163502,0.00048714858712628484
1772702180378678500,0.122678466796875,-0.0033612814731895924,-0.0008907890878617764,-0.0010075466707348824
1772702180388727600,0.1327275390625,0.0010521092917770147,0.0000019026920199394226,-0.00024082261370494962
1772702180398777600,0.142777587890625,-0.0012129117967560887,-0.00030143139883875847,-0.00016598781803622842
1772702180408826400,0.152826416015625,-0.002191889565438032,-0.0014013168402016163,-0.00029302056645974517
1772702180418876400,0.16287646484375,-0.0006445059552788734,0.0020369086414575577,-0.0029371364507824183
1772702180428925400,0.172925537109375,-0.0014272090047597885,-0.0007586120627820492,-0.0005794399185106158
1772702180438975500,0.1829755859375,-0.00007449451368302107,0.00028061773627996445,0.001164485001936555
1772702180449024500,0.1930244140625,0.0011755932355299592,0.0009101890027523041,0.0009785962756723166
1772702180459074600,0.203074462890625,-0.0008991148788481951,0.0006121248006820679,-0.0015467721968889236
1772702180469123300,0.213123291015625,0.0004087634733878076,0.0007364945486187935,-0.001592578599229455
1772702180479173400,0.22317333984375,0.001468786271288991,0.0013786666095256805,0.0020427731797099113
1772702180489222400,0.233222412109375,0.00006636558100581169,0.0015653539448976517,-0.0026457218918949366
1772702180499272400,0.2432724609375,0.0010065597016364336,-0.0005712364800274372,-0.0010259004775434732
1772702180509321500,0.253321533203125,0.0016720836283639073,0.0015094908885657787,-0.0003449301002547145
1772702180519371500,0.26337158203125,0.0004368113004602492,-0.00028287991881370544,-0.00041718868305906653
1772702180529420300,0.273420166015625,0.0024919728748500347,0.00031073857098817825,-0.0006542099872604012
1772702180539469600,0.283469482421875,0.00012557848822325468,0.0013313465751707554,0.0014210620429366827
1772702180549519600,0.29351953125,-0.003133598016574979,0.0029747826047241688,-0.0023230761289596558
1772702180559568400,0.303568359375,0.0025307643227279186,-0.0007165265269577503,0.00008894139318726957
1772702180569618400,0.313618408203125,0.00011447828728705645,-0.0005689873360097408,0.0004556586791295558
1772702180579667500,0.32366748046875,-0.00006847910117357969,0.0021205111406743526,0.000008269766112789512
1772702180589717200,0.33371728515625,-0.0005382606759667397,-0.001120555680245161,-0.002064468339085579
1772702180599766300,0.343766357421875,0.0017809054115787148,0.0015395074151456356,-0.0016490226844325662
1772702180609816300,0.35381640625,0.0008911432814784348,-0.003531150985509157,-0.0010700513375923038
1772702180619865000,0.363864990234375,0.00031324708834290504,-0.0006017000414431095,0.0016922011272981763
1772702180629915100,0.3739150390625,0.0007859581965021789,0.0009903372265398502,0.0009342655539512634
1772702180639964200,0.383964111328125,-0.0002778059570118785,-0.002728033345192671,-0.0028911856934428215
1772702180650014200,0.39401416015625,-0.0008485214784741402,-0.0006265332922339439,-0.0029556341469287872
1772702180660063200,0.404063232421875,0.0008364553796127439,0.0021620765328407288,-0.0014231293462216854
1772702180670113000,0.414113037109375,0.0013938549673184752,-0.0015975073911249638,0.001502619474194944
1772702180680162300,0.424162353515625,-0.0012625529197975993,0.0010870103724300861,0.0028544047381728888
1772702180690212400,0.43421240234375,-0.0013853245181962848,-0.0006246035918593407,0.00008684766362421215
1772702180700261000,0.44426123046875,-0.00005864596460014582,-0.00000814022496342659,0.000958874064963311
1772702180710311200,0.454311279296875,-0.0007065930403769016,-0.00046274159103631973,0.0013029545079916716
1772702180720360200,0.464360107421875,0.0014192255912348628,0.0007962118834257126,0.0019332673400640488
1772702180730410000,0.474409912109375,-0.0022263755090534687,-0.001071462407708168,-0.0008113863877952099
1772702180740459300,0.484459228515625,-0.0002840484958142042,0.00041305460035800934,0.0028542031068354845
1772702180750508300,0.49450830078125,-0.00007605564314872026,-0.00030999304726719856,-0.0027485552709549665
1772702180760558000,0.50455810546875,0.0033538928255438805,-0.0014600884169340134,-0.0010465583764016628
1772702180770607400,0.514607421875,-0.0006605562521144748,0.0012390250340104103,-0.0018574909772723913
1772702180780657400,0.524657470703125,0.0010713799856603146,-0.0013369927182793617,0.0013310045469552279
1772702180790706200,0.5347060546875,0.0011611286317929626,-0.0005436372011899948,-0.0017907529836520553
1772702180800756200,0.544756103515625,-0.0012445803731679916,0.00028011202812194824,-0.0028361377771943808
1772702180810805200,0.55480517578125,0.0011882171966135502,-0.0002977936528623104,0.00033755117328837514
1772702180820855000,0.56485498046875,0.0024549169465899467,0.0009634657762944698,0.0018011025385931134
1772702180830904300,0.574904296875,-0.0018471534131094813,-0.001258675940334797,-0.001121450331993401
1772702180840954400,0.584954345703125,-0.0018379156244918704,-0.001529785804450512,0.0014450378948822618
1772702180851003100,0.595003173828125,0.00025106797693297267,-0.000446944497525692,0.0027004522271454334
1772702180861053200,0.60505322265625,-0.00020398851484060287,-0.0012259786017239094,0.002563673071563244
1772702180871102200,0.615102294921875,0.0002751142019405961,-0.0020555532537400723,0.0020547432359308004
1772702180881152300,0.62515234375,-0.003058760892599821,-0.0022275270894169807,-0.0011197960702702403
1772702180891201300,0.635201171875,-0.0010014690924435854,0.0003173896111547947,-0.0004809037200175226
1772702180901251300,0.645251220703125,0.00011361157521605492,0.001278904266655445,-0.0004787071666214615
1772702180911300000,0.655300048828125,-0.0010437981691211462,-0.0023286137729883194,-0.0021234755404293537
1772702180921350100,0.66535009765625,-0.001618510577827692,0.0014387993142008781,-0.0010733846575021744
1772702180931399200,0.675399169921875,-0.0010749592911452055,-0.0020664529874920845,0.0014257256407290697
1772702180941449200,0.68544921875,0.0018226939719170332,-0.002555042039602995,0.0004467613762244582
1772702180951498200,0.695498291015625,0.0012141617480665445,-0.0010596769861876965,-0.0006941368919797242
1772702180961548000,0.705548095703125,0.003369783516973257,-0.0010097254998981953,0.0012182856444269419
1772702180971597300,0.715597412109375,0.0010922483634203672,-0.0034257452934980392,-0.0006909344810992479
1772702180981647400,0.7256474609375,-0.0003232693998143077,-0.0003930157981812954,0.0007672103820368648
1772702180991696100,0.735696044921875,0.0004828694509342313,0.0019665448926389217,0.0017344704829156399
1772702181001745200,0.7457451171875,-0.00027319788932800293,0.0012341206893324852,-0.0008427007123827934
1772702181011795200,0.755795166015625,-0.002168303355574608,-0.00038055330514907837,-0.001701570232398808
1772702181021844200,0.76584423828125,0.0016171806491911411,0.00018415926024317741,0.001840535900555551
1772702181031894300,0.775894287109375,-0.00029097439255565405,-0.0014195963740348816,-0.0003272772300988436
1772702181041943300,0.785943359375,0.0010442949132993817,0.0018242602236568928,0.002861517481505871
1772702181051993000,0.7959931640625,-0.00010805495548993349,-0.00044342130422592163,0.0020090395119041204
1772702181062042000,0.8060419921875,-0.000507052056491375,-0.0026201633736491203,0.00007382428157143295
1772702181072092400,0.816092529296875,0.0022943271324038506,-0.0013391831889748573,-0.0006779860705137253
1772702181082141200,0.82614111328125,-0.0005772219737991691,-0.0002948255278170109,-0.0006497921422123909
1772702181092191200,0.836191162109375,0.002104581333696842,0.00025112275034189224,-0.001405597198754549
1772702181102240300,0.846240234375,-0.00253545050509274,-0.001265650149434805,-0.0011579350102692842
1772702181112290000,0.8562900390625,-0.002396966330707073,0.00005447864532470703,-0.0009222452063113451
1772702181122339300,0.86633935546875,-0.0003384638112038374,-0.0022330484353005886,-0.0005198589060455561
1772702181132389400,0.876389404296875,-0.00040850485675036907,-0.00017762044444680214,-0.0020868629217147827
1772702181142438100,0.886438232421875,0.001415602513588965,-0.001173487864434719,0.002406070241704583
1772702181152488200,0.89648828125,-0.0003146532690152526,-0.002282428089529276,0.0005975176463834941
1772702181162537200,0.906537109375,0.0019645309075713158,0.00007177237421274185,-0.0010189447784796357
1772702181172587300,0.916587158203125,0.0012707773130387068,0.0024047009646892548,-0.0022738263942301273
1772702181182636300,0.92663623046875,0.0008095150114968419,0.0015575573779642582,-0.001241390942595899
1772702181192686300,0.936686279296875,-0.00014363037189468741,0.00021718814969062805,0.00037674573832191527
1772702181202735000,0.946735107421875,-0.0004993434413336217,-0.0015856740064918995,-0.0016714987577870488
1772702181212785200,0.95678515625,0.002368614776059985,-0.001389665063470602,0.0019285622984170914
1772702181222834200,0.966834228515625,-0.0007232220959849656,0.002779856789857149,0.00004218798130750656
1772702181232883200,0.97688330078125,0.002113843336701393,-0.0015475139953196049,-0.0016699583502486348
1772702181242933200,0.986933349609375,-0.0009312925976701081,-0.00143418088555336,-0.0005602616583928466
1772702181252982000,0.99698193359375,0.0011981710558757186,-0.0010677296668291092,-0.0007746460614725947
1772702181263032300,1.0070322265625,-0.0008298337343148887,-0.0006932700052857399,0.0020986883901059628
1772702181273081300,1.017081298828125,-0.0017243896145373583,0.00042925216257572174,0.0003830800415016711
1772702181283131100,1.027131103515625,0.0009757944499142468,0.00020233774557709694,0.00033209152752533555
1772702181293180200,1.03718017578125,0.000025578599888831377,-0.0018022232688963413,0.00027589884120970964
1772702181303230200,1.047230224609375,-0.0007319307769648731,-0.0014949357137084007,0.0013006459921598434
1772702181313279200,1.057279296875,-0.0008626919589005411,-0.00018759025260806084,0.0019872088450938463
1772702181323329300,1.067329345703125,-0.0006622329237870872,0.0014152461662888527,0.0004089773865416646
1772702181333378300,1.07737841796875,0.00006827217293903232,0.0015084566548466682,-0.00046107734669931233
1772702181343428000,1.087427978515625,-0.0004200635594315827,-0.000739692710340023,0.00026256823912262917
1772702181353477000,1.09747705078125,-0.0008245977223850787,-0.0025501097552478313,0.0026250584051012993
1772702181363527400,1.10752734375,0.000002230750396847725,-0.0013824179768562317,-0.0006683934479951859
1772702181373576200,1.117576171875,-0.0006968490197323263,-0.0007483195513486862,-0.0004223172727506608
1772702181383626200,1.127626220703125,-0.0009353880886919796,-0.000315976794809103,-0.0019300844287499785
1772702181393675000,1.137675048828125,0.00004731828812509775,-0.00005685118958353996,-0.002375098643824458
1772702181403725000,1.14772509765625,0.0011911488836631179,-0.0005026715807616711,0.0008703016210347414
1772702181413774300,1.1577744140625,-0.0005074153305031359,0.00006857654079794884,-0.001049837446771562
1772702181423824400,1.167824462890625,-0.0002823732211254537,-0.001799644436687231,-0.0007881708443164825
1772702181433873200,1.177873046875,0.0017320418264716864,0.0014046705327928066,0.0007612563204020262
1772702181443922200,1.187922119140625,0.0019561895169317722,0.0007081697694957256,-0.000034633121686056256
1772702181453972200,1.19797216796875,-0.0002944478183053434,0.002165717538446188,-0.0011422417592257261
1772702181464021200,1.208021240234375,-0.0002312430297024548,-0.0009362408891320229,-0.000024448265321552753
1772702181474071300,1.2180712890625,-0.0012754686176776886,0.0009090639650821686,-0.0006452311063185334
1772702181484120000,1.2281201171875,0.00007217895472422242,0.0005190009251236916,0.001528239343315363
1772702181494170000,1.238170166015625,-0.0006308955489657819,-0.0017910250462591648,0.003420948050916195
1772702181504219400,1.248219482421875,0.0001210878835991025,-0.0007996070198714733,-0.0007284660823643208
1772702181514269200,1.258269287109375,-0.00158253638073802,0.002048643771559,-0.0002035570505540818
1772702181524318200,1.268318115234375,-0.001238540979102254,0.0023398948833346367,-0.0011508360039442778
1772702181534368300,1.2783681640625,0.0002467039739713073,-0.0006401818245649338,-0.0005953005747869611
1772702181544417000,1.2884169921875,-0.0002067586756311357,0.0013738288544118404,0.0011517030652612448
1772702181554467300,1.29846728515625,0.0005730148986913264,-0.00027040671557188034,0.0001863071956904605
1772702181564516400,1.308516357421875,-0.00011771538993343711,0.001441282220184803,-0.0032867782283574343
1772702181574566100,1.318566162109375,-0.0011217270512133837,0.0001011798158288002,-0.0022257748059928417
1772702181584615700,1.32861572265625,-0.0007454065489582717,-0.00000805174931883812,0.0017355773597955704
1772702181594665500,1.33866552734375,0.0000016101403161883354,-0.001965475268661976,0.0018034880049526691
1772702181604714800,1.34871484375,-0.0012665041722357273,-0.0002961014397442341,0.0009064559126272798
1772702181614764800,1.358764892578125,0.0011537766549736261,0.0008684992790222168,-0.0010959749342873693
1772702181624813600,1.3688134765625,0.0003697469364851713,0.00011880602687597275,0.0013372332323342562
1772702181634863600,1.378863525390625,0.00016654777573421597,-0.0022825663909316063,-0.002046312903985381
1772702181644912600,1.38891259765625,-0.00262187491171062,0.0011078258976340294,-0.001768221496604383
1772702181654961700,1.398961669921875,-0.0007765704649500549,-0.0008112480863928795,0.0018558080773800611
1772702181665011700,1.40901171875,0.0006264756666496396,0.0003909813240170479,-0.000461732066469267
1772702181675060500,1.419060546875,0.00088666653027758,-0.0003991788253188133,-0.003199727972969413
1772702181685110500,1.429110595703125,-0.0005462830886244774,0.0008843280375003815,-0.000057636963902041316
1772702181695159600,1.43915966796875,-0.0008072728523984551,0.0006659487262368202,0.0012257404159754515
1772702181705209900,1.4492099609375,-0.001372807309962809,-0.00002176547423005104,-0.002566131530329585
1772702181715258600,1.459258544921875,0.002289571799337864,-0.0010617300868034363,0.0006480375304818153
1772702181725308700,1.46930859375,-0.0017640383448451757,-0.0002790023572742939,-0.0007637626258656383
1772702181735357400,1.479357421875,-0.0009224793175235391,0.0002461732365190983,0.0008503793505951762
1772702181745407500,1.489407470703125,-0.002736278809607029,0.0004002554342150688,-0.001595042529515922
1772702181755456800,1.499456787109375,0.0027647465467453003,-0.0010463735088706017,0.0012172556016594172
1772702181765506600,1.509506591796875,0.001810163725167513,0.0007911347784101963,0.0020317346788942814
1772702181775555600,1.5195556640625,-0.0016431572148576379,0.0023192563094198704,-0.0011137248948216438
1772702181785605600,1.529605712890625,0.0030852947384119034,-0.00034214695915579796,0.0005030471365898848
1772702181795654700,1.539654541015625,-0.00021595973521471024,-0.0006502745673060417,0.0002915921504609287
1772702181805704700,1.54970458984375,0.0009328704909421504,0.00100358622148633,0.00029222731245681643
1772702181815753700,1.559753662109375,-0.0005015080096200109,0.0011553862132132053,-0.0009991395054385066
1772702181825803500,1.569803466796875,-0.0012178109027445316,-0.0008733067661523819,0.000005122710717841983
1772702181835852500,1.5798525390625,-0.0011765318922698498,0.001067605335265398,-0.00034028926165774465
1772702181845901800,1.58990185546875,0.0017672143876552582,0.00021356437355279922,0.000504064082633704
1772702181855951600,1.59995166015625,0.002344587817788124,-0.004023524932563305,0.0010135268094018102
1772702181866000600,1.610000732421875,-0.0006819820264354348,-0.0014603775925934315,-0.002029093448072672
1772702181876050700,1.62005078125,0.001308198319748044,-0.0017615808174014091,0.000035921490052714944
1772702181886099500,1.630099365234375,-0.0004135312628932297,-0.00046863779425621033,-0.00198017037473619
1772702181896149800,1.640149658203125,0.0018437639810144901,0.0002741175703704357,-0.0015165138756856322
1772702181906198800,1.65019873046875,0.0006403743755072355,-0.0009604212827980518,0.0016813194379210472
1772702181916248600,1.66024853515625,-0.000572162913158536,0.0007056519389152527,-0.0007309718057513237
1772702181926297600,1.670297607421875,-0.00042361579835414886,0.0012748134322464466,-0.0013474738225340843
1772702181936347600,1.68034765625,-0.00039378844667226076,0.00019170576706528664,-0.0020878324285149574
1772702181946396700,1.690396728515625,-0.001265395199880004,-0.0025568529963493347,0.0030519957654178143
1772702181956446700,1.70044677734375,-0.0014496860094368458,-0.001080396119505167,0.0010317218257114291
1772702181966495500,1.71049560546875,-0.0007332675158977509,-0.00040357839316129684,-0.001496844575740397
1772702181976545500,1.720545654296875,-0.00024297961499541998,0.0003817877732217312,-0.0014270697720348835
1772702181986594600,1.730594482421875,0.0010084420209750533,0.0011462983675301075,0.000023400993086397648
1772702181996644600,1.74064453125,-0.0010925258975476027,-0.00037463242188096046,-0.0010724897729232907
1772702182006693600,1.750693603515625,-0.0022007827647030354,0.00021135108545422554,0.00017781919450499117
1772702182016743700,1.76074365234375,-0.0006713292095810175,0.0014254860579967499,-0.00040887517388910055
1772702182026792400,1.77079248046875,0.0018889029743149877,0.0004215124063193798,0.0006851069047115743
1772702182036842500,1.780842529296875,-0.0010277909459546208,-0.0021585579961538315,0.0006150657427497208
1772702182046891800,1.790891845703125,0.0011020731180906296,-0.0011979634873569012,0.0007783478940837085
1772702182056940500,1.8009404296875,-0.0006146005471237004,-0.0016602883115410805,0.0006715551135130227
1772702182066990600,1.810990478515625,-0.0013871944975107908,-0.0006197262555360794,-0.0007544161635451019
1772702182077039600,1.82103955078125,-0.0012918533757328987,-0.0005201241001486778,0.0008796994807198644
1772702182087089700,1.831089599609375,-0.0005985884927213192,0.003281058743596077,0.00019354716641828418
1772702182097138700,1.841138671875,0.0010453808354213834,0.0008573159575462341,-0.00116067030467093
1772702182107188700,1.851188720703125,-0.00035693158861249685,-0.0008919769898056984,-0.001012137159705162
1772702182117237500,1.861237548828125,0.000993823749013245,0.00010750722140073776,0.0013934962917119265
1772702182127287600,1.87128759765625,0.002225518925115466,-0.0012889583595097065,-0.000836801016703248
1772702182137336800,1.8813369140625,-0.000395830487832427,0.0013582240790128708,0.0011949245817959309
1772702182147386600,1.89138671875,0.00041194999357685447,-0.00022302474826574326,0.0016714974772185087
1772702182157435600,1.901435546875,-0.0008714273571968079,0.002324555069208145,0.001687210169620812
1772702182167485700,1.911485595703125,0.00017990759806707501,0.001007645856589079,-0.0002783180680125952
1772702182177534500,1.921534423828125,0.0010198685340583324,0.0007285461761057377,0.0005640398012474179
1772702182187584500,1.93158447265625,0.0014308295212686062,0.0011135051026940346,0.0007712468504905701
1772702182197633500,1.941633544921875,-0.001172676682472229,-0.0016908030956983566,0.0007009394466876984
1772702182207683600,1.95168359375,-0.002205216558650136,0.0007089977152645588,-0.0012417440302670002
1772702182217732600,1.961732666015625,-0.00010238471440970898,-0.001157611608505249,0.0010296660475432873
1772702182227781600,1.97178173828125,0.0006600167835131288,-0.002431224100291729,0.0007770489901304245
1772702182237831700,1.981831787109375,0.0018499171128496528,0.002012526150792837,-0.0027705479878932238
1772702182247880700,1.991880615234375,0.0008359650382772088,-0.0014505698345601559,0.002863791771233082
1772702182257930500,2.001930419921875,0.0006791048217564821,0.001131630502641201,-0.0005466522416099906
1772702182267979500,2.0119794921875,-0.0008953844080679119,0.0013879500329494476,-0.0023812695872038603
1772702182278029600,2.022029541015625,-0.002718318020924926,0.0022670598700642586,-0.0003572672139853239
1772702182288078600,2.03207861328125,0.0008409571601077914,0.0009515564888715744,0.0016840614844113588
1772702182298128600,2.042128662109375,-0.0027897304389625788,0.0028626415878534317,-0.0008110541384667158
1772702182308177700,2.052177734375,-0.0011227636132389307,-0.00044303247705101967,-0.00032369588734582067
1772702182318227500,2.0622275390625,0.00006926734931766987,-0.00037778541445732117,-0.0030305327381938696
1772702182328276700,2.07227685546875,0.000741439638659358,-0.0018897317349910736,0.0024480982683598995
1772702182338326800,2.082326904296875,-0.0004766902420669794,0.000319093931466341,-0.00023583552683703601
1772702182348375600,2.09237548828125,0.0013642070116475224,-0.001692931167781353,0.0005102619179524481
1772702182358425600,2.102425537109375,-0.0005583289894275367,-0.0009517734870314598,0.001563542173244059
1772702182368474600,2.112474609375,0.0002408450236544013,0.0007870174013078213,-0.003481308463960886
1772702182378524400,2.1225244140625,0.00006188062252476811,-0.0011485680006444454,0.0050115124322474
1772702182388573700,2.13257373046875,0.002284396206960082,-0.0022422680631279945,-0.0014500452671200037
1772702182398623700,2.142623779296875,-0.00010792131070047617,-0.000235043466091156,-0.0011400533840060234
1772702182408672500,2.152672607421875,-0.0015487023629248142,-0.000006204936653375626,-0.00042917183600366116
1772702182418721800,2.1627216796875,-0.00009035540279000998,0.002220463939011097,-0.0007804427877999842
1772702182428771800,2.172771728515625,-0.0013934519374743104,-0.0010116235353052616,0.002761367242783308
1772702182438820600,2.182820556640625,-0.0008712060516700149,0.0007979944348335266,-0.002243511378765106
1772702182448870700,2.19287060546875,-0.00023176614195108414,-0.0005612047389149666,0.0012979302555322647
1772702182458919400,2.20291943359375,0.0009892930975183845,0.0010012723505496979,-0.0007500405772589147
1772702182468969500,2.212969482421875,0.0005483834538608789,-0.003322241362184286,-0.0017235275590792298
1772702182479018800,2.223018798828125,-0.0011134291999042034,0.00033907266333699226,-0.00006570987170562148
1772702182489068500,2.233068603515625,-0.000727677543181926,-0.0013522887602448463,0.0025356351397931576
1772702182499117600,2.24311767578125,-0.0002991749788634479,-0.002039650920778513,-0.0013291442301124334
1772702182509167600,2.253167724609375,0.001080356421880424,0.0010893149301409721,0.0016510209534317255
1772702182519216600,2.263216552734375,0.001178627135232091,-0.0006047217175364494,-0.0006635322351939976
1772702182529266700,2.2732666015625,-0.00043932831613346934,-0.0014484352432191372,0.00020169891649857163
1772702182539315700,2.283315673828125,0.001260833814740181,0.001088491640985012,0.0008768102852627635
1772702182549365500,2.293365478515625,0.0006076450808905065,0.00011413218453526497,0.0029083832632750273
1772702182559414500,2.30341455078125,0.00013440137263387442,0.0023016524501144886,0.00017464850679971278
1772702182569464600,2.313464599609375,-0.0004154742928221822,0.0022335113026201725,0.0002034126955550164
1772702182579513600,2.323513671875,-0.0006599525222554803,0.0016705184243619442,-0.0006778272800147533
1772702182589562000,2.33356201171875,-0.0003438439453020692,0.0004297061823308468,-0.0019193182233721018
1772702182599612000,2.34361181640625,-0.0010027099633589387,0.0003293049521744251,-0.0006247556302696466
1772702182609661200,2.3536611328125,-0.0011952288914471865,0.0021896078251302242,-0.0014678818406537175
1772702182619711200,2.363711181640625,-0.0005376942572183907,-0.0015420136041939259,0.0002738255134318024
1772702182629760000,2.373760009765625,-0.0004599156673066318,0.00022173812612891197,0.0004070555150974542
1772702182639810000,2.38381005859375,-0.0011430166196078062,-0.00036255968734622,-0.0017301312182098627
1772702182649859000,2.393859130859375,-0.0014189932262524962,0.000245705246925354,0.0024762286338955164
1772702182659909000,2.4039091796875,-0.003793733660131693,-0.002465659286826849,-0.002175514819100499
1772702182669958100,2.413958251953125,-0.0028081275522708893,-0.0013273372314870358,0.0005598544958047569
1772702182680008200,2.42400830078125,0.0010846147779375315,0.001904408447444439,0.002715150825679302
1772702182690057000,2.434056884765625,0.00037871452514082193,0.0009949877858161926,-0.00011170614743605256
1772702182700107000,2.44410693359375,0.000575255835428834,-0.0013416698202490807,0.0011389143764972687
1772702182710156000,2.454156005859375,-0.002470318228006363,-0.00033472105860710144,-0.0013785922201350331
1772702182720206000,2.4642060546875,-0.002203735988587141,-0.000039909034967422485,0.001138627645559609
1772702182730255000,2.474255126953125,0.0012315957574173808,-0.0004941797815263271,0.0027544531039893627
1772702182740305200,2.48430517578125,0.0010579576482996345,0.0012078466825187206,0.000622060033492744
1772702182750354200,2.494354248046875,0.0019625448621809483,-0.0009382669813930988,-0.000049972208216786385
1772702182760403200,2.5044033203125,0.0001934068277478218,-0.0008378657512366772,0.0007766729686409235
1772702182770453000,2.514452880859375,-0.00016588810831308365,-0.001238466240465641,0.0003960865724366158
1772702182780502000,2.524501953125,0.001055970205925405,-0.00034071458503603935,-0.0013416260480880737
1772702182790552000,2.534552001953125,0.0011790702119469643,-0.0014349357225000858,0.0005637916037812829
1772702182800601000,2.54460107421875,-0.0017349605914205313,0.0003403271548449993,-0.0007052046712487936
1772702182810651100,2.554651123046875,0.0007993777398951352,0.0003149183467030525,-0.0015125430654734373
1772702182820700200,2.5647001953125,-0.0013825501082465053,0.00007257051765918732,-0.0009207887342199683
1772702182830750000,2.57475,0.0005410953890532255,-0.00014248816296458244,-0.001078241621144116
1772702182840799000,2.584799072265625,0.0001035379827953875,-0.0007499554194509983,0.0011787874391302466
1772702182850849000,2.59484912109375,-0.0002223821938969195,0.001260638702660799,-0.0013565036933869123
1772702182860898000,2.60489794921875,0.001218387857079506,-0.0009998520836234093,0.0005772175500169396
1772702182870948000,2.614947998046875,0.0011357723269611597,0.0017884541302919388,-0.0006095058633945882
1772702182880997000,2.6249970703125,-0.003352719359099865,-0.00003554485738277435,-0.0027962273452430964
1772702182891047000,2.635046875,0.0011676945723593235,-0.001646346878260374,-0.0002889663155656308
1772702182901096200,2.64509619140625,0.0030590714886784554,-0.000638606958091259,0.0005041230469942093
1772702182911146200,2.655146240234375,-0.0020160782150924206,0.000032436102628707886,-0.0010477181058377028
1772702182921195000,2.665195068359375,-0.0027780085802078247,0.0010939720086753368,-0.0012170951813459396
1772702182931245000,2.6752451171875,0.0014357122126966715,0.000015121884644031525,0.0021598460152745247
1772702182941294000,2.685294189453125,0.0023957816883921623,-0.003284268081188202,-0.0010596495121717453
1772702182951343000,2.695343017578125,0.0002967159962281585,0.0013711880892515182,0.0023926610592752695
1772702182961393200,2.70539306640625,0.002320984611287713,-0.0019910531118512154,-0.002084112726151943
1772702182971442000,2.71544189453125,-0.0006436804542317986,-0.0004540868103504181,0.0010504898382350802
1772702182981492000,2.725491943359375,0.0017020318191498518,0.001963264774531126,0.00029015736072324216
1772702182991541200,2.735541259765625,0.0002994438982568681,-0.001478901132941246,-0.00029016140615567565
1772702183001591000,2.745591064453125,-0.0005969761405140162,0.0003544185310602188,-0.0016797989374026656
1772702183011640000,2.75564013671875,-0.0007042385404929519,0.0006058607250452042,0.0010055453749373555
1772702183021690000,2.765690185546875,0.0014097787206992507,0.0011456841602921486,0.002283596433699131
1772702183031739000,2.77573876953125,-0.00042455457150936127,-0.0013546361587941647,0.0002571321092545986
1772702183041789000,2.785788818359375,0.00026573677314445376,0.00015670759603381157,0.00035087537253275514
1772702183051838200,2.795838134765625,0.00012143119238317013,-0.0009010112844407558,-0.001993823330849409
1772702183061888000,2.805887939453125,-0.002190725179389119,0.001529389526695013,-0.000316298333927989
1772702183071937000,2.81593701171875,-0.0010131284361705184,0.0010529267601668835,-0.0008189330110326409
1772702183081987000,2.825987060546875,0.00029661424923688173,-0.0004477645270526409,0.00115340412594378
1772702183092036000,2.8360361328125,-0.0006273449980653822,-0.0012482525780797005,0.0014556256355717778
1772702183102086100,2.846086181640625,-0.00005396647611632943,-0.0025369562208652496,-0.0017934308853000402
1772702183112135200,2.85613525390625,-0.001361618167720735,0.002259405329823494,0.00010535023466218263
1772702183122184000,2.866183837890625,-0.00025560741778463125,0.001115577295422554,-0.0003599039919208735
1772702183132234000,2.87623388671875,0.0007732724188826978,-0.0006781402043998241,0.000035695411497727036
1772702183142283000,2.886282958984375,-0.0006927977665327489,-0.0012115715071558952,0.00046952435513958335
1772702183152333000,2.8963330078125,0.0005867556319572031,0.00016606692224740982,0.00045296590542420745
1772702183162382000,2.906382080078125,0.0024208747781813145,-0.00004885019734501839,0.0008551032515242696
1772702183172432100,2.91643212890625,-0.0019643492996692657,0.000896599143743515,0.001039878698065877
1772702183182481200,2.926481201171875,0.00009986682562157512,-0.001386262010782957,-0.0009220720967277884
1772702183192531200,2.93653125,-0.00038934219628572464,0.0012595686130225658,-0.0001043859519995749
1772702183202580000,2.946580078125,-0.00007056188769638538,-0.00006189150735735893,0.001617880305275321
1772702183212630000,2.956630126953125,0.0019293082877993584,0.000863619614392519,0.0008777783950790763
1772702183222679000,2.966678955078125,0.0010973368771374226,0.0002569514326751232,0.0005888254381716251
1772702183232729000,2.97672900390625,0.0022397555876523256,-0.0011634319089353085,-0.0008288377430289984
1772702183242778000,2.986778076171875,0.0022397555876523256,-0.0022750352509319782,0.0004516101907938719
1772702183252828200,2.996828125,-0.0016876556910574436,-0.0013619568198919296,0.0009227053378708661
1772702183262877000,3.006876953125,0.001711869495920837,-0.0007217330858111382,-0.001002227421849966
1772702183272927000,3.016927001953125,0.0003308383165858686,-0.00170530891045928,-0.00038515651249326766
1772702183282976300,3.026976318359375,0.0005377659108489752,0.001760528888553381,0.0007469533011317253
1772702183293025000,3.03702490234375,0.0019150159787386656,-0.0022267731837928295,0.0008167065680027008
1772702183303075000,3.047074951171875,0.001347762648947537,-0.00006641680374741554,0.004039397928863764
1772702183313124000,3.0571240234375,0.0007310733199119568,-0.0011327913962304592,0.0008722710772417486
1772702183323174000,3.067173828125,-0.0003821279387921095,-0.0014915191568434238,0.0029668472707271576
1772702183333223200,3.07722314453125,0.001867059152573347,-0.001395069994032383,0.0005635475972667336
1772702183343273200,3.087273193359375,-0.0004855773877352476,-0.002726650331169367,-0.0002607007627375424
1772702183353322000,3.097322021484375,0.000054049654863774776,-0.0005904356949031353,-0.0009401205461472273
1772702183363372000,3.1073720703125,-0.0009257273050025105,0.0012809676118195057,-0.001147847156971693
1772702183373421300,3.11742138671875,-0.0012759860837832093,0.0009210631251335144,-0.002660531783476472
1772702183383471000,3.12747119140625,0.0008031437173485756,-0.0033282763324677944,0.0029278453439474106
1772702183393520000,3.13752001953125,-0.0003993832506239414,0.0003506266511976719,-0.0033584842458367348
1772702183403570200,3.147570068359375,-0.001136280014179647,-0.0004025152884423733,0.0020453359466046095
1772702183413619000,3.157618896484375,0.0010718898847699165,-0.001619839109480381,0.000025317305698990822
1772702183423669000,3.1676689453125,0.0001339245936833322,0.002435622736811638,0.0014130905037745833
1772702183433718000,3.177718017578125,-0.0002594870747998357,0.0015802644193172455,-0.0014418477658182383
1772702183443768000,3.18776806640625,0.0036146133206784725,0.0008409703150391579,0.001685768598690629
1772702183453817000,3.197817138671875,-0.00004035327583551407,0.0012836935929954052,0.00004897359758615494
1772702183463866000,3.2078662109375,-0.0030369418673217297,-0.00042419182136654854,0.0004140929668210447
1772702183473916200,3.217916259765625,0.0010747109772637486,-0.000039400067180395126,0.002734255278483033
1772702183483965200,3.227965087890625,-0.0017311954870820045,0.000993640162050724,-0.001253295922651887
1772702183494015000,3.238014892578125,0.0024718265049159527,-0.0023827217519283295,0.000852589204441756
1772702183504064000,3.24806396484375,-0.00012049439828842878,-0.000043134670704603195,-0.001450246199965477
1772702183514114000,3.258114013671875,-0.00029664929024875164,0.0018380554392933846,-0.0016913346480578184
1772702183524163000,3.2681630859375,-0.0005014464259147644,-0.0009318985976278782,0.00033080345019698143
1772702183534213000,3.278213134765625,0.0006705386331304908,-0.00030540768057107925,0.00003073897096328437
1772702183544262100,3.28826220703125,0.0012385909212753177,-0.0007027513347566128,-0.0010116222547367215
1772702183554312000,3.29831201171875,-0.0025657769292593002,-0.0000927383080124855,-0.0014839514624327421
1772702183564361200,3.308361328125,-0.00009915698319673538,0.00041406136006116867,-0.0031774556264281273
1772702183574411300,3.318411376953125,0.0006491924868896604,-0.0014831675216555595,0.0018110715318471193
1772702183584460800,3.328460693359375,-0.0000213914318010211,-0.0011944808065891266,0.00016790124936960638
1772702183594510800,3.3385107421875,0.0003917713765986264,0.000009970273822546005,0.002947747241705656
1772702183604559600,3.3485595703125,0.00032439344795420766,-0.0027330853044986725,0.00045236540609039366
1772702183614609700,3.358609619140625,0.00002823991235345602,-0.0005266061052680016,-0.000626659020781517
1772702183624659000,3.368658935546875,0.0020471822936087847,0.0003517046570777893,0.0012857569381594658
1772702183634707700,3.378707763671875,-0.0010922299697995186,0.0006891395896673203,-0.000307551643345505
1772702183644757800,3.3887578125,0.0012223232770338655,0.00027768081054091454,-0.000661485712043941
1772702183654806500,3.398806640625,0.0008027857402339578,-0.00013598334044218063,-0.0001603408600203693
1772702183664856600,3.408856689453125,-0.000025190995074808598,0.002323712222278118,0.0016535380855202675
1772702183674905900,3.41890576171875,0.000477256893645972,0.0006162757053971291,-0.0032342984341084957
1772702183684955600,3.42895556640625,-0.0005810833536088467,-0.0009608478285372257,0.0023444914259016514
1772702183695004700,3.439004638671875,0.001950789475813508,-0.0015414315275847912,-0.000834645819850266
1772702183705054700,3.4490546875,-0.0018399539403617382,0.00015233876183629036,-0.0004580748500302434
1772702183715103700,3.459103759765625,-0.00023461808450520039,-0.0003429632633924484,-0.0009229634306393564
1772702183725153800,3.46915380859375,-0.00011078105308115482,-0.0027054534293711185,0.0018666977994143963
1772702183735202800,3.479202880859375,0.000053983996622264385,-0.0013603903353214264,-0.00040497106965631247
1772702183745252600,3.489252685546875,0.0002657052827998996,0.000882523600012064,-0.0005186880589462817
1772702183755301600,3.499301513671875,0.0001933877356350422,-0.0012296359054744244,-0.0008895532228052616
1772702183765351700,3.5093515625,-0.00008917367085814476,-0.0008727721869945526,0.0017672162503004074
1772702183775400700,3.519400634765625,-0.0013822244945913553,0.0006802687421441078,0.0009719025692902505
1772702183785450800,3.52945068359375,0.0012244776589795947,-0.0008816751651465893,0.002485110657289624
1772702183795499800,3.539499755859375,-0.0024534519761800766,0.0011428343132138252,-0.002160080475732684
1772702183805548500,3.549548583984375,0.0013183830305933952,0.00028795981779694557,-0.0011688519734889269
1772702183815598800,3.559598876953125,-0.0010056465398520231,-0.0004579918459057808,0.0013328182976692915
1772702183825647600,3.569647705078125,-0.0012831480707973242,-0.001269191037863493,0.0011669034138321877
1772702183835697700,3.57969775390625,0.001290803076699376,0.000025232788175344467,-0.0008248793892562389
1772702183845746700,3.58974658203125,0.0004005082882940769,0.004307329189032316,-0.0030475538223981857
1772702183855796700,3.599796630859375,0.0019935760647058487,-0.0007596630603075027,-0.002043127315118909
1772702183865845800,3.609845703125,-0.00016092124860733747,-0.0026656873524188995,0.001249338616617024
1772702183875895800,3.619895751953125,0.0006297296495176852,0.00045998021960258484,0.00017851356824394315
1772702183885944600,3.629944580078125,-0.0002994472160935402,-0.0009951712563633919,-0.002212472492828965
1772702183895994600,3.63999462890625,-0.000024859560653567314,-0.0003676014021039009,0.002144903875887394
1772702183906043600,3.650043701171875,0.002141621895134449,-0.00026906421408057213,-0.00003409461351111531
1772702183916093700,3.66009375,-0.0025720479898154736,0.00034042075276374817,-0.0021073766984045506
1772702183926142700,3.670142822265625,0.0007563706603832543,-0.001379714347422123,-0.0024288201238960028
1772702183936192800,3.68019287109375,0.00007203983841463923,0.000457247719168663,-0.0024848729372024536
1772702183946241500,3.690241455078125,0.0002163831377401948,-0.0005608792416751385,0.0030044345185160637
1772702183956291600,3.70029150390625,0.0016804300248622894,0.00008516944944858551,-0.003133645048364997
1772702183966340900,3.7103408203125,-0.0002772596199065447,-0.0006120461039245129,-0.00008219515439122915
1772702183976389600,3.7203896484375,0.00005369470454752445,0.0014749327674508095,-0.0022893608547747135
1772702183986439700,3.730439697265625,0.0025051343254745007,0.0011588148772716522,-0.002449417021125555
1772702183996488700,3.74048876953125,-0.000060979509726166725,-0.00024369172751903534,-0.0011878458317369223
1772702184006538800,3.750538818359375,-0.0014351706486195326,0.002018663100898266,-0.001422736793756485
1772702184016587800,3.760587890625,0.002157894428819418,-0.0015375311486423016,0.001726616406813264
1772702184026637800,3.770637939453125,0.0009445582400076091,0.001487020868808031,0.002093067392706871
1772702184036686600,3.7806865234375,-0.0005319832125678658,0.00015297532081604004,0.001959580695256591
1772702184046736600,3.790736572265625,0.00047415902372449636,0.0012568552047014236,0.0022719695698469877
1772702184056786000,3.800785888671875,0.0016798163997009397,-0.0019351430237293243,0.00014654446567874402
1772702184066835700,3.810835693359375,-0.00010583305265754461,-0.0010049007833003998,0.000547350209672004
1772702184076884700,3.820884765625,0.0019201054237782955,-0.0000013229437172412872,0.0019371339585632086
1772702184086934800,3.830934814453125,0.0010295443935319781,-0.001642895396798849,-0.0010735695250332355
1772702184096983600,3.840983642578125,-0.0024838168174028397,-0.0013005672954022884,-0.002612882060930133
1772702184107033900,3.851033935546875,-0.0025714347139000893,-0.001689388882368803,0.00140529521740973
1772702184117082600,3.86108251953125,-0.0016177674988284707,-0.00014682579785585403,-0.0013643695274367929
1772702184127132700,3.871132568359375,0.0009686945704743266,0.0011104526929557323,0.0007981171947903931
1772702184137181700,3.881181640625,0.00104944733902812,0.0013949815183877945,-0.0005182668101042509
1772702184147230700,3.891230712890625,0.0003152138087898493,-0.00023753661662340164,0.0006742967525497079
1772702184157280800,3.90128076171875,0.002299895044416189,-0.001013406552374363,-0.0014135070377960801
1772702184167329800,3.911329833984375,0.0012886928161606193,-0.0014877156354486942,0.0015095785493031144
1772702184177379600,3.921379638671875,0.0010874213185161352,0.00040486035868525505,0.0014809283893555403
1772702184187428600,3.9314287109375,-0.0000018116552382707596,-0.00040687108412384987,-0.00065892148995772
1772702184197478700,3.941478759765625,0.0010333888931199908,-0.0019096354953944683,-0.0015416579553857446
1772702184207527700,3.951527587890625,-0.002072922419756651,-0.001473942305892706,-0.0022402051836252213
1772702184217577700,3.96157763671875,0.0004370197420939803,-0.0006534452550113201,-0.0007286462350748479
1772702184227626800,3.971626708984375,-0.00070041639264673,0.0008762744255363941,-0.0011275878641754389
1772702184237676500,3.981676513671875,0.0007806034409441054,0.0014533228240907192,0.0012591882841661572
1772702184247725800,3.991725830078125,0.00028339127311483026,-0.0024106577038764954,0.0010245637968182564
1772702184257775900,4.00177587890625,-0.0011460118694230914,0.0018637264147400856,-0.0007227759924717247
1772702184267824600,4.01182470703125,-0.0000780841801315546,0.0004961937665939331,-0.000003722438123077154
1772702184277874700,4.021874755859375,-0.00024242582730948925,-0.0010446477681398392,0.001212607603520155
1772702184287923700,4.031923828125,0.0022739949636161327,0.0008485936559736729,-0.0011030109599232674
1772702184297972700,4.04197265625,-0.002167604397982359,0.00010265083983540535,0.00024714236496947706
1772702184308022800,4.052022705078125,-0.0015857036923989654,-0.001412687823176384,-0.0011630014050751925
1772702184318071600,4.062071533203125,-0.0028374171815812588,0.00015415484085679054,0.00043989100959151983
1772702184328121600,4.07212158203125,0.0024604094214737415,-0.0006746212020516396,-0.0005433480837382376
1772702184338171000,4.0821708984375,-0.00195467472076416,-0.0003283452242612839,0.0005518139223568141
1772702184348220700,4.092220703125,-0.0014199118595570326,0.0005539599806070328,-0.0006412822403945029
1772702184358269700,4.102269775390625,0.0008734355797059834,0.0024662911891937256,0.004690340720117092
1772702184368319700,4.11231982421875,0.0012393539072945714,-0.0003979383036494255,-0.000988583778962493
1772702184378368500,4.122368408203125,0.00039987132186070085,-0.0004288055934011936,-0.00039424392161890864
1772702184388418600,4.13241845703125,0.0009937562281265855,-0.000020809471607208252,-0.0011495164362713695
1772702184398467800,4.1424677734375,-0.00010352616664022207,-0.0005628596991300583,-0.00098671845626086
1772702184408517600,4.152517578125,-0.0009325682185590267,-0.0001902836374938488,0.0016277068061754107
1772702184418566700,4.162566650390625,0.00044336350401863456,-0.0009748274460434914,0.00046019116416573524
1772702184428616700,4.17261669921875,0.0007677365792915225,0.001143717672675848,0.0013598069781437516
1772702184438665700,4.182665771484375,-0.0015366466250270605,-0.0013221069239079952,-0.002372351009398699
1772702184448714800,4.19271484375,0.0002125175087712705,-0.000857118982821703,0.0002836194762494415
1772702184458764800,4.202764892578125,0.00027702993247658014,-0.0005324315279722214,-0.003393730614334345
1772702184468813600,4.2128134765625,0.004478965420275927,-0.0012176628224551678,0.0002622570318635553
1772702184478863600,4.222863525390625,0.0009859349811449647,0.001361353788524866,0.001946637756191194
1772702184488913000,4.232912841796875,-0.0005989121273159981,-0.0008040629327297211,0.0009207880939356983
1772702184498962700,4.242962646484375,-0.001053118845447898,0.00017724093049764633,-0.00037512474227696657
1772702184509011700,4.25301171875,0.0023152471985667944,-0.000199862290173769,-0.0018766149878501892
1772702184519061800,4.263061767578125,-0.00018432235810905695,-0.0007681045681238174,-0.0021368111483752728
1772702184529110800,4.27311083984375,0.0008860020898282528,-0.002182509284466505,-0.0013794079422950745
1772702184539160800,4.283160888671875,-0.00044576486106961966,-0.0011393516324460506,0.0009185427334159613
1772702184549209600,4.293209716796875,-0.0005387092242017388,-0.001566256396472454,-0.002101748250424862
1772702184559259600,4.303259765625,-0.0000951405381783843,0.0016479943878948689,0.0017632893286645412
1772702184569308700,4.31330859375,0.0014665371272712946,0.0012706243433058262,0.0006743228295817971
1772702184579358700,4.323358642578125,-0.00026687141507864,0.001716491300612688,-0.0012948457151651382
1772702184589407500,4.333407470703125,0.0004194252542220056,-0.0011581252329051495,-0.00056833541020751
1772702184599457500,4.34345751953125,0.00030387798324227333,-0.0014634421095252037,0.0019336165860295296
1772702184609506300,4.35350634765625,0.0021547749638557434,-0.0013143052347004414,-0.0012256914051249623
1772702184619555600,4.3635556640625,0.003145860508084297,-0.0006650760769844055,0.0006517537985928357
1772702184629605600,4.373605712890625,-0.00019853725098073483,0.0014428156428039074,-0.002480390015989542
1772702184639654400,4.383654296875,-0.00013934995513409376,0.0030929800122976303,-0.0009545071516185999
1772702184649704400,4.393704345703125,0.000048935587983578444,-0.000251151155680418,0.0018817593809217215
1772702184659753500,4.40375341796875,-0.0013930794084444642,-0.0007507237605750561,0.0025799500290304422
1772702184669803300,4.41380322265625,-0.0006607100367546082,0.0014365301467478275,0.00014555452798958868
1772702184679852500,4.4238525390625,0.0003533608396537602,-0.0016084141097962856,0.00046289735473692417
1772702184689902600,4.433902587890625,-0.00030417367815971375,-0.00022809766232967377,0.0008834104519337416
1772702184699951400,4.443951416015625,0.0007368505466729403,0.0032952800393104553,-0.0008645665366202593
1772702184710001400,4.45400146484375,0.0017488517332822084,-0.0010360851883888245,0.0027139231096953154
1772702184720050700,4.46405078125,-0.003127097152173519,0.0012500863522291183,0.001470566843636334
1772702184730100500,4.4741005859375,0.001223442959599197,-0.0014117429964244366,-0.0007198831299319863
1772702184740149500,4.4841494140625,-0.0011382544180378318,-0.0002428651787340641,-0.0008643708424642682
1772702184750199600,4.494199462890625,0.001990959979593754,0.001064480748027563,0.0010427187662571669
1772702184760248300,4.504248291015625,-0.0008951893541961908,-0.00042806193232536316,-0.0018075827974826097
1772702184770297600,4.514297607421875,0.00025183410616591573,0.0016438770107924938,-0.0005833276081830263
1772702184780347400,4.524347412109375,0.0013547427952289581,-0.0002964879386126995,-0.0018146273214370012
1772702184790396400,4.534396484375,0.0007701788563281298,0.00040259212255477905,-0.002161903539672494
1772702184800446500,4.544446533203125,0.0004361439496278763,0.00018507614731788635,-0.0003107277734670788
1772702184810495500,4.55449560546875,-0.0001473546726629138,0.0006210356950759888,0.002401169156655669
1772702184820545500,4.564545654296875,-0.00005683652125298977,0.0013867071829736233,0.0008640971500426531
1772702184830594600,4.574594482421875,0.0011341290082782507,-0.0018176082521677017,0.0022284346632659435
1772702184840644400,4.584644287109375,-0.00023138197138905525,-0.002045960631221533,-0.00018962344620376825
1772702184850693400,4.594693359375,0.00008367002010345459,-0.0018366361036896706,-0.00014408337301574647
1772702184860743400,4.604743408203125,0.0012733712792396545,-0.0016575274057686329,-0.0037117679603397846
1772702184870792400,4.61479248046875,-0.0011146852048113942,-0.0012572542764246464,0.0012038949644193053
1772702184880842500,4.624842529296875,-0.00210082670673728,0.0003629429265856743,0.0018745997222140431
1772702184890891500,4.6348916015625,0.0009018874261528254,0.002258314285427332,0.002157427603378892
1772702184900941300,4.64494140625,0.0015639206394553185,-0.0007688086479902267,-0.0008920982945710421
1772702184910990600,4.654990478515625,0.0015559311723336577,0.000960115808993578,0.0003145799564663321
1772702184921040600,4.66504052734375,-0.0010085322428494692,-0.001673480961471796,-0.0006690602749586105
1772702184931089400,4.67508935546875,-0.0021017598919570446,0.0011595897376537323,-0.0012933053076267242
1772702184941138400,4.685138427734375,-0.00011797680053859949,0.0026322053745388985,0.00007547636050730944
1772702184951188500,4.6951884765625,-0.0010972210438922048,-0.001273320522159338,0.000505576841533184
1772702184961237500,4.705237548828125,-0.0002232160186395049,0.0015573296695947647,-0.0021135034039616585
1772702184971287600,4.71528759765625,-0.0023707891814410686,0.00004891492426395416,-0.00007618527160957456
1772702184981336300,4.72533642578125,-0.00015393819194287062,0.0024005668237805367,-0.0005528190522454679
1772702184991386400,4.735386474609375,-0.00268154451623559,-0.0015331883914768696,-0.00009289113222621381
1772702185001435400,4.745435302734375,-0.0030934365931898355,0.0008093249052762985,-0.0007459219195879996
1772702185011485400,4.7554853515625,0.0014384647365659475,0.0009768381714820862,0.0009909917134791613
1772702185021534500,4.765534423828125,-0.002698251511901617,0.0004964713007211685,0.0005860008532181382
1772702185031584500,4.77558447265625,0.003216895740479231,-0.0002715843729674816,0.0006624336238019168
1772702185041633300,4.78563330078125,-0.0008144361199811101,-0.0012978678569197655,-0.0019752567168325186
1772702185051683300,4.795683349609375,-0.002724455203860998,0.0005873837508261204,0.0035249697975814342
1772702185061732600,4.805732666015625,0.0005026793223805726,0.0017498140223324299,0.000565700582228601
1772702185071782400,4.815782470703125,0.0008523523574694991,-0.0017985822632908821,0.002110067754983902
1772702185081831400,4.82583154296875,-0.00019981595687568188,-0.0004575098864734173,0.0008596524130553007
1772702185091880400,4.83588037109375,-0.0008032883051782846,0.0015659602358937263,0.0015044037718325853
1772702185101930500,4.845930419921875,-0.002131038811057806,-0.000022191088646650314,-0.000031908624805510044
1772702185111979500,4.8559794921875,-0.0004625684814527631,-0.0009154155850410461,0.00028074649162590504
1772702185122029600,4.866029541015625,0.0020014424808323383,0.0013591605238616467,0.0014887010911479592
1772702185132078300,4.876078369140625,0.0026123714633286,-0.00045019108802080154,-0.001141703105531633
1772702185142128400,4.88612841796875,0.00016187212895601988,0.0012035774998366833,-0.0012241625227034092
1772702185152177700,4.896177734375,0.0005075504304841161,-0.004079334903508425,-0.0005272133275866508
1772702185162227500,4.9062275390625,0.0014141076244413853,0.002364116720855236,-0.0013566607376560569
1772702185172276500,4.9162763671875,-0.00022799742873758078,-0.0011752238497138023,-0.0020834372844547033
1772702185182326500,4.926326416015625,0.0010848806705325842,0.00026605045422911644,0.00271581020206213
1772702185192375300,4.936375244140625,-0.0003178062615916133,0.0011920309625566006,-0.0022749537602066994
1772702185202425600,4.946425537109375,0.0007953103631734848,0.0010792776010930538,0.0004924446111544967
1772702185212474400,4.956474365234375,0.00037106883246451616,0.0012297467328608036,-0.00012114772107452154
1772702185222524400,4.9665244140625,0.0014149534981697798,-0.0014406144618988037,0.0008846740238368511
1772702185232573400,4.976573486328125,-0.0013057318283244967,-0.00011808844283223152,-0.0011830042349174619
1772702185242622500,4.98662255859375,-0.0008789298590272665,0.0019033458083868027,0.00031833769753575325
1772702185252672500,4.996672607421875,-0.0007239338010549545,-0.0009632809087634087,0.0006432433146983385
1772702185262721500,5.006721435546875,0.000013138866052031517,0.00005182437598705292,-0.001099752145819366
1772702185272771300,5.016771240234375,0.0003945035277865827,0.0007849927060306072,-0.0004209124017506838
1772702185282820400,5.0268203125,0.001045721466653049,0.0017434973269701004,0.0018643218791112304
1772702185292870400,5.036870361328125,0.003182642161846161,0.0022441716864705086,-0.003375713713467121
1772702185302919400,5.04691943359375,0.0012679927749559283,-0.0013284762389957905,0.001604900462552905
1772702185312969500,5.056969482421875,0.0003782307030633092,-0.0028739087283611298,0.00002724383375607431
1772702185323018500,5.0670185546875,-0.0011926896404474974,0.001558129210025072,0.0024293558672070503
1772702185333068300,5.077068359375,-0.0005759014748036861,0.0006494582630693913,-0.0006231592851690948
1772702185343117600,5.08711767578125,-0.0008765347301959991,-0.0008889609016478062,0.000054675183491781354
1772702185353167600,5.097167724609375,-0.0005574880633503199,0.0017401115037500858,-0.00009925552876666188
1772702185363216400,5.10721630859375,0.0021931203082203865,-0.001048404723405838,0.0002207545912824571
1772702185373266400,5.117266357421875,-0.0004167775623500347,-0.0009280298836529255,0.0038035050965845585
1772702185383315500,5.1273154296875,-0.0018220347119495273,0.00117489043623209,-0.00017163710435852408
1772702185393364500,5.137364501953125,0.002176967915147543,0.0008318759500980377,0.00032530876342207193
1772702185403414500,5.14741455078125,0.0006517326692119241,-0.0010238033719360828,-0.00026832104776985943
1772702185413463300,5.15746337890625,0.001695958198979497,0.0017613302916288376,0.0010416879085823894
1772702185423513300,5.167513427734375,-0.0017830694559961557,0.0023169973865151405,-0.00022240771795623004
1772702185433562600,5.177562744140625,-0.002748465398326516,0.00014252634719014168,-0.001714044134132564
1772702185443612400,5.1876123046875,-0.0011712961131706834,-0.00031973328441381454,0.0005978496046736836
1772702185453661400,5.197661376953125,-0.00009750958997756243,0.0004121032543480396,-0.003087432589381933
1772702185463711500,5.20771142578125,0.0023569767363369465,-0.0018229898996651173,0.0027611481491476297
1772702185473760300,5.21776025390625,0.0006546842632815242,-0.002408885397017002,-0.0005635421257466078
1772702185483810300,5.227810302734375,-0.0005079458351247013,-0.00012312410399317741,-0.003275016788393259
1772702185493859600,5.237859619140625,-0.0007934367167763412,0.0034718774259090424,0.00018789149180520326
1772702185503909400,5.247909423828125,-0.0005249468376860023,0.0002465187571942806,0.00039355672197416425
1772702185513958400,5.25795849609375,0.0013429943937808275,-0.00022326316684484482,0.0008175319526344538
1772702185524008400,5.268008544921875,0.0009259110665880144,-0.0009749880991876125,0.002131118206307292
1772702185534057500,5.278057373046875,-0.0032070488668978214,0.002690587192773819,-0.0003027447091881186
1772702185544106500,5.2881064453125,-0.0013523425441235304,0.0009300564415752888,0.0008297794265672565
1772702185554156500,5.298156494140625,-0.0010186485014855862,-0.002534449566155672,0.002480673138052225
1772702185564205300,5.308205322265625,-0.0005501781706698239,-0.0005137869156897068,-0.0018403755966573954
1772702185574255400,5.31825537109375,0.0004242724389769137,0.0010324441827833652,-0.0011570085771381855
1772702185584304600,5.3283046875,0.0006021335138939321,-0.0000036032870411872864,0.0005792531301267445
1772702185594354200,5.338354248046875,0.000729965278878808,-0.0009594117291271687,0.0018562389304861426
1772702185604403200,5.3484033203125,-0.0022351727820932865,-0.00004911981523036957,-0.0007797505240887403
1772702185614453200,5.358453369140625,0.0007558235665783286,-0.0008251648396253586,0.0015105680795386434
1772702185624502300,5.368502197265625,0.003404992399737239,0.002057630568742752,-0.0008696668082848191
1772702185634552300,5.37855224609375,0.0007058786577545106,-0.0012225848622620106,0.0013910905690863729
1772702185644601000,5.38860107421875,0.000246513809543103,0.0014733783900737762,-0.0016277782851830125
1772702185654651100,5.398651123046875,-0.0025460768956691027,0.00007255608215928078,0.0002508155594114214
1772702185664700200,5.4087001953125,0.001333395834080875,-0.0019461004994809628,0.001047532306984067
1772702185674750200,5.418750244140625,-0.00002108793705701828,0.002569288946688175,0.00036150196683593094
1772702185684799200,5.42879931640625,0.001068659359589219,-0.0012820158153772354,-0.000021353713236749172
1772702185694849300,5.438849365234375,-0.000024302047677338123,-0.00010409997776150703,-0.0015622586943209171
1772702185704898000,5.44889794921875,-0.0018546625506132841,0.00011944584548473358,0.0014964380534365773
1772702185714947300,5.458947265625,-0.0011667681392282248,-0.00031145336106419563,0.0001819017343223095
1772702185724997400,5.468997314453125,-0.0012868670746684074,0.0015622219070792198,-0.0008221795433200896
1772702185735046100,5.479046142578125,0.000022875494323670864,-0.0011677849106490612,-0.0008397563942708075
1772702185745096200,5.48909619140625,0.0019677935633808374,0.0009098667651414871,0.00045061210403218865
1772702185755145200,5.499145263671875,-0.0005877758958376944,0.002052363008260727,0.0029281508177518845
1772702185765195000,5.509195068359375,0.00020936870714649558,0.0004456047900021076,-0.00010336790001019835
1772702185775244300,5.519244384765625,-0.0013653583591803908,-0.0011400412768125534,-0.00021042698062956333
1772702185785294300,5.52929443359375,0.0010336600244045258,-0.0007334002293646336,-0.0006078279693610966
1772702185795343000,5.539343017578125,-0.002777057234197855,0.00005489541217684746,-0.0021463362500071526
1772702185805393200,5.54939306640625,-0.0007728873752057552,0.002487270627170801,-0.0006240688962861896
1772702185815442400,5.5594423828125,-0.0022834320552647114,-0.00039240531623363495,-0.0019183651311323047
1772702185825492200,5.5694921875,0.0009055783157236874,-0.0012861662544310093,0.0005767719121649861
1772702185835541200,5.579541259765625,0.0012270219158381224,0.00041958875954151154,0.0010329714277759194
1772702185845591300,5.58959130859375,0.0008957944810390472,0.0009933463297784328,-0.00006761230179108679
1772702185855640000,5.59964013671875,-0.0008533697109669447,-0.0009832517243921757,0.0005209462833590806
1772702185865689300,5.609689453125,-0.0009768467862159014,-0.0002775397151708603,-0.001011180691421032
1772702185875739100,5.6197392578125,-0.001666605705395341,0.000023397617042064667,-0.0018319670343771577
1772702185885788200,5.6297880859375,-0.00045807164860889316,-0.0010367874056100845,0.0016760681755840778
1772702185895838200,5.639838134765625,0.0009651215514168143,0.00020690914243459702,-0.0007910843123681843
1772702185905887200,5.64988720703125,0.0016693270299583673,0.0011768415570259094,0.0004844341892749071
1772702185915937300,5.659937255859375,0.0012552054831758142,-0.00035447580739855766,0.000885772577021271
1772702185925986300,5.669986328125,-0.0010144084226340055,0.0012152185663580894,-0.0010263100266456604
1772702185936036000,5.6800361328125,0.0011869606096297503,-0.0010665776208043098,-0.001140293199568987
1772702185946085000,5.690085205078125,-0.0030733011662960052,-0.0005127750337123871,0.0030515051912516356
1772702185956135200,5.70013525390625,-0.00043517386075109243,-0.001050467137247324,-0.000406342966016382
1772702185966184200,5.71018408203125,0.0005502813728526235,-0.0007715383544564247,-0.00031483129714615643
1772702185976234200,5.720234130859375,0.0006573404534719884,-0.00031187664717435837,0.0006681414088234305
1772702185986283300,5.730283203125,-0.00024377467343583703,0.0036842310801148415,0.0013213898055255413
1772702185996333000,5.7403330078125,-0.0005732076824642718,-0.0027196058072149754,0.0031131645664572716
1772702186006382300,5.75038232421875,-0.0021954039111733437,0.003630872815847397,-0.00057879404630512
1772702186016432400,5.760432373046875,-0.0015338746597990394,-0.00044908979907631874,-8.923234418034554e-8
1772702186026481200,5.770481201171875,-0.0026179004926234484,0.002213358413428068,0.0008448829175904393
1772702186036531200,5.78053125,0.0006031928351148963,-0.00015951786190271378,0.0029253442771732807
1772702186046580200,5.790580322265625,0.00012226187391206622,-0.0013854666613042355,-0.000497879518661648
1772702186056629200,5.800629150390625,0.00214653043076396,-0.0005428423173725605,-0.000780174566898495
1772702186066679300,5.81067919921875,0.003483918961137533,-0.0007400070317089558,-0.002408305648714304
1772702186076728000,5.82072802734375,0.0024074693210422993,-0.00028247619047760963,0.0014165263855829835
1772702186086778000,5.830778076171875,-0.0012674625031650066,-0.0002922681160271168,-0.0007710877689532936
1772702186096827400,5.840827392578125,0.0003077972214668989,0.0008803214877843857,-0.00029784400248900056
1772702186106877200,5.850877197265625,-0.0016661263071000576,-0.00030351756140589714,-0.000571069133002311
1772702186116926200,5.86092626953125,0.000287568720523268,0.0015572328120470047,-0.000279719359241426
1772702186126976300,5.870976318359375,-0.001422664150595665,0.0024853339418768883,0.00044570924364961684
1772702186137025000,5.88102490234375,-0.0008460899698548019,0.0013665398582816124,-0.002212391933426261
1772702186147075000,5.891074951171875,0.002597578801214695,-0.0012510064989328384,0.0010440819896757603
1772702186157124400,5.901124267578125,-0.002507967408746481,0.0037528066895902157,0.0006632499280385673
1772702186167174100,5.911174072265625,-0.000789254205301404,-0.0014367257244884968,-0.00037736428203061223
1772702186177223200,5.92122314453125,0.002486700192093849,0.0016578673385083675,0.00019255216466262937
1772702186187273200,5.931273193359375,-0.0014285153010860085,-0.002158460672944784,0.0018253225134685636
1772702186197322200,5.941322265625,-0.000641551217995584,-0.0010777497664093971,0.00019120692741125822
1772702186207372300,5.951372314453125,0.0003763327840715647,-0.0024110088124871254,-0.001489115646108985
1772702186217421300,5.96142138671875,0.0005624877521768212,-0.001899681519716978,-0.0021125616040080786
1772702186227470000,5.971469970703125,0.00003638933412730694,0.0007647746242582798,-0.00017820042558014393
1772702186237520100,5.98152001953125,-0.0006176830502226949,-0.0009830580092966557,-0.0014887419529259205
1772702186247569400,5.9915693359375,0.0007462459034286439,0.0010854038409888744,0.0014454256743192673
1772702186257619200,6.001619140625,0.0005811299197375774,-0.0003630891442298889,-0.0010467604734003544
1772702186267668200,6.011668212890625,-0.0006378644611686468,-0.00015911972150206566,0.0013546724803745747
1772702186277718300,6.02171826171875,-0.0002999092685058713,0.0012552854605019093,-0.002880818909034133
1772702186287767300,6.031767333984375,-0.0006508263759315014,-0.0005349148996174335,0.0017214491963386536
1772702186297817300,6.0418173828125,0.00047276128316298127,-0.0006278594955801964,0.00039306451799347997
1772702186307866000,6.0518662109375,0.00009005982428789139,0.003353531938046217,-0.0034265327267348766
1772702186317916200,6.061916259765625,0.0014796972973272204,-0.0026066224090754986,0.0019437314476817846
1772702186327965200,6.071965087890625,0.0008758328040130436,-0.0019762450829148293,0.0026836374308913946
1772702186338015200,6.08201513671875,0.0021546827629208565,-0.002361870836466551,0.001774167874827981
1772702186348064300,6.092064208984375,-0.00006393122021108866,0.00007245596498250961,0.001744294771924615
1772702186358114300,6.1021142578125,-0.00017365335952490568,-0.0002636350691318512,-0.00011592329246923327
1772702186368163000,6.1121630859375,0.0003179676132276654,-0.0004630456678569317,-0.0005158085259608924
1772702186378212000,6.122212158203125,0.0019283811561763287,-0.0012473464012145996,0.0002897977246902883
1772702186388262100,6.13226220703125,0.0001865234225988388,-0.00008459249511361122,0.00012095889542251825
1772702186398311200,6.142311279296875,-0.001505382708273828,0.0005670832470059395,0.0015079332515597343
1772702186408361200,6.152361328125,0.0005541008431464434,0.002157493494451046,-0.0010411383118480444
1772702186418410200,6.16241015625,0.00016900774789974093,-0.0021288637071847916,0.00133946118876338
1772702186428460000,6.1724599609375,0.00036298477789387107,-0.00028017908334732056,-0.0003910859231837094
1772702186438509300,6.18250927734375,-0.0015374469803646207,0.0010500699281692505,-0.0005985461175441742
1772702186448559400,6.192559326171875,-0.0022725630551576614,-0.0003348253667354584,0.002959463745355606
1772702186458608000,6.202608154296875,-0.00013510993449017406,-0.00008209096267819405,-0.0029426338151097298
1772702186468658200,6.212658203125,-0.0021154703572392464,-0.0007564481347799301,-0.000436633825302124
1772702186478707200,6.222707275390625,-0.002099757781252265,-0.00045737484470009804,0.0034981868229806423
1772702186488757200,6.23275732421875,-0.00048325012903660536,0.0004626731388270855,0.00007909862324595451
1772702186498806300,6.24280615234375,0.000033935706596821547,-0.0015304363332688808,0.0030932642985135317
1772702186508856300,6.252856201171875,-0.0016846687067300081,0.0006613554432988167,0.0021504941396415234
1772702186518905000,6.262905029296875,-0.0031797674018889666,-0.00003319699317216873,0.0003978678141720593
1772702186528955100,6.272955078125,0.00032372912392020226,0.0014155944809317589,-0.0006133834831416607
1772702186539004200,6.283004150390625,0.0018260183278471231,0.001566595397889614,-0.000468773883767426
1772702186549053200,6.29305322265625,0.0010638447711244226,-0.0012050946243107319,-0.0029773693531751633
1772702186559103200,6.303103271484375,-0.00013191456673666835,-0.00173506373539567,-0.000003950088284909725
1772702186569152000,6.313152099609375,0.001186385634355247,-0.00045828428119421005,0.00029800250194966793
1772702186579202000,6.3232021484375,0.0014620227739214897,-0.00040315696969628334,0.00021677606855519116
1772702186589251300,6.333251220703125,0.00085964344907552,-0.0002564643509685993,-0.0008168795029632747
1772702186599301400,6.34330126953125,-0.00009456719271838665,-0.0028706230223178864,-0.0001984935370273888
1772702186609350400,6.353350341796875,0.000051486771553754807,-0.0013015842996537685,-0.0020021407399326563
1772702186619400200,6.363400146484375,-0.0012638483894988894,-0.00023392308503389359,0.0005510318442247808
1772702186629449500,6.373449462890625,0.0018268986605107784,0.0007968032732605934,-0.0020214326214045286
1772702186639499500,6.38349951171875,0.0016841532196849585,-0.0001004156656563282,-0.0014555108500644565
1772702186649548300,6.39354833984375,0.00170643231831491,-0.0010983464308083057,-0.0009849973721429706
1772702186659598300,6.403598388671875,-0.00092024338664487,-0.0025684116408228874,0.00035270844819024205
1772702186669647000,6.413647216796875,-0.00012680201325565577,0.00008824095129966736,-0.0007277909899130464
1772702186679697200,6.423697265625,-0.0010722242295742035,0.002002520952373743,0.0006053874967619777
1772702186689746400,6.433746337890625,-0.002038568491116166,0.0006516166031360626,-0.0012432638322934508
1772702186699795200,6.443795166015625,-0.000499793968629092,-0.0003566555678844452,-0.002360460115596652
1772702186709845200,6.45384521484375,-0.0008138687699101865,0.00016453862190246582,0.0015988266095519066
1772702186719894500,6.46389453125,0.0007909520645625889,0.0014220834709703922,0.0008920237305574119
1772702186729944300,6.4739443359375,-0.00009497429709881544,-0.0007239915430545807,-0.0021365745924413204
1772702186739993300,6.483993408203125,-0.002817257307469845,-0.001722677145153284,0.0009726659045554698
1772702186750043400,6.49404345703125,0.0000832737423479557,0.0020671929232776165,-0.0006160077173262835
1772702186760092200,6.504092041015625,0.00033627403900027275,-0.00010834308341145515,0.002009336370974779
1772702186770142200,6.51414208984375,-0.001069815014488995,0.00015775766223669052,-0.0010350989177823067
1772702186780191500,6.52419140625,-0.0015055082039907575,0.0018430058844387531,-0.0008548028999939561
1772702186790241300,6.5342412109375,0.000347454275470227,-0.0001370520330965519,-0.0020512272603809834
1772702186800290300,6.544290283203125,0.0013525312533602118,0.004080330021679401,0.001213275478221476
1772702186810340400,6.55434033203125,-0.004971286281943321,0.17588484287261963,0.08531191200017929
1772702186820389400,6.564389404296875,-0.008330863900482655,0.29353901743888855,0.14799764752388
1772702186830438400,6.5744384765625,0.004287706688046455,-0.0923384577035904,-0.03393743932247162
1772702186840488400,6.584488525390625,-0.0009027941268868744,0.013737376779317856,0.007024638820439577
1772702186850537200,6.594537109375,0.000309899915009737,0.009189996868371964,0.0023068112786859274
1772702186860587300,6.604587158203125,-0.00025948387337848544,-0.0020916867069900036,0.0012828258331865072
1772702186870636300,6.61463623046875,-0.00019794906256720424,-0.012278586626052856,-0.00781550258398056
1772702186880686300,6.624686279296875,-0.00003230053698644042,-0.05659811571240425,-0.027415037155151367
1772702186890735400,6.6347353515625,0.005236146505922079,-0.1482362598180771,-0.07685820758342743
1772702186900785400,6.644785400390625,0.0038832605350762606,-0.2331404983997345,-0.11247745156288147
1772702186910834400,6.65483447265625,-0.0014667757786810398,-0.009218947030603886,-0.006254106294363737
1772702186920884500,6.664884521484375,-0.0012023239396512508,0.04192573204636574,0.019568968564271927
1772702186930933200,6.674933349609375,0.001925216638483107,-0.09115228801965714,-0.04224064201116562
