time,seconds_elapsed,z,y,x
1772702180309588500,0.05358837890625,-0.0007150587625801563,0.007672566920518875,-0.0013305152533575892
1772702180319638500,0.063638427734375,-0.0014921691035851836,0.007634217385202646,-0.0007771103992126882
1772702180329687300,0.073687255859375,-0.0005131911602802575,0.00932346098124981,0.001014398061670363
1772702180339737300,0.0837373046875,-0.00098190747667104,0.005154281854629517,-0.0010602044640108943
1772702180349786600,0.09378662109375,-0.0006436860421672463,0.007611047942191362,-0.001776062068529427
1772702180359836400,0.10383642578125,-0.0009376989910379052,0.006168413441628218,0.0015757924411445856
1772702180369885400,0.113885498046875,-0.000016777914424892515,0.005556685384362936,0.0025015072897076607
1772702180379935500,0.123935546875,0.00034914040588773787,0.005311142187565565,-0.00007004113285802305
1772702180389984300,0.133984375,0.0009315737406723201,0.007124754600226879,0.0028160265646874905
1772702180400034300,0.144034423828125,-0.00169563468080014,0.008845156989991665,-0.00039281626231968403
1772702180410083600,0.15408349609375,-0.000782436749432236,0.006570284720510244,-0.002189651131629944
1772702180420132400,0.16413232421875,-0.0009230516152456403,0.007308779284358025,-0.0005110605852678418
1772702180430182400,0.174182373046875,-0.0007337008719332516,0.007800398860126734,0.0009243832319043577
1772702180440231700,0.184231689453125,-0.00014913702034391463,0.006482400465756655,0.0015446334145963192
1772702180450281500,0.194281494140625,-0.0017339842161163688,0.00962546281516552,-0.0009773800848051906
1772702180460330500,0.20433056640625,-0.0018383801216259599,0.006601976230740547,-0.0024921861477196217
1772702180470380500,0.214380615234375,0.0005483448621816933,0.007310110609978437,-0.00046365635353140533
1772702180480429300,0.22442919921875,-0.000010386328540334944,0.008638229221105576,0.0006016080733388662
1772702180490479400,0.234479248046875,-0.0009901633020490408,0.005898369010537863,-0.0023350596893578768
1772702180500528600,0.244528564453125,0.00028628981090150774,0.009259012527763844,-0.000841825210954994
1772702180510578400,0.254578369140625,-0.0005025385180488229,0.007895207032561302,-0.00213665422052145
1772702180520627500,0.26462744140625,-0.0007254450465552509,0.006249640136957169,-0.0001685781026026234
1772702180530677500,0.274677490234375,0.0026176210958510637,0.006461894139647484,-0.0010644654976204038
1772702180540726500,0.2847265625,-0.0008551410282962024,0.006794522982090712,0.0006567355012521148
1772702180550776600,0.294776611328125,-0.003626160090789199,0.007021158002316952,-0.001927595934830606
1772702180560825300,0.304825439453125,0.0012199940392747521,0.005888515617698431,-0.0007004113867878914
1772702180570875400,0.31487548828125,-0.002038117265328765,0.007369499187916517,-0.0011970909545198083
1772702180580924200,0.324924072265625,-0.0015193333383649588,0.00890640914440155,0.0005171858938410878
1772702180590974200,0.33497412109375,-0.002040514023974538,0.006355900317430496,-0.0012631373247131705
1772702180601023200,0.345023193359375,-0.0021086910273879766,0.009954629465937614,-0.002234658459201455
1772702180611073300,0.3550732421875,-0.000972852751147002,0.003913781605660915,-0.0016852483386173844
1772702180621122000,0.3651220703125,-0.00005512743518920615,0.009013468399643898,0.0014530207263305783
1772702180631172000,0.375172119140625,0.000041811628761934116,0.006301837973296642,-0.0009326389990746975
1772702180641221400,0.385221435546875,-0.002246909076347947,0.0059756007976830006,-0.0005632585380226374
1772702180651271200,0.395271240234375,-0.00020053602929692715,0.005930859595537186,-0.0005914880894124508
1772702180661320200,0.4053203125,-0.0009323726990260184,0.007768707349896431,-0.0018093516118824482
1772702180671369200,0.415369140625,-0.0006079996819607913,0.0065223476849496365,0.0012916331179440022
1772702180681419000,0.4254189453125,-0.0005898901727050543,0.00827763695269823,0.00145195540972054
1772702180691468300,0.43546826171875,-0.0004990763845853508,0.00896659679710865,-0.0025041704066097736
1772702180701518300,0.445518310546875,-0.0015078817959874868,0.008207063190639019,0.0005073322099633515
1772702180711567000,0.455567138671875,0.002520149340853095,0.00803156103938818,-0.0004948153509758413
1772702180721617200,0.4656171875,-0.0006056028068996966,0.00640703272074461,-0.0005153216770850122
1772702180731666200,0.475666259765625,-0.0018354506464675069,0.009634518064558506,-0.0025997778866440058
1772702180741716200,0.48571630859375,-0.00256409146822989,0.007707187905907631,-0.0004487426485866308
1772702180751765200,0.49576513671875,-0.002270344877615571,0.006774548906832933,-0.0006937534781172872
1772702180761815300,0.505815185546875,-0.000892425247002393,0.004944424610584974,-0.004526042379438877
1772702180771864000,0.515864013671875,-0.0009017463307827711,0.00700890738517046,-0.0005970807396806777
1772702180781914000,0.5259140625,0.00026791400159709156,0.005998503882437944,0.0007105313707143068
1772702180791963100,0.535963134765625,0.000883636821527034,0.008314921520650387,-0.001205080421641469
1772702180802013200,0.54601318359375,-0.0013470269041135907,0.007089334540069103,-0.0025947177782654762
1772702180812062200,0.556062255859375,-0.0015089471125975251,0.006052033510059118,-0.0013752563390880823
1772702180822112300,0.5661123046875,0.0003507383225951344,0.006924218963831663,0.0014937670202925801
1772702180832161300,0.576161376953125,-0.0023148194886744022,0.005750829819589853,0.0008825715631246567
1772702180842211300,0.58621142578125,-0.0026589001063257456,0.005813946947455406,0.0009235842735506594
1772702180852260000,0.596260009765625,-0.001728391507640481,0.006055495701730251,-0.0012040151050314307
1772702180862310100,0.60631005859375,-0.0013164004776626825,0.005152417812496424,-0.00019121496006846428
1772702180872359200,0.616359130859375,0.00014807176194153726,0.007414240390062332,0.00035420042695477605
1772702180882408200,0.626408203125,-0.0029952572658658028,0.006299174856394529,0.00016884441720321774
1772702180892458200,0.636458251953125,-0.0002743055811151862,0.0080925477668643,-0.001797101111151278
1772702180902507300,0.64650732421875,0.0007600661483593285,0.006976683158427477,0.0004753742541652173
1772702180912557000,0.65655712890625,-0.00022024342615623027,0.008598548360168934,-0.0025840650778263807
1772702180922606300,0.6666064453125,-0.0011166634503751993,0.008280566893517971,-0.0010106696281582117
1772702180932656400,0.676656494140625,-0.0030368026345968246,0.008927448652684689,-0.000984836951829493
1772702180942705200,0.686705078125,0.0003531351685523987,0.005844040773808956,-0.0014109427575021982
1772702180952755200,0.696755126953125,0.0013723268639296293,0.0072776200249791145,-0.0014064153656363487
1772702180962804200,0.70680419921875,-0.000011984225238848012,0.00689119566231966,0.00011052118497900665
1772702180972854000,0.71685400390625,0.0020096213556826115,0.00675324397161603,-0.00005885586142539978
1772702180982903300,0.7269033203125,-0.001377919572405517,0.006880276836454868,0.001597630325704813
1772702180992953300,0.736953369140625,-0.0012825783342123032,0.008947688154876232,-0.0013494236627593637
1772702181003002000,0.747002197265625,-0.00023382554354611784,0.006897320970892906,-0.000865793670527637
1772702181013052200,0.75705224609375,-0.0008487494196742773,0.007760983891785145,0.00020426444825716317
1772702181023101200,0.76710107421875,0.0008170577930286527,0.006429403554648161,0.0012431635987013578
1772702181033151200,0.777151123046875,0.0013598100049421191,0.007841411046683788,0.00018988338706549257
1772702181043200300,0.7872001953125,-0.0026253440883010626,0.008468319661915302,0.0012511530658230186
1772702181053250300,0.797250244140625,-0.0014245248166844249,0.005243764258921146,-0.0017483652336522937
1772702181063299000,0.807299072265625,-0.0009097357979044318,0.008300273679196835,-0.0025747441686689854
1772702181073349000,0.81734912109375,-0.0010604707058519125,0.006618488114327192,0.0011313108261674643
1772702181083398100,0.827398193359375,-0.0005507417372427881,0.005854693241417408,-0.0003299656673334539
1772702181093448200,0.8374482421875,-0.0015779229579493403,0.008008924312889576,-0.0012301141396164894
1772702181103497200,0.847497314453125,-0.001657285145483911,0.006232596002519131,-0.003450657706707716
1772702181113546200,0.857546142578125,-0.0031244205310940742,0.008817726746201515,-0.0021992383990436792
1772702181123596300,0.86759619140625,-0.000147272803587839,0.0073716300539672375,0.0014410364674404263
1772702181133645300,0.877645263671875,0.0007352987886406481,0.006410228554159403,0.00020453077740967274
1772702181143695000,0.887695068359375,-0.0004950816510245204,0.0075902752578258514,-0.002031991956755519
1772702181153744100,0.897744140625,-0.000012250540748937055,0.005864014383405447,-0.002746251644566655
1772702181163794200,0.907794189453125,-0.0004242415598127991,0.00875061471015215,-0.002275404753163457
1772702181173843200,0.91784326171875,-0.002674346324056387,0.00785659160465002,-0.005507150664925575
1772702181183893200,0.927893310546875,-0.0038165762089192867,0.0073623089119791985,-0.003180346917361021
1772702181193942300,0.9379423828125,0.00020719393796753138,0.008609200827777386,-0.0004625910660251975
1772702181203992000,0.947991943359375,-0.003315103007480502,0.009092031978070736,-0.002394714392721653
1772702181214041300,0.958041259765625,0.00005459480235003866,0.008905877359211445,0.0010186590952798724
1772702181224091400,0.96809130859375,-0.0022655511274933815,0.008981510996818542,0.0005768407136201859
1772702181234140200,0.97814013671875,-0.0015744607662782073,0.006594253238290548,-0.0006681871018372476
1772702181244190200,0.988190185546875,-0.003087402554228902,0.006331132724881172,-0.0017094830982387066
1772702181254239200,0.9982392578125,-0.000358461489668116,0.006906109396368265,-0.0010434264549985528
1772702181264289000,1.0082890625,-0.0010556770721450448,0.007596134208142757,0.0006261091912165284
1772702181274338300,1.01833837890625,-0.0037529265973716974,0.006589459255337715,-0.0007866977830417454
1772702181284388400,1.028388427734375,-0.0008500810363329947,0.007741542998701334,-0.00042770366417244077
1772702181294437000,1.03843701171875,-0.002116147894412279,0.005754824727773666,-0.0007499461644329131
1772702181304487200,1.048487060546875,-0.001386175281368196,0.009863283485174179,0.00250550196506083
1772702181314536200,1.0585361328125,-0.0011374361347407103,0.00583818182349205,0.000045540054998127744
1772702181324585200,1.068585205078125,-0.0010964233661070466,0.00968858040869236,0.0005145227187313139
1772702181334635300,1.07863525390625,0.00039707732503302395,0.00583685003221035,-0.00039254993316717446
1772702181344684000,1.08868408203125,-0.002172074280679226,0.008580172434449196,0.0009262474486604333
1772702181354734000,1.098734130859375,-0.002010686555877328,0.008539159782230854,0.00025726135936565697
1772702181364783400,1.108783447265625,-0.003560912562534213,0.008769789710640907,-0.0002372876479057595
1772702181374833200,1.118833251953125,-0.0007981493836268783,0.006738862954080105,-0.0006287723081186414
1772702181384882200,1.128882080078125,-0.0003222425002604723,0.006719155237078667,-0.003194727934896946
1772702181394932200,1.13893212890625,-0.0027268105186522007,0.00555189186707139,-0.0008737831376492977
1772702181404981200,1.148981201171875,-0.0006194512825459242,0.0074030552059412,0.00011158645065734163
1772702181415031300,1.15903125,-0.00006391586794052273,0.008097874000668526,0.0007776430575177073
1772702181425080300,1.169080322265625,-0.002314020646736026,0.007092264015227556,0.0017510283505544066
1772702181435130000,1.179130126953125,0.00021837920940015465,0.007210774812847376,-0.003659449517726898
1772702181445179100,1.18917919921875,-0.004326571244746447,0.009852631017565727,-0.002965962514281273
1772702181455229200,1.199229248046875,0.001282312092371285,0.007131412625312805,-0.0001555285998620093
1772702181465278200,1.2092783203125,0.0001448759576305747,0.007495466619729996,0.0032594427466392517
1772702181475328300,1.219328369140625,-0.0007989483419805765,0.006021673325449228,0.00046152580762282014
1772702181485377300,1.229377197265625,-0.001189900329336524,0.008044610731303692,0.0007337008719332516
1772702181495427000,1.239427001953125,0.0003355582884978503,0.00635030772536993,0.00007669904152862728
1772702181505476400,1.249476318359375,-0.001490571303293109,0.0051739891059696674,-0.0015219965716823936
1772702181515526400,1.2595263671875,-0.0011438276851549745,0.008158328011631966,0.000054861116950633004
1772702181525575200,1.2695751953125,0.0004780374001711607,0.006160157732665539,-0.0002700445184018463
1772702181535625200,1.279625244140625,0.00008122641156660393,0.007921306416392326,-0.0009315737406723201
1772702181545674200,1.28967431640625,-0.0014500912511721253,0.009526659734547138,-0.001535312389023602
1772702181555723300,1.29972314453125,-0.0009214537567459047,0.006126868538558483,-0.0007779093575663865
1772702181565773300,1.309773193359375,-0.0016330503858625889,0.00583791546523571,-0.0015640745405107737
1772702181575822000,1.319822021484375,-0.0010285128373652697,0.00848749466240406,-0.002921487670391798
1772702181585872600,1.32987255859375,-0.0025600967928767204,0.005860019475221634,-0.0030924626626074314
1772702181595921400,1.33992138671875,0.00039494677912443876,0.007674431428313255,-0.0013723268639296293
1772702181605971500,1.349971435546875,-0.0033563817851245403,0.006733270362019539,-0.0008647284121252596
1772702181616020700,1.360020751953125,-0.0012258529895916581,0.007396929897367954,-0.0015733955660834908
1772702181626070800,1.37007080078125,0.0004966795677319169,0.007649397477507591,-0.0016855146968737245
1772702181636119600,1.38011962890625,0.0008351673022843897,0.005533782299607992,-0.0014958975370973349
1772702181646169600,1.390169677734375,-0.0011116034584119916,0.006875749211758375,-0.001782187377102673
1772702181656218600,1.400218505859375,0.00046631949953734875,0.006984672509133816,0.0004468784318305552
1772702181666268700,1.4102685546875,0.00034168356796726584,0.009274724870920181,-0.0012516856659203768
1772702181676317700,1.420317626953125,-0.0013310478534549475,0.007734085898846388,-0.00018082863243762404
1772702181686367500,1.430367431640625,0.00034700988908298314,0.0070584421046078205,-0.0010394317796453834
1772702181696416500,1.44041650390625,-0.0016056197928264737,0.0073535204865038395,0.0007499461644329131
1772702181706466600,1.450466552734375,0.00006631271389778703,0.007478156127035618,-0.0005536712124012411
1772702181716515600,1.460515625,0.000752875639591366,0.008058193139731884,-0.000734766130335629
1772702181726565600,1.470565673828125,-0.0029707562644034624,0.008191883563995361,-0.004610997159034014
1772702181736614700,1.48061474609375,-0.0009534116834402084,0.00860494002699852,-0.0005075985100120306
1772702181746663700,1.49066357421875,-0.0024762072134763002,0.010202037170529366,-0.0018221348291262984
1772702181756713700,1.500713623046875,-0.0017773937433958054,0.006886135786771774,-0.000708134553860873
1772702181766762800,1.5107626953125,-0.001187237212434411,0.009769806638360023,-0.0002767024270724505
1772702181776812500,1.5208125,-0.0033569145016372204,0.009384713135659695,-0.0008450209861621261
1772702181786861600,1.530861572265625,0.001460743835195899,0.0054698665626347065,-0.0005661880713887513
1772702181796911600,1.54091162109375,-0.0027803401462733746,0.004885302856564522,-0.0009086705395020545
1772702181806960600,1.550960693359375,-0.0031641016248613596,0.005958290304988623,-0.0004894890007562935
1772702181817010700,1.5610107421875,-0.002371811307966709,0.0070760189555585384,0.0009384979493916035
1772702181827059500,1.5710595703125,0.0008117315010167658,0.007213970646262169,0.0016615461790934205
1772702181837109500,1.581109619140625,-0.0007747135823592544,0.010743457823991776,-0.00011957593233091757
1772702181847158800,1.59115869140625,0.0007872303831391037,0.008686965331435204,0.0003408846096135676
1772702181857208800,1.601208740234375,-0.0003914846747647971,0.004208593629300594,0.0016666061710566282
1772702181867257600,1.611257568359375,-0.0009704558760859072,0.007713579572737217,-0.002435993403196335
1772702181877307600,1.6213076171875,-0.0001954760227818042,0.006968959700316191,-0.0011968245962634683
1772702181887356400,1.6313564453125,0.00048389637959189713,0.005943110212683678,-0.0012093414552509785
1772702181897406500,1.641406494140625,0.0005824333056807518,0.0072962623089551926,-0.0020727382507175207
1772702181907455700,1.651455810546875,-0.0017321199411526322,0.007935953326523304,-0.0029912625905126333
1772702181917505500,1.661505615234375,-0.0025094966404139996,0.0062917182222008705,0.00027563716867007315
1772702181927554600,1.671554443359375,0.000022370553779182956,0.00732422573491931,-0.0013012205017730594
1772702181937603800,1.681603759765625,-0.0010863033821806312,0.010028399527072906,-0.000660463934764266
1772702181947653600,1.691653564453125,-0.0026320021133869886,0.008927981369197369,0.0005129248020239174
1772702181957702700,1.70170263671875,0.0005342300864867866,0.006167348474264145,0.0011776498286053538
1772702181967752700,1.711752685546875,-0.002582201035693288,0.006628341507166624,-0.000045273736759554595
1772702181977801500,1.721801513671875,-0.0010788465151563287,0.008097341284155846,-0.0013257216196507215
1772702181987851500,1.7318515625,-0.00016298545233439654,0.006885869428515434,-0.00039228363311849535
1772702181997900800,1.74190087890625,-0.002645584288984537,0.006217415910214186,-0.001973402453586459
1772702182007950600,1.75195068359375,0.0010865697404369712,0.005871471017599106,-0.0004546015989035368
1772702182017999600,1.76199951171875,-0.0024434502702206373,0.008224107325077057,-0.0005065332516096532
1772702182028049700,1.772049560546875,-0.0014988270122557878,0.006702111102640629,-0.0018423747969791293
1772702182038098700,1.7820986328125,-0.0032871398143470287,0.006866960786283016,0.00039494677912443876
1772702182048148700,1.792148681640625,-0.001445830101147294,0.006455236114561558,0.0014271880500018597
1772702182058197800,1.80219775390625,-0.0024232103023678064,0.006520750001072884,-0.0015124091878533363
1772702182068247600,1.81224755859375,-0.0010631339391693473,0.00580755528062582,-0.0023824640084058046
1772702182078296600,1.822296630859375,-0.0017363809747621417,0.0074619110673666,0.002597380895167589
1772702182088346600,1.8323466796875,0.000012250540748937055,0.00848536379635334,-0.0009595369338057935
1772702182098395600,1.842395751953125,-0.0024794030468910933,0.00646748673170805,0.0023366576060652733
1772702182108445700,1.85244580078125,-0.002548911375924945,0.006079996936023235,-0.002537992550060153
1772702182118494500,1.862494384765625,0.00024580975878052413,0.008694954216480255,0.00021438446128740907
1772702182128543500,1.87254345703125,0.0006154565489850938,0.006555637344717979,0.002659166231751442
1772702182138593800,1.88259375,-0.0034498588647693396,0.006485862657427788,0.0008676578872837126
1772702182148642600,1.892642578125,-0.0005795038305222988,0.007154049351811409,-0.00027803401462733746
1772702182158692600,1.902692626953125,-0.0008812400046736002,0.006572148762643337,0.0012679309584200382
1772702182168741600,1.91274169921875,-0.0020849888678640127,0.008771919645369053,0.00032384038786403835
1772702182178791400,1.92279150390625,-0.0012777847005054355,0.007940215058624744,0.00247594085521996
1772702182188840700,1.9328408203125,-0.00023542344570159912,0.006041114684194326,0.000636761833447963
1772702182198890800,1.942890869140625,-0.002017344580963254,0.004605670925229788,-0.001540638622827828
1772702182208939500,1.952939453125,-0.0008511462947353721,0.007924235425889492,-0.002201635157689452
1772702182218989600,1.962989501953125,-0.003326288191601634,0.00475507415831089,0.0015331818722188473
1772702182229038600,1.97303857421875,-0.00010386328358436003,0.006540190894156694,-0.0006330333999358118
1772702182239088600,1.983088623046875,-0.0006261091912165284,0.006403038278222084,-0.0019971043802797794
1772702182249137700,1.9931376953125,0.001466602785512805,0.00618093041703105,0.0006876281695440412
1772702182259187700,2.003187744140625,-0.0022591594606637955,0.010007360018789768,-0.0015257250051945448
1772702182269236500,2.013236572265625,0.00020825919636990875,0.0054701329208910465,0.0007861651247367263
1772702182279286500,2.02328662109375,-0.004608866758644581,0.009141034446656704,0.0013049489352852106
1772702182289335800,2.033335693359375,-0.00015046859334688634,0.005577458068728447,-0.001362473238259554
1772702182299385600,2.043385498046875,-0.001213868847116828,0.008157795295119286,0.0024445154704153538
1772702182309434600,2.0534345703125,-0.001589108258485794,0.007952199317514896,-0.0018405106384307146
1772702182319483400,2.0634833984375,0.00007323692989302799,0.006756173446774483,-0.0005091963685117662
1772702182329533700,2.07353369140625,-0.003628823207691312,0.007110373582690954,-0.0025574336759746075
1772702182339582700,2.083582763671875,-0.000028229507734067738,0.00866139866411686,-0.0005502090789377689
1772702182349632800,2.0936328125,0.00018109494703821838,0.00965475756675005,0.0015784555580466986
1772702182359681500,2.103681640625,-0.0012207929976284504,0.0072954632341861725,0.0010221211705356836
1772702182369731600,2.113731689453125,-0.00005273058923194185,0.00726483715698123,-0.00019387812062632293
1772702182379780600,2.123780517578125,-0.00010572749306447804,0.007881359197199345,0.0016085492679849267
1772702182389830700,2.13383056640625,0.0005496764206327498,0.007931958884000778,-0.0013933659065514803
1772702182399879700,2.143879638671875,-0.0005083974683657289,0.006870156619697809,0.0009973538108170033
1772702182409929500,2.153929443359375,0.000215716048842296,0.005332447588443756,0.0022921827621757984
1772702182419978500,2.163978515625,-0.001377653214149177,0.00589490681886673,-0.00047377636656165123
1772702182430028800,2.17402880859375,0.00020532972121145576,0.008272310718894005,-0.0009331716573797166
1772702182440077600,2.18407763671875,-0.0015225291717797518,0.005617672111839056,0.00022024342615623027
1772702182450127600,2.194127685546875,0.001335575245320797,0.00566986994817853,0.002584597794339061
1772702182460176600,2.2041767578125,-0.00079735042527318,0.00845340546220541,0.0006719155353493989
1772702182470226400,2.214226318359375,-0.0018881811993196607,0.00498064374551177,-0.001273257308639586
1772702182480275700,2.224275634765625,-0.000523577444255352,0.00839747954159975,-0.0005768407136201859
1772702182490325800,2.23432568359375,0.0005688511882908642,0.007552724797278643,0.0030477214604616165
1772702182500374500,2.24437451171875,0.0002748382103163749,0.0076187714003026485,-0.0008860336965881288
1772702182510423600,2.254423583984375,-0.004634432960301638,0.00980629213154316,-0.0015560849569737911
1772702182520473600,2.2644736328125,-0.0015568839153274894,0.007698665838688612,0.0006596649764105678
1772702182530522600,2.274522705078125,-0.0008082693675532937,0.007983624003827572,-0.00336144189350307
1772702182540572700,2.28457275390625,-0.00013768543431069702,0.008415855467319489,-0.00003302319601061754
1772702182550621400,2.294621337890625,-0.0033875408116728067,0.007182279136031866,-0.0005470133037306368
1772702182560671500,2.30467138671875,-0.0018812569323927164,0.007048321887850761,-0.0008998821140266955
1772702182570720800,2.314720703125,-0.0029952572658658028,0.007510646712034941,-0.0002814961189869791
1772702182580770000,2.32477001953125,0.00017656758427619934,0.008185758255422115,-0.0011400992516428232
1772702182590819000,2.334819091796875,-0.0009606021922081709,0.00890694186091423,-0.0005126585019752383
1772702182600869000,2.344869140625,0.0003328951424919069,0.0070424629375338554,-0.001324123702943325
1772702182610918100,2.354918212890625,-0.0016996293561533093,0.00583685003221035,-0.0012839100090786815
1772702182620968200,2.36496826171875,-0.000648479734081775,0.005116465035825968,-0.0024557008873671293
1772702182631017000,2.375016845703125,-0.000556334329303354,0.0075942701660096645,0.001156877144239843
1772702182641067000,2.38506689453125,-0.002305232221260667,0.007105846423655748,-0.0010000169277191162
1772702182651116000,2.395115966796875,-0.003820570884272456,0.007126885466277599,-0.001478587044402957
1772702182661166000,2.405166015625,-0.003162770066410303,0.006415288895368576,-0.0014317154418677092
1772702182671215000,2.415215087890625,-0.0018170748371630907,0.006819290108978748,-0.0008085357258096337
1772702182681264000,2.42526416015625,-0.001228782464750111,0.006060555577278137,0.0003810983616858721
1772702182691314000,2.43531396484375,-0.002681004349142313,0.008733037859201431,0.0004924184759147465
1772702182701363200,2.44536328125,-0.0012322446564212441,0.006332730874419212,0.0009488842915743589
1772702182711413200,2.455413330078125,-0.002466619713231921,0.006927947048097849,-0.004743888974189758
1772702182721462000,2.4654619140625,0.0014788532862439752,0.006194512825459242,-0.00006231796578504145
1772702182731512000,2.475511962890625,-0.0007475492893718183,0.007010505069047213,0.0029555761720985174
1772702182741561000,2.48556103515625,0.0010655306978151202,0.008265386335551739,-0.0004942826926708221
1772702182751611000,2.49561083984375,-0.0013579458463937044,0.007346596103161573,-0.00006205165118444711
1772702182761660200,2.50566015625,-0.0020703414920717478,0.009289904497563839,-0.0008937568636611104
1772702182771710200,2.515710205078125,-0.0011201255256310105,0.005853361915796995,-0.0015124091878533363
1772702182781759000,2.525759033203125,-0.002889263443648815,0.005937517620623112,-0.0016399745363742113
1772702182791809000,2.53580908203125,-0.0005147890187799931,0.006749249063432217,0.001192829804494977
1772702182801858300,2.5458583984375,-0.0004117247008252889,0.009296029806137085,0.002685531508177519
1772702182811908000,2.555908203125,-0.0006823018775321543,0.007869907654821873,-0.0017121462151408195
1772702182821957000,2.56595703125,-0.004400873556733131,0.008895756676793098,-0.0020988371688872576
1772702182832007200,2.576007080078125,-0.0006886934279464185,0.005693572107702494,-0.0010748518398031592
1772702182842056000,2.586055908203125,-0.0014325142838060856,0.0070254188030958176,-0.00044900894863530993
1772702182852105200,2.596105224609375,-0.0020695424173027277,0.00555322365835309,0.002448510378599167
1772702182862155300,2.6061552734375,-0.0024434502702206373,0.008192149922251701,-0.001374723738990724
1772702182872204000,2.6162041015625,-0.0010996191995218396,0.009708553552627563,-0.00027563716867007315
1772702182882254000,2.626254150390625,-0.0017022925894707441,0.008408398367464542,-0.0008074704091995955
1772702182892303000,2.63630322265625,-0.003537210635840893,0.006813697516918182,0.0009294432238675654
1772702182902353200,2.646353271484375,-0.00004660531703848392,0.008362592197954655,-0.0020575581584125757
1772702182912402200,2.656402099609375,-0.002567287301644683,0.008133027702569962,-0.0019859191961586475
1772702182922452000,2.666451904296875,-0.0005392901366576552,0.0067777447402477264,0.0006514092092402279
1772702182932501000,2.6765009765625,-0.00020586235041264445,0.007641674485057592,-0.0005065332516096532
1772702182942551000,2.686551025390625,-0.0004652542411349714,0.006896788254380226,0.0006178533658385277
1772702182952600000,2.69660009765625,-0.0007158577209338546,0.008329303003847599,0.0012974920682609081
1772702182962650000,2.706650146484375,-0.0010972223244607449,0.007250722497701645,-0.0015627428656443954
1772702182972699100,2.71669921875,-0.0015686018159613013,0.007655256427824497,0.0007731156656518579
1772702182982749000,2.7267490234375,-0.0007582019316032529,0.00697828084230423,-0.002210689941421151
1772702182992798200,2.736798095703125,0.0013262542197480798,0.008346080780029297,0.00009720538218971342
1772702183002848300,2.74684814453125,-0.001746234716847539,0.008441421203315258,-0.002272741636261344
1772702183012897000,2.75689697265625,-0.0010106696281582117,0.007238205522298813,0.0022144184913486242
1772702183022947000,2.766947021484375,0.00017843178648035973,0.00600383011624217,-0.0003664509567897767
1772702183032996000,2.77699609375,-0.002936401404440403,0.005513009615242481,0.00014860439114272594
1772702183043045000,2.787045166015625,-0.0016197345685213804,0.007567638531327248,-0.0007448861724697053
1772702183053095200,2.79709521484375,-0.0001030643325066194,0.007134874816983938,0.0012122709304094315
1772702183063144000,2.80714404296875,-0.0008053398923948407,0.008037419989705086,-0.00030413299100473523
1772702183073194000,2.817194091796875,-0.002382996492087841,0.008712797425687313,-0.0018351842882111669
1772702183083243000,2.827242919921875,-0.0035598473623394966,0.0067540425807237625,-0.0011369034182280302
1772702183093293300,2.837293212890625,-0.0027598338201642036,0.0037609159480780363,-0.0015371765475720167
1772702183103342000,2.847342041015625,-0.00007270430069183931,0.007486944552510977,-0.0000756337758502923
1772702183113392000,2.85739208984375,-0.0015725966077297926,0.007510113995522261,-0.00304638990201056
1772702183123441000,2.86744091796875,0.0008037420338951051,0.0054613444954156876,-0.0012844426091760397
1772702183133491000,2.877490966796875,-0.002180862706154585,0.007258445490151644,0.0012916331179440022
1772702183143540200,2.887540283203125,-0.003697799053043127,0.006962834391742945,-0.000005858954409632133
1772702183153590000,2.897590087890625,-0.0014173343079164624,0.007475759368389845,-0.0003195793251506984
1772702183163639000,2.90763916015625,-0.0004620584368240088,0.0073292856104671955,-0.000303334032651037
1772702183173689000,2.917689208984375,-0.0016309198690578341,0.006481068674474955,-0.0005126585019752383
1772702183183738000,2.927738037109375,-0.0014937670202925801,0.008796953596174717,0.0011078750248998404
1772702183193787100,2.937787109375,0.0009888317435979843,0.009881925769150257,-0.001746501075103879
1772702183203837200,2.947837158203125,-0.0007145261042751372,0.007866178639233112,0.001068193931132555
1772702183213886000,2.957885986328125,-0.00108284130692482,0.004982774145901203,0.00041518680518493056
1772702183223936000,2.96793603515625,-0.0017808558186516166,0.006478671915829182,-0.0007803061744198203
1772702183233985300,2.9779853515625,-0.0014471617760136724,0.007820638827979565,0.000180029688635841
1772702183244035000,2.98803515625,-0.0011792477453127503,0.006983341183513403,0.0002407497668173164
1772702183254084000,2.998083984375,-0.0007795072160661221,0.008741825819015503,0.002151035238057375
1772702183264134100,3.008134033203125,0.00021544973424170166,0.005989182740449905,-0.00043835630640387535
1772702183274183000,3.018182861328125,-0.0014269216917455196,0.008436361327767372,-0.0006234460161067545
1772702183284233200,3.028233154296875,0.00011957593233091757,0.007720237597823143,-0.003231213428080082
1772702183294282200,3.0382822265625,-0.0019049590919166803,0.005485845264047384,0.0016620787791907787
1772702183304332000,3.04833203125,0.0004516721237450838,0.010030795820057392,0.00007723167072981596
1772702183314381000,3.058381103515625,0.0002540655550546944,0.006358297076076269,-0.000185888638952747
1772702183324431000,3.06843115234375,0.0004569984448608011,0.006872819736599922,0.001279116258956492
1772702183334480100,3.078480224609375,0.0015486282063648105,0.007420099340379238,0.0015417039394378662
1772702183344530200,3.0885302734375,0.0014900385867804289,0.005594236310571432,0.00042876892257481813
1772702183354579000,3.098578857421875,-0.0005803027888759971,0.006933273747563362,-0.0003384877636563033
1772702183364629000,3.10862890625,-0.000589091214351356,0.00917672086507082,0.001335841603577137
1772702183374678000,3.118677978515625,0.0002170476218452677,0.008568188175559044,-0.002719087526202202
1772702183384727000,3.12872705078125,0.0002442118711769581,0.00686136819422245,0.0006649913266301155
1772702183394777000,3.138777099609375,0.00026604978484101593,0.010528274811804295,-0.0027806065045297146
1772702183404826000,3.148826171875,-0.0022120214998722076,0.007909854874014854,-0.0002466087171342224
1772702183414876000,3.1588759765625,0.000023435817638528533,0.00881985668092966,-0.0028690234757959843
1772702183424925200,3.16892529296875,0.0019680759869515896,0.007407848723232746,-0.0015962987672537565
1772702183434975200,3.178975341796875,-0.0025680861435830593,0.005879460833966732,-0.0027915253303945065
1772702183445024000,3.18902392578125,0.00018988338706549257,0.007230482529848814,0.00011238539445912465
1772702183455074000,3.199073974609375,-0.001312405802309513,0.00818069837987423,-0.0015864450251683593
1772702183465123000,3.209123046875,-0.00301762786693871,0.00669305631890893,-0.00044288369826972485
1772702183475173000,3.219173095703125,-0.0007198524544946849,0.00580648984760046,-0.0011227887589484453
1772702183485222100,3.22922216796875,-0.0015488944482058287,0.008729576133191586,0.00046845004544593394
1772702183495272200,3.239272216796875,-0.0026557042729109526,0.006977482233196497,-0.0017957695527002215
1772702183505321000,3.249321044921875,-0.0030858046375215054,0.006915962789207697,-0.0020927118603140116
1772702183515371000,3.25937109375,-0.001913481275551021,0.007846471853554249,-0.00115421402733773
1772702183525420300,3.269420166015625,-0.0026786073576658964,0.008594552986323833,-0.0029816750902682543
1772702183535470000,3.279469970703125,-0.001374457380734384,0.00632048025727272,-0.001416002749465406
1772702183545519000,3.28951904296875,-0.0031435952987521887,0.008363124914467335,-0.0014658038271591067
1772702183555567900,3.29956787109375,-0.0028064390644431114,0.007388674188405275,-0.00016698020044714212
1772702183565618000,3.309617919921875,-0.0008817726047709584,0.007683219853788614,-0.002377670258283615
1772702183575667200,3.319667236328125,0.000336090917699039,0.007819040678441525,0.000313986703986302
1772702183585717800,3.3297177734375,-0.0008711199625395238,0.00857085082679987,0.0031252196058630943
1772702183595766800,3.339766845703125,-0.0002585929469205439,0.00845606904476881,0.0009763148264028132
1772702183605816600,3.349816650390625,-0.0022298647090792656,0.009222527034580708,-0.002603772561997175
1772702183615865600,3.359865478515625,-0.0014362427173182368,0.007261907681822777,0.001014664419926703
1772702183625915600,3.36991552734375,0.001534779672510922,0.007232080213725567,0.0010338390711694956
1772702183635964700,3.379964599609375,-0.0005368932615965605,0.009415339678525925,0.00007403588097076863
1772702183646014700,3.3900146484375,-0.0013110742438584566,0.008108260110020638,0.0001150485550169833
1772702183656063700,3.400063720703125,-0.002014681464061141,0.010403372347354889,0.0006056028068996966
1772702183666113500,3.410113525390625,-0.0002442118711769581,0.009019860066473484,-0.0016016251174733043
1772702183676162800,3.420162841796875,0.00046818371629342437,0.007203051820397377,-0.001431182725355029
1772702183686212900,3.430212890625,-0.00261788722127676,0.008139685727655888,-0.00007882956560933962
1772702183696261600,3.44026171875,0.0007321029552258551,0.007417968939989805,-0.0008117315010167658
1772702183706310700,3.450310546875,-0.004002464935183525,0.0070461914874613285,0.0013933659065514803
1772702183716360700,3.460360595703125,-0.001100950757972896,0.007229417096823454,-0.0031166973058134317
1772702183726409700,3.47040966796875,-0.001163002452813089,0.006489857099950314,0.001115864492021501
1772702183736459800,3.480459716796875,-0.001219727797433734,0.007137271575629711,-0.0007832356495782733
1772702183746508500,3.490508544921875,-0.0013022858183830976,0.007597998715937138,-0.0004996090428903699
1772702183756558600,3.50055859375,-0.003347060875967145,0.00785472709685564,-0.0014703312190249562
1772702183766608000,3.51060791015625,-0.0008098672842606902,0.005964415613561869,0.0026165556628257036
1772702183776658000,3.520657958984375,-0.0020591560751199722,0.007220095954835415,-0.00021518341964110732
1772702183786706700,3.530706787109375,0.00006764429417671636,0.007367368787527084,0.0005880259559489787
1772702183796756700,3.5407568359375,-0.0035486621782183647,0.008620386011898518,-0.00015446334145963192
1772702183806805500,3.550805419921875,0.0013486248208209872,0.006734868045896292,0.00037470675306394696
1772702183816855600,3.56085546875,-0.0007403587806038558,0.008174040354788303,0.0021582257468253374
1772702183826904800,3.57090478515625,-0.000007190534688561456,0.0062738750129938126,-0.001213868847116828
1772702183836954600,3.58095458984375,0.00034594463068060577,0.005905559752136469,-0.002288188086822629
1772702183847003600,3.591003662109375,-0.002013882389292121,0.00827710423618555,-0.0009198558400385082
1772702183857053700,3.6010537109375,0.0002798982313834131,0.006046440917998552,-0.001463673310354352
1772702183867102700,3.611102783203125,-0.0029348034877330065,0.00675377668812871,0.0013829795643687248
1772702183877151700,3.62115185546875,-0.0006676545017398894,0.006199306342750788,-0.0008370315190404654
1772702183887201800,3.631201904296875,0.0004261057765688747,0.006127933505922556,0.0000857537888805382
1772702183897250600,3.64125048828125,-0.0022836606949567795,0.00788721814751625,-0.00002956108801299706
1772702183907300600,3.651300537109375,0.0012426309986039996,0.006911968346685171,-0.0005179848521947861
1772702183917350000,3.661349853515625,-0.0034882084000855684,0.005423527676612139,-0.000678307143971324
1772702183927399700,3.671399658203125,-0.0014950985787436366,0.007910121232271194,-0.0024487765040248632
1772702183937448700,3.68144873046875,-0.0003933488915208727,0.007422762457281351,-0.0037289580795913935
1772702183947498800,3.691498779296875,-0.0009560748003423214,0.005889047868549824,0.001184307737275958
1772702183957547800,3.7015478515625,-0.00047830372932367027,0.007870705798268318,-0.0003379551344551146
1772702183967597800,3.711597900390625,-0.001347559504210949,0.0075604477897286415,0.00006657902849838138
1772702183977646600,3.721646484375,-0.0014958975370973349,0.006872553378343582,0.00019707392493728548
1772702183987696600,3.731696533203125,-0.00046685212873853743,0.007232080213725567,-0.0020447750575840473
1772702183997745700,3.74174560546875,-0.0023012375459074974,0.00953917670994997,0.001005343277938664
1772702184007795700,3.751795654296875,-0.00018029600323643535,0.007121026515960693,-0.0005030711181461811
1772702184017844700,3.7618447265625,-0.0006703176186420023,0.007780957501381636,-0.00020266656065359712
1772702184027894800,3.771894775390625,0.0014138722326606512,0.007078415714204311,-0.0004442152567207813
1772702184037943600,3.781943603515625,-0.002478603972122073,0.006936735473573208,-0.0006759102689102292
1772702184047992800,3.791992919921875,-0.0022514364682137966,0.010075537487864494,-0.002459961920976639
1772702184058043000,3.80204296875,-0.000441818410763517,0.008436627686023712,-0.0036517265252768993
1772702184068091600,3.812091552734375,-0.0005930859479121864,0.007166033610701561,-0.000966727442573756
1772702184078141700,3.8221416015625,-0.0010050770360976458,0.006019010208547115,0.001823466387577355
1772702184088190700,3.832190673828125,0.000520647969096899,0.006956176832318306,-0.001406947965733707
1772702184098240500,3.842240478515625,-0.001163268811069429,0.00512924836948514,-0.0009925601771101356
1772702184108289800,3.852289794921875,-0.0024583640042692423,0.0086603332310915,0.0010879012988880277
1772702184118339800,3.86233984375,-0.0002402171230642125,0.005901831202208996,-0.0010972223244607449
1772702184128388600,3.872388671875,0.000945954816415906,0.007161772809922695,-0.001085504423826933
1772702184138438700,3.882438720703125,0.000011185276889591478,0.007881359197199345,0.0003581951605156064
1772702184148487700,3.89248779296875,0.0008849684381857514,0.006195311434566975,0.001785116852261126
1772702184158537700,3.902537841796875,-0.0022485069930553436,0.006682936567813158,-0.0023992417845875025
1772702184168586800,3.912586669921875,-0.0006242449744604528,0.008176703006029129,-0.00018455706594977528
1772702184178636800,3.92263671875,0.0024549018125981092,0.004962534178048372,-0.0007462177309207618
1772702184188685600,3.932685546875,-0.0008844357798807323,0.00845713447779417,-0.0002820287481881678
1772702184198735600,3.942735595703125,-0.002410160843282938,0.008560198359191418,-0.0026695525739341974
1772702184208785000,3.952784912109375,-0.0036916739773005247,0.008701345883309841,0.0013526194961741567
1772702184218833700,3.962833740234375,-0.0033545177429914474,0.006052566226571798,-0.00108284130692482
1772702184228883700,3.9728837890625,-0.0018578211311250925,0.008712797425687313,-0.0008295746520161629
1772702184238932700,3.9829326171875,0.0013158678775653243,0.008805742487311363,0.0021811288315802813
1772702184248982800,3.992982666015625,-0.001207743538543582,0.005860019475221634,-0.0025070998817682266
1772702184259031800,4.00303173828125,-0.002222141483798623,0.007689877413213253,0.00043036683928221464
1772702184269081600,4.01308154296875,0.0005169195355847478,0.006887733470648527,-0.0013350426452234387
1772702184279130600,4.023130615234375,-0.001660214620642364,0.009431584738194942,-0.001568069215863943
1772702184289180700,4.0331806640625,-0.0011712582781910896,0.009370332583785057,-0.000758734589908272
1772702184299229700,4.043229736328125,-0.002332130214199424,0.009726929478347301,-0.00018695391190703958
1772702184309279700,4.05327978515625,-0.0017757958266884089,0.008326373063027859,-0.00025060345069505274
1772702184319328800,4.063328857421875,-0.002229065867140889,0.008246744982898235,-0.0014002900570631027
1772702184329378600,4.073378662109375,-0.0013393036788329482,0.008898686617612839,-0.0025297366082668304
1772702184339427600,4.083427490234375,-0.0034320156555622816,0.00729519734159112,-0.0033630398102104664
1772702184349478000,4.093477783203125,-0.0020154803059995174,0.00797536876052618,-0.0014381069922819734
1772702184359526700,4.103526611328125,-0.0015747271245345473,0.008461661636829376,0.0022748722694814205
1772702184369575700,4.11357568359375,-0.0018463695887476206,0.006479737348854542,0.00017204020696226507
1772702184379625700,4.123625732421875,-0.0007536745979450643,0.005577990785241127,-0.0001715075777610764
1772702184389674800,4.1336748046875,-0.0005816344055347145,0.006461361423134804,-0.0021457087714225054
1772702184399724800,4.143724853515625,-0.0021086910273879766,0.007689877413213253,-0.0018953717080876231
1772702184409773600,4.153773681640625,-0.00010120012302650139,0.01010669581592083,-0.00039414784987457097
1772702184419823600,4.16382373046875,-0.00037710359902121127,0.0067934575490653515,0.003314303932711482
1772702184429872600,4.17387255859375,-0.0026756778825074434,0.007744472473859787,-0.0011518171522766352
1772702184439922700,4.183922607421875,-0.0014543522847816348,0.006205698009580374,-0.003683950752019882
1772702184449971700,4.1939716796875,-0.0008918926469050348,0.006969492416828871,-0.0002639192680362612
1772702184460021800,4.204021728515625,-0.0032945964485406876,0.007029946427792311,-0.0018855180824175477
1772702184470070500,4.214070556640625,-0.0013630058383569121,0.005855225957930088,-0.0022037657909095287
1772702184480120600,4.22412060546875,-0.0007632619817741215,0.0084837656468153,0.00020532972121145576
1772702184490169900,4.234169921875,-0.0014397049089893699,0.006452040281146765,0.0001507349224993959
1772702184500220000,4.244219970703125,-0.0037081853952258825,0.006578007712960243,0.00014887070574332029
1772702184510268700,4.2542685546875,0.0021052288357168436,0.00583738274872303,0.001734250457957387
1772702184520317700,4.264317626953125,-0.0033894050866365433,0.007105580065399408,-0.00009640643111197278
1772702184530367500,4.274367431640625,0.0003070624661631882,0.008086156100034714,-0.002870887517929077
1772702184540416800,4.284416748046875,-0.0033593112602829933,0.006975617725402117,-0.0018303906545042992
1772702184550466800,4.294466796875,-0.000294545607175678,0.005637912079691887,0.000824248360004276
1772702184560515600,4.304515625,-0.00036432043998502195,0.009736250154674053,-0.0010404969798400998
1772702184570565600,4.314565673828125,0.000898550555575639,0.006869357544928789,-0.0025569009594619274
1772702184580614700,4.32461474609375,-0.0026226809713989496,0.007507717236876488,-0.0015670040156692266
1772702184590664400,4.33466455078125,-0.004145210143178701,0.007287207525223494,-0.004102599807083607
1772702184600713500,4.34471337890625,-0.0028541097417473793,0.007831024937331676,-0.00016698020044714212
1772702184610763500,4.354763427734375,-0.0011222560424357653,0.007306648883968592,-0.00239258399233222
1772702184620812500,4.3648125,-0.0010349043877795339,0.006184658966958523,0.0010365023044869304
1772702184630862600,4.374862548828125,-0.00042583944741636515,0.00708773685619235,-0.0003685815026983619
1772702184640911400,4.384911376953125,0.0008135957177728415,0.010353039018809795,-0.000056459015468135476
1772702184650961400,4.39496142578125,-0.00017310546536464244,0.008665659464895725,-0.0013294500531628728
1772702184661010400,4.405010498046875,-0.004451740067452192,0.008688828907907009,0.0006756439688615501
1772702184671060500,4.415060546875,-0.0034011229872703552,0.0067812069319188595,0.0007773766992613673
1772702184681109500,4.425109619140625,-0.0017387778498232365,0.007803861051797867,0.0013614079216495156
1772702184691158500,4.435158447265625,-0.00049082055920735,0.006958307232707739,0.0008482168195769191
1772702184701208300,4.445208251953125,0.0001246359315700829,0.008284294977784157,-0.0014777880860492587
1772702184711257300,4.45525732421875,-0.0026788737159222364,0.008942361921072006,0.000264718197286129
1772702184721307400,4.465307373046875,-0.0019044264918193221,0.008156197145581245,-0.00042264367220923305
1772702184731356400,4.4753564453125,0.00023915186466183513,0.006964432541280985,-0.0009683253592811525
1772702184741406500,4.485406494140625,-0.0033992587123066187,0.008249673992395401,-0.0012290488230064511
1772702184751455500,4.49545556640625,-0.0028818065766245127,0.00785792339593172,0.0015030881622806191
1772702184761505300,4.50550537109375,-0.0000327568814100232,0.006994526367634535,-0.000708134553860873
1772702184771554600,4.515554443359375,-0.00012223910016473383,0.008888034150004387,-0.0020208065398037434
1772702184781604600,4.5256044921875,-0.002609098795801401,0.00697774812579155,-0.0007305050967261195
1772702184791653400,4.5356533203125,-0.0010522148804739118,0.008323709480464458,0.00037257623625919223
1772702184801703400,4.545703369140625,-0.00025220136740244925,0.007502391003072262,-0.0005467469454742968
1772702184811752400,4.55575244140625,0.00012170646368758753,0.008314122445881367,0.0015022892039269209
1772702184821802500,4.565802490234375,-0.0021196098532527685,0.006105829495936632,-0.0014122743159532547
1772702184831851500,4.5758515625,-0.0026575683150440454,0.007788947317749262,0.00033955302205868065
1772702184841901600,4.585901611328125,-0.0014333132421597838,0.005536179058253765,0.002548911375924945
1772702184851950300,4.595950439453125,-0.0017749968683347106,0.005710882600396872,-0.000025832661776803434
1772702184861999600,4.60599951171875,-0.0009113337146118283,0.003778226673603058,-0.003519633784890175
1772702184872049700,4.616049560546875,-0.0006210491410456598,0.007309844717383385,-0.0024080302100628614
1772702184882098400,4.626098388671875,-0.002389654517173767,0.007211573887616396,-0.001564873498864472
1772702184892148500,4.6361484375,-0.0010833739070221782,0.0065537733025848866,0.00040293627534992993
1772702184902197200,4.646197265625,-0.0011044129496440291,0.006869890261441469,-0.0016676714876666665
1772702184912247300,4.656247314453125,-0.0005432848702184856,0.006244580261409283,-0.0016884441720321774
1772702184922296600,4.666296630859375,-0.0008815063047222793,0.006588127929717302,0.0030120352748781443
1772702184932346400,4.676346435546875,-0.0024256070610135794,0.007416903506964445,-0.004238953348249197
1772702184942395400,4.6863955078125,0.0011696603614836931,0.009017730131745338,-0.00037257623625919223
1772702184952445400,4.696445556640625,-0.0006785734440200031,0.007012103218585253,0.0009885653853416443
1772702184962494500,4.706494384765625,-0.0016737966798245907,0.007111439015716314,-0.0024823325220495462
1772702184972544500,4.71654443359375,-0.00019281286222394556,0.008022240363061428,-0.0034706315491348505
1772702184982593500,4.726593505859375,-0.0006402239087037742,0.008706139400601387,-0.00022929816623218358
1772702184992643300,4.736643310546875,-0.0023731428664177656,0.004738562274724245,-0.00022024342615623027
1772702185002692400,4.7466923828125,-0.001990446588024497,0.007127684075385332,0.0006498112925328314
1772702185012741600,4.75674169921875,-0.0013230583863332868,0.0064866612665355206,-0.0015821839915588498
1772702185022791400,4.76679150390625,0.0007488809060305357,0.005815810989588499,-0.0005161206354387105
1772702185032840400,4.77684033203125,0.0028122980147600174,0.00788615271449089,0.0035087147261947393
1772702185042890500,4.786890380859375,-0.003498861100524664,0.009863549843430519,-0.0006111954571679235
1772702185052939500,4.796939453125,-0.0013028184184804559,0.008840629830956459,-0.00010519486386328936
1772702185062989600,4.806989501953125,0.001570998691022396,0.006321811582893133,-0.0012338425731286407
1772702185073038300,4.817038330078125,0.0003020024741999805,0.005687713157385588,-0.000313986703986302
1772702185083088400,4.82708837890625,-0.0014194648247212172,0.006905043963342905,0.0017683389596641064
1772702185093137400,4.837137451171875,-0.00022024342615623027,0.008475244045257568,-0.0006122607155703008
1772702185103187500,4.8471875,-0.002511627273634076,0.005846703890711069,-0.002353435382246971
1772702185113236500,4.857236572265625,-0.0010463559301570058,0.007631554268300533,-0.0014183996245265007
1772702185123286500,4.86728662109375,-0.000663393409922719,0.00797190610319376,0.0019379822770133615
1772702185133335300,4.877335205078125,-0.0002996056282427162,0.0027446537278592587,0.00009747169679030776
1772702185143385300,4.88738525390625,-0.00028628981090150774,0.007165767718106508,-0.00026604978484101593
1772702185153434600,4.8974345703125,-0.0020535634830594063,0.00475374236702919,0.0015219965716823936
1772702185163483400,4.9074833984375,-0.002669020090252161,0.011059841141104698,-0.001178182428702712
1772702185173533400,4.917533447265625,0.0002487392339389771,0.0065316688269376755,-0.0008141283178701997
1772702185183582500,4.92758251953125,0.0013222594279795885,0.008658469654619694,0.0018690064316615462
1772702185193632300,4.93763232421875,0.0014660701854154468,0.006088519003242254,-0.0023752732668071985
1772702185203681500,4.947681640625,-0.00014141385327093303,0.00977646466344595,0.00043542683124542236
1772702185213731600,4.957731689453125,-0.0009616674506105483,0.008013717830181122,-0.0008024104172363877
1772702185223780400,4.9677802734375,-0.000005592638444795739,0.008221444673836231,-0.0007001450285315514
1772702185233830400,4.977830322265625,-0.0008293083519674838,0.007833155803382397,-0.0018034926615655422
1772702185243879700,4.987879638671875,-0.0012330436147749424,0.009939183481037617,-0.0007584682898595929
1772702185253929500,4.997929443359375,0.0009648632840253413,0.005336974747478962,-0.002130528911948204
1772702185263978500,5.007978515625,-0.002375007141381502,0.005008340813219547,-0.0010016148444265127
1772702185274028500,5.018028564453125,-0.0016050871927291155,0.009220129810273647,-0.0029142971616238356
1772702185284077300,5.028077392578125,-0.00013662016135640442,0.007497331127524376,0.002673813607543707
1772702185294127400,5.03812744140625,0.0009076052810996771,0.010085923597216606,0.0009872338268905878
1772702185304176600,5.0481767578125,-0.0022687469609081745,0.009038502350449562,0.0010335728293284774
1772702185314225400,5.058225341796875,-0.0008676578872837126,0.008295213803648949,-0.002311357529833913
1772702185324275500,5.068275390625,-0.0020985708106309175,0.008951683528721333,-0.00039068571641109884
1772702185334324500,5.078324462890625,-0.00004740426811622456,0.005936718545854092,0.0006034722900949419
1772702185344374500,5.08837451171875,-0.002686330582946539,0.00833569373935461,0.0012058793799951673
1772702185354423600,5.098423583984375,0.0012122709304094315,0.008167915046215057,-0.0011725898366421461
1772702185364473300,5.108473388671875,0.0004218447138555348,0.00782649777829647,-0.000176301269675605
1772702185374522400,5.1185224609375,-0.0009840379934757948,0.008563394658267498,0.0020602215081453323
1772702185384572400,5.128572509765625,-0.0026844663079828024,0.009635583497583866,-0.00024474450037814677
1772702185394621400,5.138621337890625,-0.0005611280212178826,0.009207080118358135,0.0004308994684834033
1772702185404671500,5.14867138671875,-0.0002306297537870705,0.005940180737525225,-0.00033209618413820863
1772702185414720500,5.158720458984375,-0.0010463559301570058,0.008666458539664745,-0.0023273364640772343
1772702185424770300,5.168770263671875,-0.002825347473844886,0.00705711031332612,-0.0014950985787436366
1772702185434819600,5.178819580078125,-0.00021491710504051298,0.005853361915796995,-0.0015041533624753356
1772702185444869600,5.18886962890625,-0.0016050871927291155,0.007682154420763254,0.0001637844106880948
1772702185454918400,5.19891845703125,-0.00016591492749284953,0.009610283188521862,-0.001755289500579238
1772702185464967400,5.208967529296875,-0.0012775183422490954,0.003793406533077359,0.0003741741238627583
1772702185475017500,5.219017578125,-0.0014144048327580094,0.005006742663681507,-0.0003760383406188339
1772702185485066500,5.22906640625,-0.0007637945818714797,0.007299990858882666,-0.001990180229768157
1772702185495116500,5.239116455078125,-0.0005520732956938446,0.008015582337975502,0.0015030881622806191
1772702185505165300,5.249165283203125,-0.0022479742765426636,0.0060048955492675304,0.00024980452144518495
1772702185515215400,5.25921533203125,-0.002258094260469079,0.006852846127003431,-0.00018855179951060563
1772702185525264400,5.269264404296875,-0.0012780509423464537,0.008345015347003937,-0.0004921521758660674
1772702185535314400,5.279314453125,-0.001005343277938664,0.009533051401376724,-0.0006119944155216217
1772702185545363500,5.289363525390625,0.002305764937773347,0.006337524391710758,0.002037584548816085
1772702185555413500,5.29941357421875,-0.00009720538218971342,0.006484264507889748,0.0015701997326686978
1772702185565462300,5.309462158203125,-0.0024261397775262594,0.008255000226199627,-0.0026972496416419744
1772702185575511600,5.319511474609375,0.0003201119543518871,0.006367618218064308,-0.00047643951256759465
1772702185585561300,5.329561279296875,-0.0027947211638092995,0.006671218667179346,-0.0001757686259225011
1772702185595610000,5.339610107421875,0.0011515507940202951,0.008045676164329052,0.001868207473307848
1772702185605659100,5.3496591796875,-0.0008777778712101281,0.007730624172836542,-0.0009566074586473405
1772702185615709200,5.359709228515625,-0.0004463458026293665,0.007084008306264877,0.00023276027059182525
1772702185625758200,5.36975830078125,0.001419198582880199,0.009021724574267864,-0.00012756542128045112
1772702185635808300,5.379808349609375,-0.0012322446564212441,0.007602259516716003,0.00005246427463134751
1772702185645857000,5.38985693359375,-0.00017550231132190675,0.007980694994330406,-0.0021435783710330725
1772702185655907000,5.399906982421875,-0.0016474314033985138,0.008560198359191418,-0.0023467775899916887
1772702185665956400,5.409956298828125,-0.0006668555433861911,0.005377987399697304,-0.001050084363669157
1772702185676006400,5.42000634765625,0.00019201391842216253,0.007781223859637976,0.0001270327775273472
1772702185686055200,5.43005517578125,-0.00012357067316770554,0.006001699715852737,-0.00018322547839488834
1772702185696105200,5.440105224609375,-0.0008625978953205049,0.007706922013312578,-0.0022157500497996807
1772702185706154000,5.450154052734375,-0.002612827345728874,0.008315454237163067,0.0012508867075666785
1772702185716204300,5.460204345703125,-0.0011909656459465623,0.0070424629375338554,0.0034884747583419085
1772702185726253300,5.47025341796875,0.0003656520275399089,0.00746217742562294,0.001061802264302969
1772702185736303000,5.48030322265625,-0.0004751079250127077,0.006173207424581051,-0.0028570392169058323
1772702185746352000,5.49035205078125,0.0013374395202845335,0.0070222229696810246,-0.002046106616035104
1772702185756401400,5.5004013671875,0.002376871183514595,0.006986270658671856,-0.0007627293234691024
1772702185766451200,5.510451171875,-0.0009914948605000973,0.006432066671550274,0.0004082625964656472
1772702185776500200,5.520500244140625,-0.0003081277245655656,0.005891445092856884,0.0009930927772074938
1772702185786550300,5.53055029296875,-0.0006905576447024941,0.010206298902630806,-0.002183259464800358
1772702185796599000,5.54059912109375,-0.00007110639853635803,0.004999818746000528,-0.0005781722720712423
1772702185806649000,5.550649169921875,0.000028229507734067738,0.008932774886488914,-0.001469798618927598
1772702185816698400,5.560698486328125,0.00012729909212794155,0.00592633243650198,0.0008253136184066534
1772702185826748200,5.570748046875,-0.0015062838792800903,0.005902097560465336,0.00040293627534992993
1772702185836797200,5.580797119140625,0.0001536643976578489,0.008853412233293056,0.00242107966914773
1772702185846847200,5.59084716796875,-0.0024311996530741453,0.008225705474615097,0.0010375675046816468
1772702185856896300,5.600896240234375,-0.002433863002806902,0.009812682867050171,-0.0033518546260893345
1772702185866946300,5.6109462890625,-0.001975532853975892,0.008085090667009354,-0.0033888723701238632
1772702185876995000,5.6209951171875,-0.0010615360224619508,0.008385495282709599,-0.0016639430541545153
1772702185887045000,5.631045166015625,-0.0006641923682764173,0.003856523660942912,0.001002413802780211
1772702185897094100,5.64109423828125,-0.0019017633749172091,0.006757771130651236,-0.003073287894949317
1772702185907144200,5.651144287109375,0.0006471481174230576,0.006625412032008171,0.0008018778171390295
1772702185917193200,5.661193115234375,-0.00253479671664536,0.006943659856915474,0.00133850472047925
1772702185927242200,5.6712421875,-0.0020564929582178593,0.008737298659980297,-0.0005656554130837321
1772702185937292000,5.6812919921875,0.0002695118892006576,0.005371862091124058,-0.001118793967179954
1772702185947341300,5.69134130859375,-0.00016724651504773647,0.00686190091073513,0.0005752427969127893
1772702185957391400,5.701391357421875,0.0001531317684566602,0.006593720521777868,-0.001377386855892837
1772702185967440100,5.711440185546875,-0.0025209481827914715,0.006989466026425362,-0.0015310513554140925
1772702185977490200,5.721490234375,-0.00048709215479902923,0.007514641620218754,-0.0005744438385590911
1772702185987539200,5.731539306640625,0.0005033374181948602,0.008145278319716454,-0.002886600326746702
1772702185997589000,5.741589111328125,-0.00039468047907575965,0.003965446725487709,-0.0006242449744604528
1772702186007638300,5.75163818359375,-0.0019462381023913622,0.007919974625110626,0.000031425301131093875
1772702186017688300,5.761688232421875,-0.0000500674286740832,0.007325024344027042,-0.00015712650201749057
1772702186027737000,5.771737060546875,-0.0044440170750021935,0.00875061471015215,-0.0018498316640034318
1772702186037787100,5.781787109375,-0.002623746171593666,0.007750331424176693,0.0005693838465958834
1772702186047836400,5.79183642578125,-0.0010042780777439475,0.006482933182269335,-0.003123888047412038
1772702186057885200,5.80188525390625,0.0006940197781659663,0.007864048704504967,0.0017728663515299559
1772702186067935200,5.811935302734375,-0.002177666872739792,0.011048922315239906,-0.0024264061357825994
1772702186077984000,5.82198388671875,-0.0011867046123370528,0.007819573394954205,-0.0013677994720637798
1772702186088034000,5.832033935546875,-0.000577107013668865,0.006406234111636877,-0.0022234732750803232
1772702186098083300,5.842083251953125,-0.0034732946660369635,0.005874666851013899,-0.0017427726415917277
1772702186108133400,5.85213330078125,-0.0004577973741106689,0.00785659160465002,-0.0005174521938897669
1772702186118182100,5.86218212890625,-0.0014223942998796701,0.007227553054690361,-0.00002370213405811228
1772702186128232200,5.872232177734375,0.0006705839768983424,0.007375624496489763,0.0015608787070959806
1772702186138281200,5.88228125,-0.0029047098942101,0.006000634748488665,-0.0012993563432246447
1772702186148331300,5.892331298828125,0.0013528858544304967,0.0075604477897286415,0.0037670412566512823
1772702186158380300,5.90238037109375,-0.003659183392301202,0.008225439116358757,-0.0003123887872789055
1772702186168430000,5.91243017578125,-0.000020506340661086142,0.005155080929398537,0.0001954760227818042
1772702186178479000,5.92247900390625,0.0005597964627668262,0.008702411316335201,-0.00018668759730644524
1772702186188529200,5.932529052734375,0.0003832288784906268,0.008157795295119286,-0.0012247877893969417
1772702186198578200,5.942578125,-0.00022530343267135322,0.007391337305307388,-0.0006348976166918874
1772702186208628200,5.952628173828125,0.000006125270374468528,0.007156978826969862,0.00013688647595699877
1772702186218677200,5.96267724609375,-0.004262655507773161,0.005561213009059429,-0.0011914982460439205
1772702186228726300,5.972726318359375,-0.0011033476330339909,0.008433965034782887,0.001172323478385806
1772702186238776300,5.9827763671875,-0.0017867147689685225,0.004877845756709576,-0.0014591459184885025
1772702186248825300,5.992825439453125,0.00017070861940737814,0.0073141055181622505,0.0010894992155954242
1772702186258875100,6.002875244140625,-0.0009004147723317146,0.006816893350332975,0.00018961707246489823
1772702186268924200,6.012924072265625,-0.0026676885318011045,0.007765777874737978,0.002656503114849329
1772702186278974200,6.02297412109375,-0.0003856257244478911,0.00881799217313528,-0.00017337177996523678
1772702186289023200,6.033023193359375,-0.0015805860748514533,0.007495732977986336,-0.0011408982099965215
1772702186299073300,6.0430732421875,-0.0024258734192699194,0.0075964005663990974,-0.0016173376934602857
1772702186309122300,6.053122314453125,0.0006021407316438854,0.009673932567238808,0.0009973538108170033
1772702186319172000,6.063172119140625,0.0004308994684834033,0.004818190820515156,-0.0014940333785489202
1772702186329221400,6.073221435546875,-0.0011608719360083342,0.004988899454474449,-0.0012056130217388272
1772702186339271400,6.083271484375,0.001883387565612793,0.005456018261611462,0.0010849718237295747
1772702186349320200,6.0933203125,-0.0010064085945487022,0.005077050067484379,0.0013789847726002336
1772702186359370200,6.103370361328125,-0.0017994979862123728,0.00720571493729949,0.001570998691022396
1772702186369419000,6.1134189453125,0.0008905610884539783,0.00705711031332612,0.00019148127466905862
1772702186379468300,6.12346826171875,-0.00040000680019147694,0.006705839652568102,-0.0013028184184804559
1772702186389518300,6.133518310546875,-0.0008325041271746159,0.007283479440957308,0.0003789678157772869
1772702186399567000,6.143567138671875,-0.004583566449582577,0.006454170681536198,-0.0022620889358222485
1772702186409617200,6.1536171875,-0.0011427623685449362,0.009521599858999252,0.0005824333056807518
1772702186419666200,6.163666259765625,-0.0037052559200674295,0.006646717432886362,0.002238120650872588
1772702186429716200,6.17371630859375,0.0015731292078271508,0.007890946231782436,0.00027377295191399753
1772702186439765200,6.18376513671875,-0.0005275722360238433,0.007728759665042162,0.0002894856152124703
1772702186449815300,6.193815185546875,-0.003850131994113326,0.006097573786973953,0.0004814995336346328
1772702186459864000,6.203864013671875,-0.0031105722300708294,0.006539658177644014,-0.004293548408895731
1772702186469914000,6.2139140625,-0.0006447513005696237,0.007898403331637383,0.0007371630053967237
1772702186479963400,6.22396337890625,-0.0019206717843189836,0.007556186988949776,-0.000031425301131093875
1772702186490013200,6.23401318359375,0.00043569316039793193,0.005832322873175144,0.0005850964807905257
1772702186500062200,6.244062255859375,-0.0033036512322723866,0.007232346571981907,0.0023158849216997623
1772702186510112300,6.2541123046875,-0.0022863238118588924,0.007986820302903652,-0.00018615495355334133
1772702186520161000,6.2641611328125,-0.0018405106384307146,0.006088252644985914,0.0005752427969127893
1772702186530211300,6.27421142578125,-0.002351038623601198,0.0073255570605397224,-0.0012242551892995834
1772702186540260400,6.28426025390625,-0.0001531317684566602,0.007650729268789291,0.0024136228021234274
1772702186550309000,6.29430908203125,0.0008173241512849927,0.008621451444923878,-0.0037025928031653166
1772702186560359200,6.304359130859375,0.001032241270877421,0.007750065065920353,0.0002359560749027878
1772702186570408200,6.314408203125,-0.0010154632618650794,0.008133027702569962,-0.0016138756182044744
1772702186580458200,6.324458251953125,-0.0029372002463787794,0.009632387198507786,0.00009933590627042577
1772702186590507300,6.33450732421875,-0.0015989618841558695,0.006633135490119457,0.00046312372433021665
1772702186600557300,6.344557373046875,-0.0019824570044875145,0.006443784572184086,-0.0020450414158403873
1772702186610606300,6.3546064453125,-0.0009981527691707015,0.005455485545098782,-0.0021973741240799427
1772702186620656000,6.36465625,-0.0031039142049849033,0.008824117481708527,-0.0020703414920717478
1772702186630705400,6.374705322265625,-0.0007422229973599315,0.008688562549650669,-0.0026610305067151785
1772702186640755500,6.38475537109375,0.0011201255256310105,0.006644853390753269,-0.002414954360574484
1772702186650804200,6.39480419921875,-0.0006399576086550951,0.008162056095898151,-0.0017156084068119526
1772702186660854300,6.404854248046875,-0.0032650355715304613,0.008049936965107918,-0.0011092065833508968
1772702186670903600,6.414903564453125,0.0001233043585671112,0.006958573590964079,-0.0024748756550252438
1772702186680953300,6.424953369140625,-0.001541171339340508,0.008104265667498112,0.00003914846820407547
1772702186691002400,6.43500244140625,-0.0026043052785098553,0.007363373879343271,-0.001573928166180849
1772702186701051100,6.445051025390625,-0.002829342382028699,0.006835535634309053,-0.0008847020799294114
1772702186711101200,6.45510107421875,-0.005643771030008793,0.008384696207940578,-0.002171807922422886
1772702186721150500,6.465150390625,0.00039228363311849535,0.005304217804223299,-0.00046099317842163146
1772702186731200300,6.4752001953125,0.00046818371629342437,0.008834770880639553,-0.0017752632265910506
1772702186741249300,6.485249267578125,-0.0009395632077939808,0.00592659879475832,-0.0010128001449629664
1772702186751299300,6.49529931640625,-0.000185888638952747,0.007060039788484573,0.0014452975010499358
1772702186761348400,6.505348388671875,-0.0026200178544968367,0.007309045642614365,0.0021766014397144318
1772702186771398400,6.5153984375,-0.00213665422052145,0.008888832293450832,-0.001088433898985386
1772702186781447400,6.525447509765625,0.002356364857405424,0.007449394091963768,0.002602973720058799
1772702186791497200,6.535497314453125,-0.0016016251174733043,0.005315402988344431,-0.0033776871860027313
1772702186801546200,6.545546142578125,-0.001005343277938664,0.020723121240735054,0.006607302464544773
1772702186811596300,6.55559619140625,-0.004578506574034691,0.20411212742328644,0.09576886892318726
1772702186821645300,6.565645263671875,-0.007734352257102728,0.30336838960647583,0.1493535339832306
1772702186831694300,6.5756943359375,0.0037382792215794325,-0.08359476178884506,-0.04142307490110397
1772702186841744400,6.585744384765625,-0.001999235013499856,-0.004257595632225275,-0.004884770140051842
1772702186851793400,6.59579345703125,0.00015712650201749057,0.0070491209626197815,-0.0007781756576150656
1772702186861843500,6.605843505859375,-0.0016405072528868914,0.003936951048672199,-0.00018562232435215265
1772702186871892200,6.615892333984375,-0.0005352954030968249,-0.004237089306116104,-0.00959536898881197
1772702186881942300,6.6259423828125,-0.0019289276096969843,-0.06006866320967674,-0.038247521966695786
1772702186891991300,6.6359912109375,0.0038088529836386442,-0.1520310789346695,-0.08026794344186783
1772702186902041300,6.646041259765625,0.002383262850344181,-0.2326899766921997,-0.11305464804172516
1772702186912090400,6.65609033203125,-0.00472551304847002,0.05012521892786026,0.02244378998875618
1772702186922140400,6.666140380859375,-0.000758734589908272,0.020418722182512283,0.006906109396368265
1772702186932189200,6.676189208984375,0.00307568465359509,-0.060565076768398285,-0.032137431204319
