time,seconds_elapsed,z,y,x
1772697892935391500,0.0673916015625,0.15954524978995321,-0.06497253064811229,0.04720014259219169
1772697892945439500,0.077439453125,0.13096271390616893,-0.02283171727210283,0.0009194529324769973
1772697892955488500,0.087488525390625,0.1651011303514242,0.058385553473234174,-0.08742050929963588
1772697892965537500,0.09753759765625,0.16015256803333758,0.10558218893408775,-0.06504968753755093
1772697892975586300,0.10758642578125,0.08257190022468566,0.1928796563759446,-0.1208516542583704
1772697892985634600,0.117634521484375,0.029511341166496275,0.25851883423924443,-0.19758242723941802
1772697892995683300,0.127683349609375,-0.06383212844133376,0.29513620801866053,-0.2927186254829168
1772697893005732600,0.137732666015625,-0.061245034557580944,0.28263591514676806,-0.304286898201704
1772697893015781600,0.14778173828125,-0.04570376655459404,0.22946926536560058,-0.3167816381156444
1772697893025829600,0.15782958984375,-0.02377250525355339,0.1882619334474206,-0.3045481794863939
1772697893035878700,0.167878662109375,0.0030512042641639707,0.17825521095693111,-0.29405191991329194
1772697893045927400,0.177927490234375,0.05596271024048328,0.1800388795033097,-0.3023176439553499
1772697893055976700,0.187976806640625,0.08543196583092212,0.09082593382894992,-0.27759879776239393
1772697893066024400,0.1980244140625,0.09362287107110023,0.06167173553705215,-0.2881248679518699
1772697893076073700,0.20807373046875,0.09392273080050945,0.0372243997618556,-0.2353676757544279
1772697893086122500,0.21812255859375,0.10415127934813499,-0.020972937662899493,-0.1946200703024864
1772697893096171500,0.228171630859375,0.1349988375544548,-0.051665305307507514,-0.21227730754613874
1772697893106219500,0.238219482421875,0.12607377282083035,-0.07145049449056387,-0.16109890897274015
1772697893116268500,0.2482685546875,0.09184417096078396,-0.10126549477875232,-0.06277063668966293
1772697893126317600,0.258317626953125,0.025967969471216202,-0.1382291977778077,0.00800035110414028
1772697893136365600,0.268365478515625,-0.06589373714625835,-0.16402181068211794,0.049638183394074435
1772697893146414600,0.27841455078125,-0.14124796107709406,-0.22534341760724783,0.012204817056655883
1772697893156463600,0.288463623046875,-0.13949439540803432,-0.2338087558746338,-0.13079963229894637
1772697893166512400,0.298512451171875,-0.20959785920381543,-0.3208291599407792,-0.17444471275806425
1772697893176560600,0.308560546875,-0.3352490226984024,-0.3436477254703641,-0.253575532618165
1772697893186609400,0.318609375,-0.4575491221994161,-0.3360989175260067,-0.3130921359479427
1772697893196658700,0.32865869140625,-0.4352162943601608,-0.3699412736341357,-0.32142157287597656
1772697893206707500,0.33870751953125,-0.4242214376151561,-0.3704471773296594,-0.2331371402233839
1772697893216755700,0.348755615234375,-0.4667483276993036,-0.37373832782953975,-0.0996411084473133
1772697893226804500,0.358804443359375,-0.49148003337383267,-0.321997034676373,0.0010153145223855973
1772697893236853500,0.368853515625,-0.5104436770409345,-0.24075872114300725,0.03196282597184181
1772697893246902800,0.37890283203125,-0.5418377632141113,-0.20352730711847541,0.0679436554133892
1772697893256950500,0.388950439453125,-0.5610533358156681,-0.18517478108704089,0.011992051088809966
1772697893266999600,0.39899951171875,-0.5911801785320043,-0.22164134821891784,-0.007430442261695862
1772697893277048600,0.409048583984375,-0.6161778416663408,-0.227359141343832,0.028709377133846282
1772697893287097600,0.41909765625,-0.6334709217727184,-0.23065730610638854,0.007001403194665908
1772697893297145600,0.4291455078125,-0.5726391441911458,-0.2186389515325427,-0.1053401968717575
1772697893307194600,0.439194580078125,-0.5031617033392191,-0.24188275673687457,-0.0949140799254179
1772697893317243600,0.44924365234375,-0.46331659968495364,-0.2796922629103064,-0.06397299821674823
1772697893327292700,0.459292724609375,-0.39983869150876994,-0.23659780207127332,-0.05067512522637844
1772697893337340700,0.469340576171875,-0.3466296638906002,-0.163754976439476,-0.07850771952569484
1772697893347389700,0.4793896484375,-0.31026831069886684,-0.1262760173946619,-0.15673311497867107
1772697893357438500,0.4894384765625,-0.29064766442775725,-0.09930763870924711,-0.26709786201417446
1772697893367487700,0.49948779296875,-0.27865327525138855,-0.10052958171963691,-0.2867272761136293
1772697893377535500,0.509535400390625,-0.2914975592553615,-0.10283055213838815,-0.27873510831594467
1772697893387584800,0.519584716796875,-0.27329379404485227,-0.13412439280748367,-0.25003566805422306
1772697893397633500,0.529633544921875,-0.31700784808695315,-0.1258250587567687,-0.23062194253206253
1772697893407682600,0.5396826171875,-0.3594172492712736,-0.09005231910794972,-0.26913492079973217
1772697893417730600,0.54973046875,-0.4242681993663311,0.00030979660153388974,-0.29144553680717944
1772697893427779600,0.559779541015625,-0.5139373643755912,0.07289630938470364,-0.34073534515500065
1772697893437828600,0.56982861328125,-0.5190004929840565,0.13034399748593567,-0.4052829283893108
1772697893447877600,0.579877685546875,-0.5361123713046312,0.195415312333405,-0.41076223658323285
1772697893457925600,0.589925537109375,-0.4947299750804901,0.19694997455477714,-0.3421031263768673
1772697893467974700,0.599974609375,-0.46312195389568805,0.09433540325462818,-0.4949637838363647
1772697893478023400,0.6100234375,-0.4639852927267551,0.06340601198375224,-0.464392119961977
1772697893488072700,0.62007275390625,-0.4767997661143541,-0.10447393543124198,-0.553677254089713
1772697893498120400,0.630120361328125,-0.5351601851463318,-0.06595131255239248,-0.5406389088183641
1772697893508169700,0.640169677734375,-0.5382791939496994,-0.10568564930856228,-0.5356698882341384
1772697893518218500,0.650218505859375,-0.5495253951072693,-0.04142331275641918,-0.5322276388257742
1772697893528267500,0.660267578125,-0.44632337930798527,-0.018690379683673382,-0.5485515816390514
1772697893538315500,0.6703154296875,-0.3144645933449268,-0.061276891000568864,-0.5956582007288932
1772697893548364500,0.680364501953125,-0.11390051994621753,-0.07510404856204986,-0.6681921065419912
1772697893558413600,0.69041357421875,0.04992167651057243,-0.12330313906371593,-0.6140753164291382
1772697893568462600,0.700462646484375,0.14988719460666178,-0.15875819106549025,-0.5416530542969703
1772697893578510600,0.710510498046875,0.1802986994832754,-0.20857728398442268,-0.49268005681335925
1772697893588559600,0.7205595703125,0.16395897457897662,-0.26107290263622995,-0.44086452938020226
1772697893598608400,0.7306083984375,0.15970423974394798,-0.3071025401443243,-0.3996346933692693
1772697893608657700,0.74065771484375,0.07643734299242497,-0.3466168044090271,-0.32361703709363937
1772697893618705400,0.750705322265625,0.025043255841732025,-0.3850783447504043,-0.28909108263552186
1772697893628754700,0.760754638671875,-0.04491933817863464,-0.4155968171328306,-0.22798516428768634
1772697893638803500,0.770803466796875,-0.10784370412528514,-0.4323877929359674,-0.1762111379086971
1772697893648852500,0.7808525390625,-0.12746844204962252,-0.41833121053278444,-0.12623802347183227
1772697893658900500,0.790900390625,-0.1502881766229868,-0.4181444557890296,-0.1703817011028528
1772697893668949500,0.800949462890625,-0.23457740215957162,-0.3833770937904715,-0.17377134354114532
1772697893678998800,0.810998779296875,-0.29119185430705546,-0.37805063807070255,-0.21812369548678398
1772697893689047600,0.821047607421875,-0.3229261322200298,-0.36964959721118207,-0.19477789121270178
1772697893699095600,0.831095458984375,-0.40643677459955213,-0.34732553720027204,-0.1786082621783018
1772697893709144600,0.84114453125,-0.4064093020707369,-0.36105683317184445,-0.1700023463964462
1772697893719193600,0.851193603515625,-0.4150041119366884,-0.3571799917384982,-0.23003215994536874
1772697893729241600,0.86124169921875,-0.4549766413629055,-0.3870128199443221,-0.2808890714794397
1772697893739290400,0.871290283203125,-0.5076607683241368,-0.4038914740309119,-0.3801110777318477
1772697893749339600,0.881339599609375,-0.48775312180519104,-0.3756181502267718,-0.3714338502794504
1772697893759388700,0.891388671875,-0.5470318247258663,-0.33935236636400223,-0.30102175892591476
1772697893769437400,0.9014375,-0.6080711075782775,-0.26316899813264605,-0.25355624339580535
1772697893779485700,0.911485595703125,-0.6364964070737361,-0.17851561545878647,-0.10207096594274044
1772697893789534500,0.921534423828125,-0.6517173570811748,-0.19444880538880824,0.10177519786655902
1772697893799583700,0.931583740234375,-0.5562374599665403,-0.1689820634379983,0.2745990314245224
1772697893809632500,0.941632568359375,-0.48579205086529254,-0.12033142977654933,0.45692076116800306
1772697893819680800,0.9516806640625,-0.3883060746252536,-0.10919307290762663,0.5489724373996258
1772697893829729500,0.9617294921875,-0.44182372980117796,-0.07686258266717196,0.6372405034393072
1772697893839778600,0.971778564453125,-0.5621171656548977,-0.10566723686903715,0.6598661767452955
1772697893849826600,0.98182666015625,-0.6727940473794937,-0.024570377632975576,0.596072626748681
1772697893859875600,0.99187548828125,-0.6649649611890316,0.013224223232269286,0.5488590401530266
1772697893869924600,1.001924560546875,-0.5786351697355508,-0.019207389295101164,0.4806675474584102
1772697893879973600,1.0119736328125,-0.5542623605012893,-0.03814297591149807,0.2947895865380764
1772697893890021600,1.022021728515625,-0.46838966516554353,-0.06070259824395179,0.12045768650472163
1772697893900070700,1.032070556640625,-0.31018004789352416,-0.02044014596045017,0.04843815995454788
1772697893910119400,1.042119384765625,-0.17753917164206504,-0.02377718142867088,-0.09998188470900059
1772697893920168700,1.052168701171875,-0.10856617318093777,-0.0927349823206663,-0.12221008313000202
1772697893930216400,1.062216552734375,-0.12067045247256755,-0.15019406859874723,-0.14013152426779268
1772697893940265700,1.072265625,-0.30041970137953755,-0.18330138843059537,-0.14912147093117237
1772697893950314500,1.082314453125,-0.253564426702261,-0.15148498519212006,-0.1848638154417276
1772697893960363500,1.092363525390625,-0.34493981110751626,-0.15438918220102787,-0.07050444581210613
1772697893970411500,1.10241162109375,-0.3102957832276821,-0.12419015103131532,-0.012945406290888785
1772697893980460500,1.11246044921875,-0.4015355585545301,-0.09083382487446069,0.050042088019847865
1772697893990509600,1.122509521484375,-0.4664642500609159,-0.09075345311462879,0.05455108987689018
1772697894000558600,1.13255859375,-0.5203080684512853,-0.009017126931250095,0.007875263419747352
1772697894010606600,1.142606689453125,-0.5443231502890586,-0.0068622869849205015,-0.03065875763595104
1772697894020655400,1.1526552734375,-0.4817465748667717,-0.08815613009780644,0.03363572762012482
1772697894030704400,1.162704345703125,-0.39226445686221123,-0.19503566536605357,0.07265607088804245
1772697894040753700,1.172753662109375,-0.28001111960113045,-0.32155747421532865,0.10232640200853348
1772697894050801400,1.182801513671875,-0.192925541344285,-0.37447307184487577,0.14354863923490047
1772697894060850700,1.1928505859375,-0.10517536169886589,-0.4022279247328639,0.1062333463191986
1772697894070899500,1.2028994140625,-0.013840309303998946,-0.4494064400151372,0.12460019313693046
1772697894080948500,1.212948486328125,0.12108604753613471,-0.43952480520904064,0.13554068934619426
1772697894090996500,1.22299658203125,0.19911387459039687,-0.3913897198542952,0.1899187607437372
1772697894101045500,1.23304541015625,0.2632406020641327,-0.391871365891397,0.21816811915040016
1772697894111094500,1.243094482421875,0.2939204024881124,-0.3565393557474017,0.18411738098859787
1772697894121143600,1.2531435546875,0.33951603249311446,-0.3101423462316394,0.11669745718836784
1772697894131191600,1.263191650390625,0.33190438844561576,-0.26016484788060185,0.08776479269266128
1772697894141240600,1.273240478515625,0.28166473202705383,-0.16493804874420165,0.019956746357679366
1772697894151289300,1.283289306640625,0.22283026574254033,-0.06729395933300256,-0.054768532019853586
1772697894161338600,1.293338623046875,0.18605624009668825,-0.0622162176772952,-0.07316460493206978
1772697894171386400,1.303386474609375,0.10902677643001078,-0.05074292976558208,-0.06885609408318996
1772697894181435600,1.313435546875,0.08081950359940529,-0.010135609567165374,0.003710544955730438
1772697894191484400,1.323484375,0.0640092385739088,0.03288607829660177,0.02922843257188797
1772697894201533400,1.333533447265625,0.00949614261984825,0.04778641804754734,-0.03155716778039932
1772697894211581400,1.34358154296875,-0.10122048659324645,0.07275134795606136,-0.0405640655785799
1772697894221630500,1.35363037109375,-0.10788169804811477,0.09666910689920187,0.05972586216628551
1772697894231679500,1.363679443359375,-0.10779226619899272,0.09885112711340188,0.049833998227119446
1772697894241728500,1.373728515625,-0.12797405348420143,0.17204758848845958,0.02618015091717243
1772697894251776500,1.383776611328125,-0.10494330650866031,0.17482143711596726,0.06398235056698322
1772697894261825500,1.393825439453125,-0.1068570311754942,0.19777152007073162,0.18995500110089777
1772697894271874300,1.403874267578125,-0.03768471074998379,0.23209552221596239,0.2535468910455704
1772697894281923600,1.413923583984375,0.020653496450185774,0.2615542564123869,0.21165829886496065
1772697894291971300,1.423971435546875,0.08749065192639827,0.27116788793206215,0.1942027216732502
1772697894302020600,1.4340205078125,0.18106968385577202,0.280979964633286,0.2095779854595661
1772697894312069400,1.4440693359375,0.2913970214903355,0.2309337849602103,0.1950257284939289
1772697894322118400,1.454118408203125,0.37749709584116936,0.25571137560307977,0.1720031648248434
1772697894332166400,1.46416650390625,0.3674439038604498,0.18558073153942822,0.14841712205410001
1772697894342215400,1.47421533203125,0.37173195644319057,0.19708383006751537,0.13904022189974785
1772697894352264400,1.484264404296875,0.39069384654462336,0.19701807135492563,0.169898301500082
1772697894362313500,1.4943134765625,0.36204701325297356,0.23421996702402828,0.16190321109294892
1772697894372361500,1.504361572265625,0.4082067068815231,0.2787485523194074,0.22957974000275133
1772697894382410500,1.514410400390625,0.4749702125996351,0.24106442609131334,0.26458617145419117
1772697894392459500,1.52445947265625,0.495207529464364,0.2451429275766015,0.16085224073529242
1772697894402508500,1.534508544921875,0.4891793552160263,0.2247641564145684,0.056852352556586265
1772697894412556300,1.544556396484375,0.45350130811333655,0.18729747232943772,-0.004145429241657257
1772697894422605600,1.55460546875,0.4376818076908588,0.1262079205945134,-0.07186229016184806
1772697894432654600,1.564654541015625,0.44214755492806435,0.1628670876890421,-0.08408990357220172
1772697894442703400,1.574703369140625,0.3999199400514364,0.20372955169230697,-0.04756839138269424
1772697894452751400,1.58475146484375,0.28820611649453637,0.2527715227589011,0.03098199824094772
1772697894462800400,1.59480029296875,0.2727694779098034,0.3037611207619309,0.0923304931730032
1772697894472849700,1.604849609375,0.20833821453154086,0.3640986850857734,0.17897125027179717
1772697894482898400,1.6148984375,0.20654957754909992,0.41786008588969703,0.2273550496906042
1772697894492946700,1.62494677734375,0.20995149494707582,0.4335793408080935,0.23743337611258028
1772697894502995500,1.634995361328125,0.16081249324679373,0.4980334005400538,0.23739655123353004
1772697894513044500,1.64504443359375,0.08980886574089526,0.5396911065742374,0.18181319569945334
1772697894523093500,1.655093505859375,-0.059680853980779644,0.5621007990419864,0.1787263356000185
1772697894533141500,1.6651416015625,-0.058225978997349735,0.5856017938777804,0.0965431424319744
1772697894543190500,1.6751904296875,0.022847791624069212,0.5366282118722796,0.05155950684547424
1772697894553239600,1.685239501953125,-0.03860416368246078,0.5356564442306757,0.06823240922689437
1772697894563288600,1.69528857421875,0.04909282447099685,0.4794979191571474,0.0579617751032114
1772697894573336600,1.705336669921875,0.11712708077728748,0.3881327638849616,0.13245675185620784
1772697894583385300,1.71538525390625,0.1509071853041649,0.25926351512670515,0.11669395005702972
1772697894593434600,1.7254345703125,0.2064578076124191,0.17818068441599608,-0.00343465062379837
1772697894603483400,1.7354833984375,0.24938977136611937,0.11290098751485347,-0.12280454189181327
1772697894613531600,1.74553173828125,0.27525544950664044,0.04131371490210294,-0.20788462554514406
1772697894623580400,1.755580322265625,0.34285131439566613,-0.01633329516351223,-0.28749709144234653
1772697894633629400,1.76562939453125,0.38868601385354995,-0.04187514817714691,-0.35514790138900276
1772697894643677400,1.775677490234375,0.38607612361609933,0.023464169956743716,-0.2630933025479317
1772697894653726500,1.7857265625,0.49246553727984427,0.06088467681258917,-0.19842939945757387
1772697894663775500,1.795775390625,0.5915852522015571,0.14740794501155613,-0.0831710351616144
1772697894673824500,1.805824462890625,0.5836807626873255,0.1688490847080946,0.0346124636977911
1772697894683872500,1.81587255859375,0.4959954649716615,0.1595309290036559,0.0812280844002962
1772697894693921500,1.825921630859375,0.49148003337383267,0.11412439182996749,0.037484219741821284
1772697894703970600,1.835970458984375,0.4042202675938606,0.04554302303493023,0.014427753803133964
1772697894714019600,1.84601953125,0.3177940300285816,0.037545594540238376,0.042454993891716
1772697894724067300,1.8560673828125,0.16845336338877676,-0.007073883908987045,0.0385205770522356
1772697894734116600,1.86611669921875,0.0758645115405321,-0.08578560157418251,0.011142156261205672
1772697894744165400,1.876165283203125,-0.04163841681182384,-0.08338613921701908,0.020177695631980894
1772697894754214400,1.88621435546875,-0.1791524520576,-0.12345073084086179,-0.04154781591892242
1772697894764262400,1.896262451171875,-0.2740098333597183,-0.1455775147140026,-0.0201034613519907
1772697894774311400,1.9063115234375,-0.34263562581837176,-0.15014993719607592,-0.06326981838345527
1772697894784360400,1.9163603515625,-0.4813309798032045,-0.16218933455795048,-0.24744039086401462
1772697894794409500,1.926409423828125,-0.517442157626152,-0.18797171832919118,-0.3585089022547006
1772697894804457500,1.93645751953125,-0.512912112981081,-0.23148031292706728,-0.4619418042004108
1772697894814506500,1.946506591796875,-0.4686521154940128,-0.29693156700283285,-0.5382628273367881
1772697894824555500,1.956555419921875,-0.37712592444121834,-0.37173254096508024,-0.6232452958345412
1772697894834604500,1.9666044921875,-0.354205652102828,-0.38371962361782785,-0.685335549044609
1772697894844652300,1.97665234375,-0.3630424540311098,-0.41253567599654195,-0.7339157478183508
1772697894854701600,1.98670166015625,-0.39750001942813395,-0.45376463522464033,-0.7591215007454156
1772697894864750600,1.99675048828125,-0.470546550938487,-0.4648261274650693,-0.7550333546489477
1772697894874799600,2.006799560546875,-0.5441296735435724,-0.4749579376399517,-0.8213777581721544
1772697894884847400,2.016847412109375,-0.5885825632542372,-0.49967152313590046,-0.8600678465723991
1772697894894896400,2.026896484375,-0.5894003093779087,-0.43971331351846454,-0.8787976814836264
1772697894904945700,2.036945556640625,-0.585654693108797,-0.39062165809124705,-0.8483405838996172
1772697894914994400,2.046994384765625,-0.6020318274140357,-0.34588936691731215,-0.7783499328285455
1772697894925042700,2.057042724609375,-0.5895347494125366,-0.2603425425350666,-0.67673606300354
1772697894935091500,2.067091552734375,-0.5711030206650495,-0.19750994652509687,-0.5580833800941706
1772697894945140500,2.077140380859375,-0.6032008711934089,-0.08724661403745412,-0.4239654170274734
1772697894955189500,2.087189453125,-0.5864484738349914,0.0014420155018568038,-0.3550304124891758
1772697894965237500,2.097237548828125,-0.631599282681942,0.048912791728973386,-0.2964092966943979
1772697894975286500,2.10728662109375,-0.7079623913943767,0.020602935306727885,-0.25667174506783486
1772697894985335600,2.11733544921875,-0.7692775685787201,-0.034547581768035886,-0.17673837665319442
1772697894995384600,2.127384521484375,-0.8875333611249924,-0.10597381860017775,-0.1422702898621559
1772697895005432000,2.13743212890625,-1.009520156893134,-0.15153437729179858,-0.1399877318829298
1772697895015481300,2.1474814453125,-1.0990893686592578,-0.20257482869923113,-0.16627426578402518
1772697895025530400,2.1575302734375,-1.159097554898262,-0.22713760754764079,-0.2462994041353464
1772697895035579100,2.1675791015625,-1.1547557263016701,-0.254895967566967,-0.3351233504921198
1772697895045627100,2.177627197265625,-1.0435568665295838,-0.2617754979476333,-0.3996849622517824
1772697895055676200,2.18767626953125,-0.9967816713511943,-0.26224603806883096,-0.48465807839930053
1772697895065725400,2.197725341796875,-0.942385479775071,-0.1778407849371433,-0.5635504133284092
1772697895075774200,2.207774169921875,-0.7180939093083143,-0.1721212382465601,-0.7090262212336063
1772697895085822200,2.217822265625,-0.5718792657345533,-0.2683233121559024,-0.7574532752722501
1772697895095871200,2.227871337890625,-0.42469723843336105,-0.19893530315309763,-0.8027379396319388
1772697895105920300,2.237920166015625,-0.4121931461691856,-0.17960370295643804,-0.9471037404686212
1772697895115969300,2.24796923828125,-0.3797124338030815,-0.19199059858173131,-1.0414140092819928
1772697895126017300,2.258017333984375,-0.30926410209238525,-0.16647241870462892,-1.1164636973083018
1772697895136066300,2.26806640625,-0.23477146342694757,-0.1435562380194664,-1.2276380071610211
1772697895146115300,2.278115234375,-0.24799159500598905,-0.10596943468600512,-1.3827578417241573
1772697895156164000,2.2881640625,-0.291658887296915,-0.09210223737508058,-1.4936211859315633
1772697895166212400,2.29821240234375,-0.2934235588818788,-0.07403466576486825,-1.636727342095971
1772697895176261000,2.30826123046875,-0.3946078051179647,0.13717355124503372,-1.6246902828216552
1772697895186310400,2.318310302734375,-0.44955286274850365,0.43929362680166956,-1.4394985505998135
1772697895196359200,2.328359130859375,-0.6183791511029004,0.8227975618422031,-0.8996329642415046
1772697895206407400,2.338407470703125,-0.7701555204570293,1.1007251531675457,-0.36787294292747974
1772697895216456200,2.348456298828125,-0.878779561305046,1.3643605997681616,0.09600245968401432
1772697895226505200,2.358505126953125,-0.9368155706882476,1.6498203401640057,0.5267582675039768
1772697895236553200,2.36855322265625,-0.9778682965666055,1.9584107807785271,0.9352595734179019
1772697895246602200,2.378602294921875,-1.0404191530257463,2.2814234222382304,1.3233791855603456
1772697895256651300,2.3886513671875,-1.1308066954374312,2.450268999814987,1.6468717194914817
1772697895266700300,2.3987001953125,-1.0266881493151188,2.4854493265286086,1.7766835097968576
1772697895276749000,2.4087490234375,-0.814451758301258,2.4253610607907174,1.721234594297409
1772697895286797300,2.41879736328125,-0.5132300928890705,2.1619936174765226,1.5290759456723928
1772697895296846000,2.42884619140625,-0.23911270750164984,1.8842934051662683,1.3027929091274737
1772697895306895400,2.438895263671875,0.004027355819940567,1.496501125282049,0.9394786524176597
1772697895316943000,2.448943115234375,0.19604162753820417,0.9560185760691762,0.48417117166519164
1772697895326992400,2.458992431640625,0.2423778467774391,0.361361661337316,-0.000024549919366836548
1772697895337041200,2.469041259765625,0.4812801263988018,0.02074000568985939,-0.5714554873645306
1772697895347090200,2.479090087890625,0.6994973453879356,-0.17675035935193298,-0.9276654650270938
1772697895357138200,2.48913818359375,0.8569090902805327,-0.41887101649791,-0.9780278710424899
1772697895367187200,2.499187255859375,0.8436229077279567,-0.6851856191799044,-0.8379027765154838
1772697895377236200,2.509236328125,0.8110527635127306,-0.8754340502694249,-0.8182821302443742
1772697895387285200,2.51928515625,0.7928548435211181,-0.9567422141686082,-0.7169523380577564
1772697895397333200,2.529333251953125,0.5554629684627056,-1.0077508091330527,-0.6637754591435193
1772697895407382300,2.53938232421875,0.26508769123554227,-0.9328180254846811,-0.5956915184766054
1772697895417431000,2.54943115234375,-0.0845920078754425,-0.6762634770557284,-0.33440497308969497
1772697895427480300,2.559480224609375,-0.311672332277894,-0.4399056212201714,-0.2740852366834879
1772697895437528000,2.569528076171875,-0.3162573219805956,-0.25805589290261266,-0.16891864281296728
1772697895447577300,2.579577392578125,-0.2499374683767557,-0.03627630525678396,-0.0005149637848138809
1772697895457626000,2.589626220703125,-0.1899281130939722,0.05127338338047266,0.15029051471054553
1772697895467675100,2.599675048828125,-0.16906009711027145,0.09473287813961505,0.21887948229014872
1772697895477723100,2.60972314453125,-0.10187573563158511,0.1711594074770808,0.23500001148581504
1772697895487772200,2.619772216796875,-0.008842062625288962,0.27732436473518607,0.35431846482753754
1772697895497821400,2.629821533203125,0.09619710547327995,0.35574440597742796,0.48452422288656233
1772697895507870200,2.6398701171875,0.2911380782932043,0.4563584511101246,0.646862318265438
1772697895517918200,2.649918212890625,0.48225627795457837,0.44733694026470183,0.7641781996130943
1772697895527967200,2.65996728515625,0.6654249799162149,0.3869567058429122,0.8713824367910623
1772697895538016300,2.670016357421875,0.8789502416968346,0.33655718268752094,0.9588046996563673
1772697895548065300,2.680065185546875,1.0641250227838754,0.24285890829265117,0.9927309346556663
1772697895558113300,2.69011328125,1.157062834200263,0.15015607467591763,0.9883148717790842
1772697895568162300,2.700162353515625,1.2050222707271576,0.0646978053599596,0.9537830721020698
1772697895578211300,2.71021142578125,1.2175345462977885,-0.07077449492514133,0.8356804242908954
1772697895588260000,2.720260009765625,1.2227625100791453,-0.16521365081518888,0.8256237251788378
1772697895598308400,2.730308349609375,1.1884703643769026,-0.19949790547192095,0.8102198198199272
1772697895608357000,2.740357177734375,1.1411685149759054,-0.16538433120697735,0.8129033598154782
1772697895618406400,2.750406494140625,1.1274907027572392,-0.10501870983242988,0.8828852430582046
1772697895628455200,2.760455078125,1.1050409705400466,-0.012101648943126202,0.872556156745553
1772697895638503400,2.77050341796875,1.096321657511592,0.08772738329172133,0.9567319850355386
1772697895648552200,2.78055224609375,1.1138502999395132,0.24190233822017906,1.0567302363574504
1772697895658601200,2.790601318359375,1.1214514225929975,0.3889186535656452,1.0368787039399145
1772697895668650200,2.800650146484375,1.0497639044761657,0.48793636941760776,0.9574643909633159
1772697895678698200,2.8106982421875,1.0154968932151793,0.513978865429759,0.8039905700415373
1772697895688747300,2.820747314453125,0.9875362886220216,0.47489217892736196,0.5908627831459045
1772697895698796300,2.83079638671875,1.0019202032834291,0.37395723127722735,0.36669688488543034
1772697895708845000,2.840844970703125,1.0614584339231252,0.29204291817843914,0.1152390750735998
1772697895718893300,2.850893310546875,1.0271551823049783,0.2191930782839656,-0.02253156528174877
1772697895728942000,2.860942138671875,0.9811877963781356,0.10191314503252506,-0.13243804715573787
1772697895738991400,2.870991455078125,0.8940262302756309,0.05646072289049625,-0.2835176664173603
1772697895749040000,2.8810400390625,0.8513736679852009,-0.01987023711800575,-0.3702016781359911
1772697895759088400,2.89108837890625,0.7772668137669563,-0.03843523685634136,-0.47172962324321266
1772697895769137200,2.90113720703125,0.6650520549505948,-0.007317921797931194,-0.4932388597398996
1772697895779186200,2.911186279296875,0.5318693269073963,0.0009141922354698181,-0.4467366362839937
1772697895789235200,2.921235107421875,0.41061376802325245,0.0057917351439595215,-0.3500543776422739
1772697895799283200,2.931283203125,0.3038040831208229,0.06731763246953487,-0.265636557289958
1772697895809332200,2.941332275390625,0.15383797805905342,0.15781652630120516,-0.18902736486196517
1772697895819381200,2.95138134765625,0.06248480548560619,0.1722778901129961,-0.12962474330067633
1772697895829430000,2.961429931640625,-0.05241115523874759,0.18177257142812012,-0.029111528193950652
1772697895839478300,2.971478271484375,-0.14656360314190386,0.1816279022604227,0.08005202635824679
1772697895849527000,2.981527099609375,-0.23727906233370302,0.15074235013127327,0.1143722291111946
1772697895859576300,2.991576416015625,-0.36132337515354157,0.12483867806792258,0.17973171325027942
1772697895869625300,3.001625244140625,-0.4818967969924211,0.11395897213518619,0.20364041210412978
1772697895879673300,3.01167333984375,-0.5207704252660275,0.07175093874186277,0.1973304983049631
1772697895889722000,3.02172216796875,-0.4922638772279024,0.07059387766122818,0.18304186071157455
1772697895899771100,3.031771240234375,-0.4230366117447614,0.009239245249330997,0.185814248034358
1772697895909820400,3.0418203125,-0.3902864347875118,0.09374328258037566,0.16589140394628046
1772697895919868200,3.0518681640625,-0.37782267453372476,0.14833675029426813,0.10318038848936557
1772697895929917400,3.06191748046875,-0.34288287857770916,0.21259674875885248,0.010541267758607864
1772697895939966200,3.07196630859375,-0.2591179691761732,0.22356267167031763,-0.05277297428846359
1772697895950014200,3.08201416015625,-0.14151801019012927,0.234108615604043,-0.13398586111962796
1772697895960063200,3.092063232421875,-0.05276596002578735,0.2728437121897936,-0.19848259094953535
1772697895970112300,3.1021123046875,0.04755202476978302,0.19373685772716998,-0.2892892355561256
1772697895980161300,3.112161376953125,0.12923720528781413,0.2491077395543456,-0.3558838144481182
1772697895990209000,3.122208984375,0.2510901455432176,0.22560820602327583,-0.4192348813742399
1772697896000258300,3.13225830078125,0.3322551015794277,0.20364801088869572,-0.4699707968771457
1772697896010307300,3.142307373046875,0.4015127622008323,0.19701807135492563,-0.49227790575325486
1772697896020356400,3.1523564453125,0.4721200838655233,0.14786562565118075,-0.49617666675746436
1772697896030404400,3.162404296875,0.43965340002477166,0.10799275720715522,-0.4069464776873588
1772697896040453400,3.172453369140625,0.3890384805530309,0.13151450257003305,-0.2963660420745611
1772697896050502400,3.18250244140625,0.33406127421855925,0.19992402192950248,-0.2606505855709314
1772697896060551400,3.192551513671875,0.32136896590590475,0.18221826936900615,-0.18038345515727996
1772697896070599400,3.202599365234375,0.30204291866719724,0.1288090430036187,-0.05262742833793163
1772697896080648400,3.2126484375,0.22990239608585833,0.08094020736962557,0.04546469710171223
1772697896090697200,3.222697265625,0.13335983817577363,0.01954875007867813,0.09971125107407569
1772697896100746500,3.23274658203125,-0.013397241711616515,-0.03834200561493635,0.18845745601952074
1772697896110794200,3.242794189453125,-0.1513771409034729,-0.055153439684212206,0.23326515051722524
1772697896120843500,3.252843505859375,-0.27908465240597724,-0.10190116233378649,0.23487024762630462
1772697896130892300,3.262892333984375,-0.3601537468522787,-0.13940934747308492,0.200135618853569
1772697896140941300,3.27294140625,-0.4330430419743061,-0.1872775985851884,0.11109481487572193
1772697896150989300,3.2829892578125,-0.49082770694494243,-0.18711597828269003,-0.0026928923457860943
1772697896161038300,3.293038330078125,-0.5149573550730944,-0.19109832591712475,-0.13592939640283583
1772697896171087400,3.30308740234375,-0.5630851339042187,-0.17134411639422178,-0.27808278188705443
1772697896181136400,3.313136474609375,-0.5742436567783356,-0.13394406780451534,-0.3336146994948387
1772697896191184400,3.323184326171875,-0.523645103919506,-0.05289367805868387,-0.3763689685940742
1772697896201233400,3.3332333984375,-0.4946019647866487,-0.0020306290447711945,-0.4279547789245844
1772697896211282200,3.3432822265625,-0.4395592920005321,0.005857201595604419,-0.45102468886673447
1772697896221331500,3.35333154296875,-0.40667350596487517,-0.024029694885015485,-0.5141559755623341
1772697896231379200,3.363379150390625,-0.33344694171249867,-0.1109784950196743,-0.5349935964077711
1772697896241428500,3.373428466796875,-0.30038696815371513,-0.14964374123960733,-0.5640460878908634
1772697896251477200,3.383477294921875,-0.31040976499617096,-0.21521862169504163,-0.585464723494649
1772697896261526300,3.3935263671875,-0.28399112914800645,-0.25457214244008064,-0.5819114149272442
1772697896271574300,3.40357421875,-0.26672259896099565,-0.3402183355435729,-0.580001781913638
1772697896281623300,3.413623291015625,-0.29205051696300505,-0.42996436518132686,-0.5904676463484764
1772697896291672300,3.42367236328125,-0.33188685278892516,-0.4614817854732275,-0.6443740085810422
1772697896301721300,3.433721435546875,-0.3609288228780031,-0.4564128116458654,-0.6492407378345727
1772697896311769300,3.443769287109375,-0.32051030324995516,-0.4787546995744109,-0.6319663624286651
1772697896321818400,3.453818359375,-0.31299218270480633,-0.48494507864713665,-0.6255144098103046
1772697896331867400,3.463867431640625,-0.313218392676115,-0.4307505471229553,-0.6175339324504137
1772697896341916400,3.47391650390625,-0.2994873889654875,-0.37460838866233825,-0.5838321538567542
1772697896351964200,3.483964111328125,-0.2992155862867832,-0.3454173654913902,-0.6085621059656143
1772697896362013400,3.494013427734375,-0.34704876608550544,-0.29433775111734867,-0.599810059711337
1772697896372062500,3.5040625,-0.3790221134513616,-0.29690555577874184,-0.5894838960081339
1772697896382111200,3.514111328125,-0.4845750762909651,-0.21930442970395086,-0.5965121872097253
1772697896392159500,3.524159423828125,-0.5397346534550189,-0.16228402710407971,-0.5858019926249981
1772697896402208300,3.534208251953125,-0.5253519078373908,-0.15591156946271656,-0.5272691396355629
1772697896412257500,3.544257568359375,-0.5031517664670944,-0.09791764565557241,-0.5622329009890557
1772697896422306300,3.554306396484375,-0.5270908604592085,-0.08554711664319038,-0.5665338130533695
1772697896432354600,3.5643544921875,-0.5626712924063205,-0.10156827711760998,-0.6095271516054869
1772697896442403300,3.5744033203125,-0.6152759243905543,-0.07824731502383947,-0.6368675784736871
1772697896452452400,3.584452392578125,-0.7084469600409269,-0.10967267311811446,-0.6611959640443325
1772697896462501400,3.59450146484375,-0.8021943342745304,-0.1479249546229839,-0.6203501589149236
1772697896472549400,3.60454931640625,-0.839015706193447,-0.2052674287840724,-0.43173429746329783
1772697896482598400,3.614598388671875,-1.0992518657445907,-0.2731783509716391,-0.2115039850860834
1772697896492647400,3.6246474609375,-1.3438807063192129,-0.2497606505051255,0.6894114201813936
1772697896502696200,3.6346962890625,-1.676500549557805,0.21511925297379492,1.696569524118304
1772697896512744400,3.644744384765625,-1.6675789919555186,0.6786313752308487,2.111022431913018
1772697896522793200,3.654793212890625,-1.0537725555956363,0.6953136299625039,2.3455314450114964
1772697896532842500,3.664842529296875,-0.19627835890352724,0.4288683866381645,2.3465368226617573
1772697896542891300,3.674891357421875,0.02799626042842865,0.2504477559864521,2.2654852638721463
1772697896552939500,3.684939453125,-0.2875309937119484,0.22046061400175093,2.0311457621216773
1772697896562988300,3.69498828125,-0.4587999990433454,0.07734452096521854,1.5301502969056366
1772697896573037300,3.705037353515625,-0.3599403963625431,-0.13394143745601175,1.0268617523163557
1772697896583086300,3.71508642578125,0.033818098449707026,-0.38986528676599264,0.6688479401022196
1772697896593134300,3.72513427734375,0.4877577979803085,-0.6438140366107225,0.3135486475437879
1772697896603183400,3.735183349609375,0.8853238683819771,-0.952385772524774,-0.07386661572158336
1772697896613232400,3.745232421875,1.113542841425538,-1.0886480541437864,-0.4882318452328443
1772697896623281200,3.75528125,1.0473077434957028,-1.1922548513516782,-0.7062111638128757
1772697896633329400,3.765329345703125,0.7614601728260517,-1.2952467315316198,-0.9120844495356082
1772697896643378200,3.775378173828125,0.4356576083868742,-1.273625559093058,-1.1158370898425578
1772697896653427500,3.785427490234375,0.15372399629056452,-1.252657005344331,-1.2374287488132714
1772697896663476200,3.795476318359375,-0.03777297355532646,-1.2261349091216922,-1.254143736770749
1772697896673524500,3.8055244140625,-0.3071948946028948,-1.2145298115238548,-1.2816215262830257
1772697896683573200,3.8155732421875,-0.5792477486759424,-1.101449960310757,-1.1078308935195207
1772697896693622300,3.825622314453125,-0.829084679287672,-0.7888783411055803,-0.8606289875864982
1772697896703671600,3.835671630859375,-0.9272510390073061,-0.4712836330413818,-0.5530167443543672
1772697896713719300,3.84571923828125,-0.964825275120139,-0.2527756144121289,-0.1844032121926546
1772697896723768300,3.855768310546875,-0.718702396595478,0.03281418210417032,0.1408849729835987
1772697896733817300,3.8658173828125,-0.44087329720854757,0.11906184823215007,0.45295068849325176
1772697896743866400,3.875866455078125,-0.23499475078880785,0.06535305439829826,0.6324538536846638
1772697896753914400,3.885914306640625,-0.14284779748916626,0.011726678150892258,0.6648854662120341
1772697896763963400,3.89596337890625,-0.00948269861638546,-0.058528469075262546,0.6644020666092634
1772697896774012400,3.906012451171875,0.030707857474684713,-0.2076958249747753,0.6114174953967333
1772697896784061400,3.9160615234375,0.028712299743294714,-0.33312720823884007,0.5614139858216047
1772697896794109400,3.926109375,0.1606090796291828,-0.4373953919649124,0.5188590386867523
1772697896804158500,3.936158447265625,0.2836865932434797,-0.5113070158720017,0.4261322396725416
1772697896814207200,3.946207275390625,0.4400526284754276,-0.4991834473580122,0.3717003922611475
1772697896824256500,3.956256591796875,0.49907647985219955,-0.44816286969482894,0.38130934760570523
1772697896834304300,3.96630419921875,0.582868277260661,-0.37660745352506636,0.2910188358277082
1772697896844353500,3.976353515625,0.6165127727091312,-0.22018179706037044,0.25499416724443436
1772697896854402300,3.98640234375,0.6921849765479564,-0.11368979980498552,0.15598258887231348
1772697896864451300,3.996451416015625,0.8588029412031173,-0.09919394920170306,-0.01693944436311722
1772697896874499300,4.006499267578125,0.9682441436529159,-0.14679653511494398,-0.16478548853099345
1772697896884548400,4.01654833984375,1.0255869100749493,-0.19906331344693898,-0.3590951777100563
1772697896894597400,4.026597412109375,1.0555097546517849,-0.1726695197790861,-0.3648112172693014
1772697896904646400,4.036646484375,0.9971218630909919,-0.10641688619256019,-0.2984679827898741
1772697896914694400,4.0466943359375,0.9243471342593431,-0.01764291645735502,-0.28622517181038853
1772697896924743400,4.056743408203125,0.9769698864221572,0.0666036389812827,-0.1448275731295347
1772697896934792200,4.066792236328125,0.9064484894752501,0.2441682373255491,0.06465338169634342
1772697896944841500,4.076841552734375,0.8748235171556472,0.5586585496336222,0.3873620717734098
1772697896954889200,4.08688916015625,0.7477145560681819,0.8859121896639466,0.699673870998621
1772697896964938500,4.0969384765625,0.4724953469187021,1.1026149124369025,0.9805909995287656
1772697896974987300,4.1069873046875,0.20131109237372874,1.4026146348387003,1.3466121771097181
1772697896985035500,4.117035400390625,-0.09450374555885792,1.6341285577744245,1.6218518445253371
1772697896995084300,4.127084228515625,-0.3266647342264652,1.602215123902261,1.787598871564865
1772697897005133300,4.13713330078125,-0.5108469971448183,1.4068363441869616,1.7524445560753343
1772697897015182000,4.14718212890625,-0.5722042599052191,1.1223781820490957,1.5840730257511138
1772697897025230800,4.15723095703125,-0.5822258877038955,0.6850412422731519,1.3714648788154125
1772697897035279000,4.167279052734375,-0.5160013111680746,0.3207590173140168,1.1703922713726758
1772697897045328000,4.177327880859375,-0.31234687053859234,0.0898185103520751,0.9803367325067519
1772697897055377000,4.187376953125,-0.025656419304013252,0.013901976363360881,0.7980757930397987
1772697897065425000,4.1974248046875,0.3316238179385662,-0.06774813284128904,0.5674813230365514
1772697897075474000,4.207473876953125,0.5750105494976043,-0.08736264163255691,0.3729255501419306
1772697897085523000,4.21752294921875,0.8141074749082327,0.012085574591159819,0.19580080451965332
1772697897095572000,4.227572021484375,1.0778116028308868,0.06222790811508894,0.06917407399117946
1772697897105620000,4.237619873046875,1.3612608801871537,0.15011048196852206,-0.05519347943365573
1772697897115669000,4.2476689453125,1.5984598630219697,0.3371063410028815,-0.11505495067834853
1772697897125717800,4.2577177734375,1.788361672630906,0.424971379199624,-0.19681378095448016
1772697897135767000,4.26776708984375,1.882029551887512,0.5043102888524532,-0.20574936708211897
1772697897145814800,4.277814697265625,1.8165782978117464,0.539764464071393,-0.23903788869976997
1772697897155864000,4.287864013671875,1.68661803894639,0.5213447180226445,-0.31304771228432654
1772697897165912800,4.297912841796875,1.5206991624712942,0.5497548199489712,-0.3502770804822445
1772697897175961900,4.3079619140625,1.2701970459491014,0.46765842828154564,-0.3728746967375278
1772697897186009900,4.318009765625,0.9562965162277222,0.3514034541636705,-0.38107846145927904
1772697897196059000,4.328058837890625,0.6684224081665278,0.36306583490669725,-0.4955523973792791
1772697897206108000,4.33810791015625,0.38804596238434313,0.3223629453793168,-0.5133949280619621
1772697897216157000,4.348156982421875,0.12510989622473717,0.2770470090985298,-0.4762409631878137
1772697897226205000,4.358204833984375,-0.1896528032839298,0.17512918789088724,-0.4583908337205648
1772697897236254000,4.36825390625,-0.4179875116616487,0.07629092025905847,-0.3855278420835733
1772697897246303000,4.378302978515625,-0.5111527020931244,0.03556289629042148,-0.4413894300371408
1772697897256352000,4.38835205078125,-0.5661117882490158,0.023057342721521854,-0.41778935874104495
1772697897266399700,4.398399658203125,-0.6647486880898476,0.022406769858300684,-0.38309856911003587
1772697897276449000,4.408448974609375,-0.8028373083531856,-0.018508885636925695,-0.38970483550727364
1772697897286498000,4.418498046875,-0.9311287572234869,-0.02878185784816742,-0.40286242324411864
1772697897296546800,4.428546875,-0.9764058227986097,-0.05432809477597475,-0.4470061008751392
1772697897306595000,4.438594970703125,-0.9534405422747134,-0.08341945696473121,-0.5105985753417015
1772697897316643800,4.448643798828125,-0.8574673086851835,-0.1430377671033144,-0.5117711262524127
1772697897326693000,4.458693115234375,-0.7207295185089111,-0.2134422596722841,-0.543158782684803
1772697897336742000,4.468741943359375,-0.6606956133067607,-0.2671580677688122,-0.5331108514010906
1772697897346790100,4.4787900390625,-0.6317565190702676,-0.3078480978146195,-0.4852104515850544
1772697897356839000,4.4888388671875,-0.6407330217301845,-0.2665136323854327,-0.43208208798766135
1772697897366888000,4.498887939453125,-0.621516864606738,-0.26709990784078835,-0.4242489101439714
1772697897376937000,4.50893701171875,-0.590231499505043,-0.30096506030261516,-0.39770460208952424
1772697897386985000,4.51898486328125,-0.5648866303682327,-0.30491379792839285,-0.36581834848523137
1772697897397034000,4.529033935546875,-0.5149667074233293,-0.29257570988088843,-0.27044717244207855
1772697897407083000,4.5390830078125,-0.48312838461399077,-0.2782099153980613,-0.20278525657951832
1772697897417131800,4.5491318359375,-0.4647521854460239,-0.3023693741425872,-0.14808569814264774
1772697897427180000,4.559179931640625,-0.4527104499965906,-0.23810206915438173,-0.08530746266841888
1772697897437228800,4.569228759765625,-0.3782254101157188,-0.19776129093766212,-0.05029518599808216
1772697897447278000,4.579278076171875,-0.32657939403057096,-0.22439240049272774,0.0029682021558284756
1772697897457326800,4.589326904296875,-0.33764673148989677,-0.24312954192757605,-0.011996727263927458
1772697897467375000,4.599375,-0.3183785519182682,-0.20656652868390082,-0.06443886216282844
1772697897477423900,4.609423828125,-0.30206454597711563,-0.25949235544651744,-0.10759528232216835
1772697897487473000,4.619472900390625,-0.3152414229363203,-0.27012685444653034,-0.09958148721456526
1772697897497522000,4.62952197265625,-0.2967962501853704,-0.2925713259667158,-0.19272388129234314
1772697897507570000,4.63956982421875,-0.3319569954156875,-0.391153280749917,-0.2351584169179201
1772697897517619000,4.649618896484375,-0.421996747303009,-0.5004086052387953,-0.26580782220363613
1772697897527668000,4.65966796875,-0.44556233180761334,-0.5110536256328225,-0.3363894249051809
1772697897537717000,4.669717041015625,-0.5905670150697231,-0.6003107027098536,-0.4078893114954233
1772697897547765000,4.679764892578125,-0.6332984878152609,-0.7271446462482214,-0.440592726701498
1772697897557813800,4.689813720703125,-0.7954974669843912,-0.8823799238845705,-0.5367722965180873
1772697897567863000,4.699863037109375,-0.9183394182771444,-0.921339184615016,-0.6626064153641462
1772697897577911800,4.709911865234375,-1.2014496729373931,-0.9751830030053853,-0.6707002899706364
1772697897587960000,4.7199599609375,-1.4982815789580344,-0.9812368962168693,-0.5796019689410925
1772697897598008800,4.7300087890625,-1.7502765643864868,-0.9137713797092437,-0.6572685614675283
1772697897608057900,4.740057861328125,-1.7648837664097548,-0.727386053788662,-0.8607160813480615
1772697897618107100,4.750107177734375,-1.634996572780609,-0.44388358494043345,-0.9092232148855924
1772697897628155000,4.76015478515625,-1.4428092825829981,-0.3020782822415232,-0.9035159431546926
1772697897638204000,4.770203857421875,-1.2222516379475592,-0.19033201771974562,-0.8900707706481218
1772697897648253000,4.7802529296875,-1.0642308212459086,-0.10877134036421775,-0.9313578898042439
1772697897658302000,4.790302001953125,-1.0149234772413969,0.05351531708836555,-1.1625853970140219
1772697897668350000,4.800349853515625,-0.9636743515193462,0.2964057895630598,-1.329172966530919
1772697897678399000,4.81039892578125,-0.9596049101233481,0.4327051883220672,-0.8558639651417732
1772697897688448000,4.820447998046875,-1.0924211429417132,1.1943620527639984,-0.10286182405948638
1772697897698497000,4.8304970703125,-1.4604828864395618,1.5214318606600163,0.9816653507620096
1772697897708545000,4.840544921875,-1.7708149100244044,1.3555577001094816,1.1856354332119226
1772697897718594000,4.850593994140625,-1.2273597747415304,1.3980933580219745,0.8643424551516771
1772697897728642800,4.860642822265625,-0.8754518781870603,1.6130647269576788,0.9356067794203757
1772697897738692000,4.870692138671875,-0.9156295747965574,1.708416321517527,1.514220906367898
1772697897748739800,4.88073974609375,-1.14086164098382,1.7304703324154018,1.705059120044112
1772697897758789000,4.8907890625,-1.1834312011659145,1.5404957498311995,1.7744886301010847
1772697897768838000,4.900837890625,-1.1541127522230148,1.2752017223685979,1.6209212856769561
1772697897778887000,4.910886962890625,-1.0316156688451765,1.2754399150386453,1.189068330270052
1772697897788935000,4.920934814453125,-0.6518640720754861,1.4993220279216766,0.6767717188388109
1772697897798984000,4.93098388671875,0.06924012496471404,1.8846642843052743,0.4477496127188205
1772697897809033000,4.941032958984375,0.791364897224307,2.184767174820602,0.33949966588020325
1772697897819082000,4.95108203125,1.2605074265837668,2.2363202519252896,-0.02567746209204197
1772697897829130000,4.9611298828125,1.6642349422246216,1.9284838445484638,-0.47616263725459573
1772697897839179000,4.971178955078125,2.1762164963573216,1.5594436114072798,-0.8240764957368374
1772697897849228000,4.98122802734375,2.6835341503322123,1.2291641938149929,-1.144259466728568
1772697897859277000,4.991277099609375,3.005914339107275,0.9149576668843626,-1.276158584702015
1772697897869324800,5.00132470703125,3.1301749250262976,0.6266200329646467,-1.277413553199172
1772697897879374000,5.0113740234375,3.105231037905812,0.3461284363701939,-1.1455816552430391
1772697897889422800,5.0214228515625,2.840568294084072,-0.029217618916928766,-0.9356436042994261
1772697897899472000,5.031471923828125,2.268999409472942,-0.35608547450006006,-0.7940081052094697
1772697897909520000,5.041519775390625,1.7158423798650502,-0.40671120762676,-0.6258382349371909
1772697897919569000,5.05156884765625,1.3872598293185234,-0.33387422721385956,-0.2991483662694692
1772697897929618000,5.061617919921875,1.0705682075738907,-0.17619973973184824,-0.155938749730587
1772697897939667000,5.0716669921875,0.8287608541607856,-0.05076309577077627,-0.02113864961862564
1772697897949715000,5.08171484375,0.7347095285445451,0.0038899931758642195,0.10860825875699519
1772697897959764000,5.091763916015625,0.6360363883465529,0.05767389807254076,0.2353893030643463
1772697897969813000,5.10181298828125,0.6585007336109876,0.14560878663510082,0.3737684307068586
1772697897979862000,5.111862060546875,0.5666109699428081,0.2316919098511338,0.44776773289740085
1772697897989909800,5.12190966796875,0.5550386055707931,0.20062369463145732,0.40706396658718585
1772697897999959000,5.131958984375,0.473597755202651,0.1581941274419427,0.3697603641092777
1772697898010008300,5.14200830078125,0.33028350924551486,0.2044721867531538,0.3890747209101915
1772697898020057300,5.152057373046875,0.23452947136461733,0.2913207413837314,0.5173492186456918
1772697898030105300,5.162105224609375,0.1442483119368553,0.3554471765965223,0.6687409725964069
1772697898040154400,5.172154296875,0.14537877727150916,0.42098114051967855,0.806212337744236
1772697898050203400,5.182203369140625,0.25023148288726804,0.4582920495212078,0.9714847330093384
1772697898060252400,5.19225244140625,0.38436288995742796,0.47886722003817556,1.0382464851617812
1772697898070300400,5.202300537109375,0.5314461330592632,0.4406809895068407,1.0913146430045366
1772697898080349400,5.212349365234375,0.6253185949772596,0.373795610974729,1.0831903732597827
1772697898090398200,5.222398193359375,0.6188263103485107,0.24755875654667614,0.9366028047204017
1772697898100447500,5.232447509765625,0.5738000046640634,0.1331795131728053,0.9251607887297868
1772697898110495200,5.2424951171875,0.5376917494505643,-0.0293643339112401,0.8863660709112882
1772697898120544500,5.25254443359375,0.40210955905020235,-0.13765432049930096,0.7460521758139133
1772697898130593300,5.26259326171875,0.37668694850206375,-0.0922495368912816,0.759775580739975
1772697898140642300,5.272642333984375,0.3764975634098053,-0.03817074070125818,0.715669897031784
1772697898150690300,5.282690185546875,0.48293315430283545,-0.0038481998607516285,0.7962088301241398
1772697898160739300,5.2927392578125,0.6403215183198452,0.15032792411148546,0.8665197991907596
1772697898170788400,5.302788330078125,0.8066670957744121,0.26966712798029185,0.8973989215791225
1772697898180837400,5.31283740234375,0.9187702109098433,0.34189503658413883,0.8076333104580641
1772697898190885400,5.322885498046875,1.0888619891554117,0.3883428995043039,0.6268254924088716
1772697898200934400,5.332934326171875,1.2277730317175388,0.41144145101904867,0.44601182914078236
1772697898210983200,5.342983154296875,1.2871399974435567,0.4248784402191639,0.2919944028615951
1772697898221031400,5.353031494140625,1.392374395853281,0.40757103932648897,0.1600040994733572
1772697898231080200,5.363080078125,1.4034253666996954,0.36220804903358217,0.0339414325684309
1772697898241129500,5.37312939453125,1.3646464309722184,0.3040025283023715,0.002003156515955925
1772697898251178500,5.383178466796875,1.2873293825358152,0.2572881234005093,0.024255904856324194
1772697898261226500,5.3932265625,1.099314409586787,0.2492833883821964,0.10237024115025997
1772697898271275300,5.403275146484375,0.8599801682889461,0.2080813171610236,0.16104279487133025
1772697898281324300,5.41332421875,0.592255114287138,0.14796353306770324,0.13947452166378496
1772697898291373600,5.42337353515625,0.32526597334444524,0.14804595065414905,0.14586159235239027
1772697898301421300,5.43342138671875,0.16538579251170157,0.11349281592816114,0.16068156034350395
1772697898311470300,5.44347021484375,0.03974573493301868,-0.003138590286672115,0.19325462716817854
1772697898321519400,5.453519287109375,-0.08146247767806053,-0.10571633670777082,0.23327041121423242
1772697898331568400,5.463568359375,-0.1067038864403963,-0.2474672788709402,0.24695523769557476
1772697898341616400,5.473616455078125,-0.15769406896531582,-0.3786886437132954,0.3105237467646599
1772697898351665400,5.48366552734375,-0.26946868279874325,-0.4492392667546868,0.2951420532375574
1772697898361714400,5.49371435546875,-0.3842787188053131,-0.5487523649081587,0.22030337761342525
1772697898371763500,5.503763427734375,-0.4923328508108854,-0.6312827640786767,0.14267419448792934
1772697898381811500,5.5138115234375,-0.5621984141975641,-0.6444996807873249,-0.04203063099980354
1772697898391860500,5.523860595703125,-0.6148112294882535,-0.7105854333743452,-0.08461480422914028
1772697898401909200,5.5339091796875,-0.6655015522837638,-0.6664239278256893,-0.11866612691283225
1772697898411958500,5.54395849609375,-0.6954121219009161,-0.6210685363173485,-0.13433891234099865
1772697898422006300,5.55400634765625,-0.6372703140556812,-0.47040421985834835,-0.1452893454223871
1772697898432055600,5.5640556640625,-0.5383037438690662,-0.3442521211043,-0.20066461116373538
1772697898442104300,5.574104248046875,-0.4327238930225372,-0.2739922977030277,-0.2522235334873199
1772697898452153300,5.5841533203125,-0.3271796980112791,-0.19209493573904035,-0.2770990315467119
1772697898462201300,5.594201416015625,-0.28599837731719013,-0.04816811084151268,-0.3260883956432342
1772697898472250400,5.60425048828125,-0.2705143924593925,0.039538229662179944,-0.34123803398013114
1772697898482299400,5.61429931640625,-0.30230127734243867,0.073997840885818,-0.32843700459599495
1772697898492348400,5.624348388671875,-0.41738428507149217,0.12571283055394888,-0.28053426669239995
1772697898502396400,5.634396484375,-0.5674152720630169,0.22518530443608759,-0.2827051809906959
1772697898512445400,5.644445556640625,-0.698073450064659,0.2730366044133901,-0.2870557774156332
1772697898522494200,5.654494140625,-0.8330284484773873,0.306334770642221,-0.31138767011761664
1772697898532543500,5.66454345703125,-0.9283762436449527,0.3866121301889419,-0.3187906398504972
1772697898542591200,5.67459130859375,-1.0188438655555248,0.4363154877737164,-0.3277081057995558
1772697898552640500,5.684640625,-1.0732727903574704,0.42076779002994297,-0.32005203808844085
1772697898562689300,5.694689208984375,-1.0462205327808856,0.4150824378699064,-0.38148645773828027
1772697898572738300,5.70473828125,-0.9531073647975921,0.4559016472533345,-0.41791386190354823
1772697898582786300,5.714786376953125,-0.7568933033019304,0.4424234492599964,-0.49315059693455693
1772697898592835300,5.72483544921875,-0.5301046553224324,0.3494827152341604,-0.5302578000575304
1772697898602884400,5.73488427734375,-0.26618659238815306,0.29385990447252985,-0.5724404067486524
1772697898612933400,5.744933349609375,-0.08841244294643402,0.27004823625236746,-0.6079010117083787
1772697898622981400,5.7549814453125,0.0433048887193203,0.23981033437699079,-0.5916331829965115
1772697898633030400,5.765030517578125,0.09826748200654983,0.18459756572097538,-0.6175275027096271
1772697898643079200,5.7750791015625,0.10144202038943767,0.10970657538771629,-0.5747989525735377
1772697898653128400,5.78512841796875,0.06092179395258426,0.06626695437282323,-0.5973544832527637
1772697898663176200,5.79517626953125,0.03454875081181526,-0.0482411760777235,-0.6026613574892282
1772697898673225500,5.8052255859375,0.01471416952908039,-0.19673399371653794,-0.6109188982248306
1772697898683274200,5.815274169921875,-0.04973346046209335,-0.295804901060462,-0.6012748715668916
1772697898693323300,5.8253232421875,-0.13114917638897894,-0.33891718981713054,-0.5892869121313095
1772697898703371300,5.835371337890625,-0.13740648321807383,-0.32340982408374547,-0.6338333253443241
1772697898713420300,5.845420166015625,-0.19028467144668101,-0.3291892842680216,-0.6912474034368992
1772697898723469600,5.855469482421875,-0.23449732266068457,-0.3609539573192596,-0.6526391481012106
1772697898733518300,5.865518310546875,-0.2164882032394409,-0.3667690733388066,-0.6739543233305215
1772697898743566300,5.87556640625,-0.299933963689208,-0.4042626454308629,-0.7088268992692232
1772697898753615400,5.885615478515625,-0.34803836164474483,-0.4000637324362993,-0.6342594418019056
1772697898763664400,5.895664306640625,-0.33080957894623275,-0.33498891045749185,-0.5270592962771654
1772697898773713400,5.90571337890625,-0.3058645227819681,-0.3112733960881829,-0.5030068050384521
1772697898783761400,5.915761474609375,-0.3119125707745552,-0.25809739395678044,-0.48706397049725053
1772697898793810400,5.925810546875,-0.3701736210852861,-0.2159393371850252,-0.4109446074128151
1772697898803859500,5.935859375,-0.39285190136134623,-0.1951452632203698,-0.34630993041694164
1772697898813908200,5.945908203125,-0.41978959264755245,-0.17327829932719468,-0.30884149276614187
1772697898823956500,5.95595654296875,-0.48289808298945425,-0.14360387655347584,-0.32778701625466344
1772697898834005200,5.966005126953125,-0.522636219137907,-0.18770020791143177,-0.36204116803407665
1772697898844054500,5.976054443359375,-0.5793921255826949,-0.22442980989366768,-0.3787836285203695
1772697898854103300,5.986103271484375,-0.6906810017257928,-0.2724140886008739,-0.4296826256304979
1772697898864151600,5.996151611328125,-0.8342799098432063,-0.31015637475699187,-0.48092064543664453
1772697898874200300,6.006200439453125,-0.9714549223929643,-0.2945037553340196,-0.43109775312542914
1772697898884249300,6.016249267578125,-1.0813257484316825,-0.25946400613486764,-0.363840326410532
1772697898894298400,6.02629833984375,-1.2410872713208199,-0.21533260346353053,-0.2403817045241594
1772697898904346400,6.036346435546875,-1.3579367042005062,-0.2332411851197481,-0.18067980775535106
1772697898914395400,6.0463955078125,-1.4180501043796538,-0.2633101601690054,-0.06007131460309028
1772697898924444400,6.0564443359375,-1.3280869248598812,-0.27290011855214835,0.07640344072282314
1772697898934493200,6.0664931640625,-0.9637281275331974,-0.3436637998223305,0.7682359505712986
1772697898944541400,6.07654150390625,-0.8569804019510745,-0.2430178982466459,1.8937118063747882
1772697898954590200,6.086590087890625,-1.200679857608676,0.15203998872637747,2.4993928039461375
1772697898964639500,6.096639404296875,-0.968803531101346,0.5868436106324195,2.48398305336833
1772697898974688300,6.106688232421875,0.16392273422181605,0.5570104901656509,2.1191940479308364
1772697898984736500,6.116736572265625,0.7923562463492154,0.2979655862256884,1.6381939075171947
1772697898994785300,6.126785400390625,0.6672036800265312,0.09939590151458978,1.2187316471278666
1772697899004834300,6.136834228515625,0.3040560120552778,-0.04996931504458189,0.7882792061686515
1772697899014883800,6.1468837890625,0.13371172035336493,-0.11034165842086076,0.45600130823552604
1772697899024931600,6.156931640625,0.24817571940124034,-0.23357319355309009,0.1869219170153141
1772697899034980900,6.16698095703125,0.38233226091265676,-0.5029720259860158,-0.1174134965032339
1772697899045029600,6.177029541015625,0.7229857730031013,-0.8506912386789918,-0.5186369203686714
1772697899055078700,6.18707861328125,1.1580202810555695,-1.0264461572527885,-0.7096943297535181
1772697899065126700,6.197126708984375,1.484887844377756,-0.9683949503004551,-0.9148691118180752
1772697899075175700,6.20717578125,1.668820516449213,-0.784912067823112,-0.939935164013505
1772697899085224700,6.217224609375,1.592782401907444,-0.5396241788178682,-0.7828320466786622
1772697899095273700,6.227273681640625,1.27885323061347,-0.29114392351210117,-0.5963526127338409
1772697899105321700,6.23732177734375,0.9744646256029605,-0.12277823840677737,-0.4615232865273952
1772697899115370800,6.247370849609375,0.5508037444800138,0.008441080608963966,-0.3462362806588411
1772697899125419500,6.25741943359375,-0.017123568758368492,0.20894787086248395,-0.2479635379552841
1772697899135468800,6.26746875,-0.5602274063855409,0.46116292878240345,-0.21321312709152698
1772697899145516500,6.2775166015625,-1.0784177520304918,0.44178310552984473,-0.014846855998039244
1772697899155565800,6.28756591796875,-1.4037281490385531,0.23244097465276717,0.22680676815807818
1772697899165614600,6.297614501953125,-1.3263070557057857,0.14306670093685386,0.32794425264298915
1772697899175663600,6.30766357421875,-1.0647627361655234,0.031709435732662675,0.35811844163239
1772697899185711600,6.317711669921875,-0.74814710226655,-0.12290215704739094,0.44228491757214067
1772697899195760600,6.3277607421875,-0.42633448424637316,-0.20929332329928874,0.524378094369173
1772697899205810000,6.337809814453125,-0.2136573637276888,-0.16170914982557297,0.5638198779195547
1772697899215858700,6.347858642578125,-0.07161036122739314,-0.10197188948243856,0.5805085623919963
1772697899225906700,6.35790673828125,0.054952071893215174,-0.16533084745407103,0.4720288984507322
1772697899235955700,6.367955810546875,0.3759305771768093,-0.1564943377867341,0.3818944540172815
1772697899246004700,6.378004638671875,0.7449135271728038,-0.15873276436328887,0.27444121051430703
1772697899256053800,6.3880537109375,1.0244985303163527,-0.2599070737272501,0.1762257509559393
1772697899266101800,6.398101806640625,1.3769985475450754,-0.28703736497610804,-0.08690203838348388
1772697899276150800,6.40815087890625,1.520179522511363,-0.21851152576059102,-0.012909750455617904
1772697899286199800,6.41819970703125,1.5925521002829075,-0.21169453922212123,0.15474983220696448
1772697899296248600,6.42824853515625,1.7432441815316677,-0.0818187437698245,0.12230126854479312
1772697899306296800,6.438296875,1.5766823309779165,0.2617263981088996,0.04754150337576866
1772697899316345600,6.448345703125,1.439301566722989,0.5450377282992005,-0.013593056544661522
1772697899326395000,6.458394775390625,1.2710428491234778,0.6306789529666305,0.08991700229048728
1772697899336443600,6.468443603515625,1.173398467451334,0.6330696474954486,0.549496169012785
1772697899346492000,6.478491943359375,1.0761913081526755,0.8663803907200693,0.5983329728960991
1772697899356540700,6.488540771484375,0.9457143319368362,1.0186351912409066,0.8350310204714536
1772697899366589700,6.498589599609375,0.7181979542046785,1.1800269456803798,0.9174100284725427
1772697899376638700,6.508638671875,0.5393208119571209,1.2640683339357375,1.0467992094516754
1772697899386687700,6.518687744140625,0.2977367459058761,1.314348030103743,1.0998866565167904
1772697899396735700,6.52873583984375,0.11112111836075782,1.407736507897079,0.9930927537053823
1772697899406784800,6.53878466796875,-0.06684416973888874,1.4039403304845093,0.8497095341652632
1772697899416833500,6.54883349609375,-0.22412089007496833,1.305146194255352,0.7324713942289351
1772697899426882800,6.5588828125,-0.26695465415120123,1.0945490948811172,0.6434118855506181
1772697899436930600,6.5689306640625,-0.2589525494813919,0.8865811749666929,0.45970016275346276
1772697899446979800,6.578979736328125,-0.2669043852686882,0.7320555069044232,0.23714871395230291
1772697899457028600,6.589028564453125,-0.2463081719636917,0.5335521654278039,-0.00468903459906578
1772697899467077600,6.59907763671875,-0.17887772676944733,0.3738718910813331,-0.17986790685057638
1772697899477125600,6.609125732421875,-0.04155833731293678,0.4070946539863944,-0.2834767498850822
1772697899487174700,6.619174560546875,0.060245502126216884,0.4815133506327867,-0.3693067751228809
1772697899497223700,6.6292236328125,0.3174228586286306,0.40285277863293883,-0.49031449672579763
1772697899507272700,6.639272705078125,0.502790531939268,0.28693741173297166,-0.5503653530627489
1772697899517320700,6.64932080078125,0.6498316894650459,0.19317220958173273,-0.6585919190257787
1772697899527369700,6.65936962890625,0.7447989608824253,0.19423487037718296,-0.6820984668195247
1772697899537418500,6.66941845703125,0.7266437109887599,0.182145788654685,-0.5828022262871265
1772697899547467800,6.6794677734375,0.5938952827095985,0.20392536652535198,-0.5209498734861612
1772697899557515500,6.689515625,0.47018180927932257,0.21894641004651783,-0.5355214196741581
1772697899567564800,6.699564697265625,0.31585809352993965,0.2738093423515558,-0.6543856995075941
1772697899577613800,6.70961376953125,0.2075689837247133,0.2218821712374687,-0.7319932553231716
1772697899587662600,6.71966259765625,0.1120762271285057,0.1518620018109679,-0.7995546334207058
1772697899597710600,6.729710693359375,-0.034171149671077726,0.14429799629747866,-0.8005366301953792
1772697899607759600,6.739759521484375,-0.17421324208974837,0.11217530358880758,-0.720677496060729
1772697899617809000,6.749808837890625,-0.2828723542511463,0.09628390697389841,-0.6555465599805116
1772697899627857700,6.759857666015625,-0.3302390855818987,0.08895254117250442,-0.6226134276717901
1772697899637906000,6.769906005859375,-0.43312721312642094,0.07427578104436397,-0.5922948617756366
1772697899647954700,6.77995458984375,-0.47522974031865595,0.026856150482594966,-0.5674813230365514
1772697899658003700,6.790003662109375,-0.5331511834114789,-0.05539864661693573,-0.635269495627284
1772697899668052700,6.800052734375,-0.5655576614975929,-0.13285568804591893,-0.6976064170747995
1772697899678100700,6.810100830078125,-0.5865548568189144,-0.20284078615903853,-0.736712685060501
1772697899688149800,6.820149658203125,-0.6270908653467894,-0.2547811090156436,-0.8112713746994733
1772697899698198800,6.83019873046875,-0.7031932772964239,-0.32472529059648514,-0.8629542156636715
1772697899708247600,6.84024755859375,-0.7567629549205303,-0.33307050961554047,-0.9133908559590578
1772697899718295800,6.8502958984375,-0.8053869928359985,-0.3407484968975186,-0.8935808245956898
1772697899728344600,6.860344482421875,-0.8527472944259643,-0.3379761095747351,-0.8383142799258232
1772697899738393900,6.870393798828125,-0.888688376379013,-0.2942766685798764,-0.764833448651433
1772697899748442600,6.880442626953125,-0.8871195196270942,-0.2401499415948987,-0.736045161062479
1772697899758491000,6.890490966796875,-0.8813654861450195,-0.17156623471230267,-0.6634598173230886
1772697899768539600,6.90053955078125,-0.923355200612545,-0.1785690992116928,-0.605628975123167
1772697899778588700,6.910588623046875,-1.0034814612507819,-0.13514146089553833,-0.6348954016178846
1772697899788637700,6.9206376953125,-1.0157143353581428,-0.05818272437751293,-0.6076110888510942
1772697899798685700,6.930685791015625,-0.9878098448663949,-0.01777589518725872,-0.5759942998379468
1772697899808734700,6.940734619140625,-0.9233978707104921,-0.024818799436092377,-0.5196832145512104
1772697899818783700,6.95078369140625,-0.8541326113045216,-0.027197511266171932,-0.541612722286582
1772697899828832500,6.96083251953125,-0.832469645550847,-0.03053600803911686,-0.5988181260645389
1772697899838880800,6.970880859375,-0.8784183267772198,-0.00317453838288784,-0.6939876420557498
1772697899848929500,6.980929443359375,-0.8852630781054496,-0.002890753005445003,-0.6972013434052466
1772697899858978800,6.990978759765625,-0.9164607649236917,-0.0457379610851407,-0.7091121459513903
1772697899869027600,7.001027587890625,-0.984756887036562,0.03402355789393186,-0.7540706470966339
1772697899879075800,7.011075927734375,-1.0504203225582838,-0.022236381727457045,-0.7937515000998974
1772697899889124600,7.02112451171875,-1.1458622257500886,-0.003910743702948093,-0.8739496569305658
1772697899899173600,7.031173583984375,-1.2088619950205086,0.0002852466821670532,-1.0089677837073803
1772697899909222700,7.04122265625,-1.274515493670106,-0.010362696321308613,-1.1407464901715516
1772697899919270700,7.051270751953125,-1.3585779247134924,-0.0676607468187809,-1.3056038748949765
1772697899929319700,7.061319580078125,-1.4175713809520005,-0.1681181400850415,-1.4999059652894735
1772697899939368700,7.07136865234375,-1.4951818593770265,-0.2503936877116561,-1.70198570394814
1772697899949417700,7.081417724609375,-1.5854460676699875,-0.3195838360548019,-1.9122201074898242
1772697899959465700,7.0914658203125,-1.7508330292254686,-0.2773129665583372,-2.1220564516246316
1772697899969514500,7.101514404296875,-1.829244302639365,-0.26137100879997016,-1.9802514411866663
1772697899979563800,7.111563720703125,-1.6405243962913751,0.15678893681913614,-1.2306138081014155
1772697899989612800,7.12161279296875,-1.6190087300539016,1.1022454946026206,0.45446693827509876
1772697899999660800,7.131660888671875,-1.7963655308663844,1.9090391393661499,1.1143459745019673
1772697900009709800,7.141709716796875,-1.4388830490499733,2.313385663688183,1.1725807213276624
1772697900019758600,7.151758544921875,-0.849120336100459,2.533828742033243,1.4942027852118014
1772697900029807900,7.161807861328125,-0.5972890168011188,2.6185379465475678,1.6602455803275107
1772697900039855600,7.171855712890625,-0.21455752743780612,2.655577637392282,1.4966846651554107
1772697900049905000,7.18190478515625,0.07755845597684383,2.492027828136086,1.2721212920099496
1772697900059953700,7.19195361328125,0.06090542733967304,2.1763623345687986,1.1903753212153911
1772697900070002700,7.202002685546875,0.1818371610969305,1.5922575012505054,0.9053758918076753
1772697900080050700,7.21205078125,0.19748773469328879,0.6012602585196495,0.46190848645269866
1772697900090099700,7.222099609375,0.3333446503818035,-0.2542553315758705,0.06387596758306026
1772697900100148700,7.232148681640625,0.8339736203730106,-0.5766320132195949,0.1064554646372795
1772697900110197800,7.24219775390625,1.2735592158585787,-0.5059869898930192,-0.017628011149168014
1772697900120245800,7.252245849609375,1.5973615463912485,-0.38628888958394525,-0.2520113520413637
1772697900130294800,7.262294677734375,1.5121902773231266,-0.06233370657712221,0.163050043040514
1772697900140343600,7.272343505859375,1.075799093964696,-0.025914485718309878,0.9204279149889946
1772697900150392800,7.282392822265625,0.8231406761914491,-0.08706044381558894,1.3785878625631331
1772697900160440600,7.292440673828125,0.5364414571285248,0.1302598263338208,1.6526514719367027
1772697900170489900,7.30248974609375,0.3883452375918627,0.3506716327577829,1.796068009224534
1772697900180538600,7.31253857421875,0.43838206491470333,0.3202545749232173,1.7814228132784367
1772697900190587600,7.322587646484375,0.6759107180953026,0.0900575798049569,1.585915438747406
1772697900200635600,7.3326357421875,0.9987842433452606,-0.2385062660411,1.2725187668949365
1772697900210684700,7.3426845703125,1.226084932500124,-0.5600365599885583,0.9763520467847585
1772697900220733700,7.352733642578125,1.2824363497972489,-0.7068342641472816,0.6930798795610665
1772697900230782700,7.36278271484375,1.333816992944479,-0.8120745077759027,0.5600210701584816
1772697900240830700,7.372830810546875,1.3106804475069045,-0.8147115782812238,0.4321586603552103
1772697900250879700,7.382879638671875,1.3589338985443113,-0.7665466823101044,0.34361236189603805
1772697900260928500,7.392928466796875,1.3585855234980582,-0.6336088689386844,0.306978036981821
1772697900270977800,7.402977783203125,1.3723930995762348,-0.46701720776855943,0.3419458899885416
1772697900281025500,7.413025634765625,1.4223638759255408,-0.3115563046827912,0.43790334148705
1772697900291074800,7.42307470703125,1.3991899210870264,-0.19328852943778038,0.5596007989197969
1772697900301123600,7.43312353515625,1.3246739015460014,-0.10030103366076945,0.5825111343860626
1772697900311172600,7.443172607421875,1.2808856132239101,-0.013092121285200119,0.6233335586398839
1772697900321222000,7.453221923828125,1.1840776823759078,0.05594020614773035,0.5276835656553507
1772697900331269600,7.46326953125,1.028522963526845,0.1410720199882984,0.39244215151667594
1772697900341318700,7.473318603515625,0.9338105436533689,0.13336831374317407,0.3276712809205055
1772697900351367700,7.48336767578125,0.8749871832847594,0.12467062802463769,0.27840894510149955
1772697900361415700,7.493415771484375,0.8329343404531478,0.11223200221210718,0.27120938898622987
1772697900371464700,7.503464599609375,0.7693062101513147,0.06488426784276961,0.3081254534512758
1772697900381513700,7.513513671875,0.7255249360918998,0.002283434762060642,0.26351240474283694
1772697900391562800,7.523562744140625,0.6509235763549804,-0.11054302621185778,0.17295125932991504
1772697900401611800,7.53361181640625,0.8799895216166973,-0.07759966477006673,0.17273381718695163
1772697900411659800,7.54365966796875,1.6193956835448742,-0.08902677545249461,0.5238064319610596
1772697900421708800,7.553708740234375,0.39521278527379033,0.45001668086797,0.46357963453531265
1772697900431757600,7.563757568359375,0.1157756661683321,0.20990502545684575,0.10180793109238147
1772697900441806800,7.573806884765625,0.1229120939195156,0.09807546656578779,0.17045125920772553
1772697900451854600,7.5838544921875,0.10115034396648406,0.054500236472487446,0.45676820095479487
1772697900461904000,7.59390380859375,0.17016250539422034,0.005533376468718052,0.536996752923727
1772697900471952600,7.60395263671875,0.19998598124980926,-0.0011085457637906074,0.5016951379179955
1772697900482001700,7.614001708984375,0.16221066960692404,0.04231412411630153,0.3612959026247263
1772697900492049700,7.624049560546875,0.06645254007279873,0.1064122100174427,0.2748778483659029
1772697900502098700,7.6340986328125,0.15907821680009365,-0.03209580470174551,0.26841654339730736
1772697900512147700,7.644147705078125,0.49961891616582865,-0.22781243806928395,0.3557137185782194
1772697900522196700,7.65419677734375,0.645638913950324,-0.3023465777888894,0.46964755627214905
