time,seconds_elapsed,z,y,x
1772697892924086500,0.05608642578125,-0.5953216552734375,0.3248443603515625,0.724700927734375
1772697892934135600,0.066135498046875,-0.6027984619140625,0.3262939453125,0.715606689453125
1772697892944183600,0.07618359375,-0.607330322265625,0.3280181884765625,0.7124786376953125
1772697892954232600,0.086232666015625,-0.602691650390625,0.3361968994140625,0.7035369873046875
1772697892964281600,0.096281494140625,-0.60247802734375,0.3402862548828125,0.705322265625
1772697892974330400,0.106330322265625,-0.6076812744140625,0.34844970703125,0.7026214599609375
1772697892984378600,0.116378662109375,-0.614013671875,0.354339599609375,0.6946563720703125
1772697892994427400,0.126427490234375,-0.623565673828125,0.35711669921875,0.686859130859375
1772697893004476700,0.1364765625,-0.623504638671875,0.3558349609375,0.6846923828125
1772697893014525700,0.146525634765625,-0.62152099609375,0.3505859375,0.684814453125
1772697893024573400,0.156573486328125,-0.62005615234375,0.345001220703125,0.6859130859375
1772697893034622700,0.166622802734375,-0.6156768798828125,0.3427581787109375,0.687164306640625
1772697893044671500,0.17667138671875,-0.6105804443359375,0.34423828125,0.68780517578125
1772697893054720800,0.186720703125,-0.60577392578125,0.33514404296875,0.6904449462890625
1772697893064768500,0.1967685546875,-0.6037750244140625,0.3303680419921875,0.689178466796875
1772697893074817500,0.206817626953125,-0.604583740234375,0.32843017578125,0.695098876953125
1772697893084866600,0.216866455078125,-0.6021728515625,0.322479248046875,0.700469970703125
1772697893094915600,0.22691552734375,-0.5992584228515625,0.3199462890625,0.69989013671875
1772697893104963600,0.236963623046875,-0.5978851318359375,0.318603515625,0.70361328125
1772697893115012600,0.2470126953125,-0.600433349609375,0.3147125244140625,0.714569091796875
1772697893125061600,0.2570615234375,-0.605682373046875,0.312896728515625,0.7231292724609375
1772697893135109600,0.267109619140625,-0.6134185791015625,0.3103790283203125,0.7286834716796875
1772697893145158700,0.27715869140625,-0.6208038330078125,0.305267333984375,0.72711181640625
1772697893155207700,0.287207763671875,-0.6192474365234375,0.30401611328125,0.713592529296875
1772697893165256400,0.29725634765625,-0.626129150390625,0.296295166015625,0.7085113525390625
1772697893175304700,0.3073046875,-0.636199951171875,0.2928466796875,0.7010650634765625
1772697893185353500,0.317353515625,-0.6494140625,0.2952728271484375,0.6959991455078125
1772697893195402500,0.327402587890625,-0.6464996337890625,0.291748046875,0.6948089599609375
1772697893205451500,0.337451416015625,-0.6440277099609375,0.2912750244140625,0.7025299072265625
1772697893215499500,0.34749951171875,-0.6472625732421875,0.2916412353515625,0.7177581787109375
1772697893225548500,0.357548583984375,-0.6487274169921875,0.2962188720703125,0.72906494140625
1772697893235597600,0.36759765625,-0.6504974365234375,0.3038482666015625,0.733917236328125
1772697893245646600,0.377646484375,-0.6520843505859375,0.309295654296875,0.73760986328125
1772697893255694600,0.387694580078125,-0.6537322998046875,0.31048583984375,0.7333831787109375
1772697893265743600,0.39774365234375,-0.6569671630859375,0.30804443359375,0.7306976318359375
1772697893275792600,0.407792724609375,-0.6586761474609375,0.306121826171875,0.734588623046875
1772697893285841700,0.417841552734375,-0.6614227294921875,0.3056488037109375,0.7335357666015625
1772697893295889700,0.4278896484375,-0.656402587890625,0.3067779541015625,0.7216339111328125
1772697893305938400,0.4379384765625,-0.6499786376953125,0.30419921875,0.7210540771484375
1772697893315987700,0.44798779296875,-0.6465911865234375,0.299957275390625,0.7238922119140625
1772697893326036700,0.45803662109375,-0.6401824951171875,0.302490234375,0.72509765625
1772697893336084500,0.46808447265625,-0.63568115234375,0.30987548828125,0.72283935546875
1772697893346133800,0.4781337890625,-0.6328125,0.313690185546875,0.7141571044921875
1772697893356182500,0.4881826171875,-0.6309967041015625,0.31549072265625,0.702392578125
1772697893366231600,0.4982314453125,-0.6306304931640625,0.3156280517578125,0.6992645263671875
1772697893376279600,0.508279541015625,-0.6328582763671875,0.315155029296875,0.699859619140625
1772697893386328600,0.51832861328125,-0.631744384765625,0.3117828369140625,0.7020416259765625
1772697893396377600,0.528377685546875,-0.635162353515625,0.3118438720703125,0.70489501953125
1772697893406426600,0.538426513671875,-0.64056396484375,0.3144989013671875,0.70098876953125
1772697893416474600,0.548474609375,-0.6475830078125,0.323028564453125,0.697235107421875
1772697893426523600,0.558523681640625,-0.6577911376953125,0.3311920166015625,0.6926116943359375
1772697893436572700,0.56857275390625,-0.6605987548828125,0.33660888671875,0.685028076171875
1772697893446621700,0.57862158203125,-0.6612548828125,0.3428497314453125,0.6828460693359375
1772697893456669700,0.588669677734375,-0.6596527099609375,0.3432159423828125,0.689117431640625
1772697893466718700,0.59871875,-0.6556243896484375,0.333404541015625,0.6768646240234375
1772697893476767500,0.608767578125,-0.6572265625,0.3300323486328125,0.6754608154296875
1772697893486816800,0.618816650390625,-0.658935546875,0.3135223388671875,0.66796875
1772697893496864500,0.628864501953125,-0.6665496826171875,0.314422607421875,0.666656494140625
1772697893506913500,0.63891357421875,-0.6674041748046875,0.3118438720703125,0.6670379638671875
1772697893516962600,0.648962646484375,-0.6698455810546875,0.317291259765625,0.6668548583984375
1772697893527011600,0.659011474609375,-0.6624603271484375,0.3211822509765625,0.6644744873046875
1772697893537059600,0.6690595703125,-0.6507110595703125,0.31817626953125,0.6583709716796875
1772697893547108600,0.679108642578125,-0.631439208984375,0.3171234130859375,0.6501312255859375
1772697893557157600,0.68915771484375,-0.61419677734375,0.3141021728515625,0.65252685546875
1772697893567206700,0.69920654296875,-0.6043701171875,0.311065673828125,0.658782958984375
1772697893577254700,0.709254638671875,-0.59942626953125,0.3079986572265625,0.663726806640625
1772697893587303700,0.7193037109375,-0.601531982421875,0.3045806884765625,0.66864013671875
1772697893597352400,0.7293525390625,-0.600860595703125,0.301422119140625,0.6720733642578125
1772697893607401700,0.739401611328125,-0.607421875,0.2995758056640625,0.6788787841796875
1772697893617449500,0.749449462890625,-0.6108856201171875,0.29949951171875,0.6823577880859375
1772697893627498800,0.759498779296875,-0.6164093017578125,0.2986297607421875,0.6885528564453125
1772697893637547500,0.769547607421875,-0.6216278076171875,0.3004302978515625,0.6943817138671875
1772697893647596500,0.779596435546875,-0.62115478515625,0.3041534423828125,0.7003326416015625
1772697893657644500,0.78964453125,-0.6219940185546875,0.30657958984375,0.6963043212890625
1772697893667693600,0.799693603515625,-0.6282501220703125,0.3125152587890625,0.6957855224609375
1772697893677742600,0.80974267578125,-0.632720947265625,0.3168182373046875,0.691986083984375
1772697893687791600,0.81979150390625,-0.633392333984375,0.319091796875,0.6949615478515625
1772697893697839600,0.829839599609375,-0.63983154296875,0.3243408203125,0.696502685546875
1772697893707888600,0.839888671875,-0.638702392578125,0.325469970703125,0.6988067626953125
1772697893717937700,0.849937744140625,-0.6377105712890625,0.3285064697265625,0.6940765380859375
1772697893727985700,0.859985595703125,-0.6385498046875,0.3282623291015625,0.6881866455078125
1772697893738034400,0.870034423828125,-0.6435546875,0.3291778564453125,0.6792144775390625
1772697893748083700,0.880083740234375,-0.638336181640625,0.33416748046875,0.677734375
1772697893758132700,0.8901328125,-0.6435546875,0.341766357421875,0.6852874755859375
1772697893768181500,0.900181396484375,-0.64630126953125,0.349639892578125,0.689117431640625
1772697893778229500,0.9102294921875,-0.6470794677734375,0.3639984130859375,0.7045745849609375
1772697893788278500,0.920278564453125,-0.64788818359375,0.36541748046875,0.7251739501953125
1772697893798327800,0.930327880859375,-0.6371917724609375,0.3700103759765625,0.7427215576171875
1772697893808376600,0.94037646484375,-0.6279296875,0.378997802734375,0.7615509033203125
1772697893818424600,0.950424560546875,-0.614898681640625,0.38232421875,0.7722320556640625
1772697893828473600,0.9604736328125,-0.6155853271484375,0.389434814453125,0.7812042236328125
1772697893838522600,0.970522705078125,-0.626251220703125,0.389739990234375,0.7854766845703125
1772697893848570600,0.980570556640625,-0.6352386474609375,0.399505615234375,0.778564453125
1772697893858619600,0.99061962890625,-0.6351165771484375,0.4073638916015625,0.772705078125
1772697893868668700,1.000668701171875,-0.62567138671875,0.4073333740234375,0.76702880859375
1772697893878717700,1.0107177734375,-0.62213134765625,0.407196044921875,0.7477874755859375
1772697893888765700,1.020765625,-0.6148834228515625,0.4066619873046875,0.7274932861328125
1772697893898814700,1.030814697265625,-0.59881591796875,0.412689208984375,0.719879150390625
1772697893908863500,1.040863525390625,-0.5848236083984375,0.4154205322265625,0.7027435302734375
1772697893918912800,1.050912841796875,-0.576019287109375,0.4107513427734375,0.6983795166015625
1772697893928960500,1.06096044921875,-0.5761566162109375,0.4060516357421875,0.6954345703125
1772697893939009800,1.071009765625,-0.59320068359375,0.4052734375,0.6941070556640625
1772697893949058600,1.08105859375,-0.588043212890625,0.4097900390625,0.690460205078125
1772697893959107600,1.091107666015625,-0.595123291015625,0.41302490234375,0.7005462646484375
1772697893969155600,1.101155517578125,-0.58856201171875,0.417388916015625,0.7084808349609375
1772697893979204600,1.11120458984375,-0.594390869140625,0.425018310546875,0.7143096923828125
1772697893989253600,1.121253662109375,-0.5994873046875,0.4276123046875,0.7162322998046875
1772697893999302700,1.131302734375,-0.6015777587890625,0.4383392333984375,0.711212158203125
1772697894009350700,1.1413505859375,-0.602752685546875,0.443145751953125,0.706451416015625
1772697894019399400,1.1513994140625,-0.5965576171875,0.43817138671875,0.71209716796875
1772697894029448400,1.161448486328125,-0.5859375,0.430145263671875,0.716552734375
1772697894039497700,1.171497802734375,-0.5732269287109375,0.41925048828125,0.717193603515625
1772697894049545500,1.18154541015625,-0.5639190673828125,0.414276123046875,0.7221832275390625
1772697894059594500,1.191594482421875,-0.5559234619140625,0.4134368896484375,0.717987060546875
1772697894069643500,1.2016435546875,-0.54461669921875,0.410125732421875,0.717926025390625
1772697894079692500,1.211692626953125,-0.5307159423828125,0.41107177734375,0.7186126708984375
1772697894089740500,1.221740478515625,-0.5224609375,0.4170074462890625,0.7232513427734375
1772697894099789600,1.23178955078125,-0.515594482421875,0.419097900390625,0.725860595703125
1772697894109838600,1.241838623046875,-0.51373291015625,0.4233551025390625,0.7227325439453125
1772697894119887600,1.2518876953125,-0.5081787109375,0.42926025390625,0.7147674560546875
1772697894129935600,1.261935546875,-0.5077667236328125,0.4355621337890625,0.711151123046875
1772697894139984600,1.271984619140625,-0.5118408203125,0.4459075927734375,0.7041778564453125
1772697894150033400,1.282033447265625,-0.51727294921875,0.458160400390625,0.695770263671875
1772697894160082700,1.292082763671875,-0.520843505859375,0.4603118896484375,0.69317626953125
1772697894170130400,1.30213037109375,-0.5276947021484375,0.46221923828125,0.69305419921875
1772697894180179700,1.3121796875,-0.531524658203125,0.4662322998046875,0.6981048583984375
1772697894190228500,1.322228515625,-0.5326080322265625,0.4729156494140625,0.7020721435546875
1772697894200277500,1.332277587890625,-0.5373382568359375,0.474395751953125,0.696319580078125
1772697894210325500,1.342325439453125,-0.5494842529296875,0.478271484375,0.6930694580078125
1772697894220374500,1.35237451171875,-0.5514984130859375,0.48126220703125,0.7023773193359375
1772697894230423600,1.362423583984375,-0.55169677734375,0.47991943359375,0.701629638671875
1772697894240472600,1.37247265625,-0.5545654296875,0.4893035888671875,0.6982421875
1772697894250520600,1.3825205078125,-0.5538482666015625,0.4889068603515625,0.6990966796875
1772697894260569600,1.392569580078125,-0.5552978515625,0.4916534423828125,0.7109527587890625
1772697894270618400,1.402618408203125,-0.5511627197265625,0.494873046875,0.7177886962890625
1772697894280667600,1.412667724609375,-0.5455169677734375,0.4979400634765625,0.714508056640625
1772697894290715400,1.42271533203125,-0.54168701171875,0.499053955078125,0.7101593017578125
1772697894300764700,1.4327646484375,-0.53363037109375,0.4998626708984375,0.7097320556640625
1772697894310813400,1.4428134765625,-0.5248870849609375,0.493896484375,0.70831298828125
1772697894320862500,1.452862548828125,-0.5175933837890625,0.4956512451171875,0.7038421630859375
1772697894330910500,1.462910400390625,-0.5184173583984375,0.4901275634765625,0.7012786865234375
1772697894340959500,1.47295947265625,-0.5212249755859375,0.4888916015625,0.6982421875
1772697894351008500,1.483008544921875,-0.5203704833984375,0.4886322021484375,0.7003021240234375
1772697894361057500,1.4930576171875,-0.524688720703125,0.4920501708984375,0.6968841552734375
1772697894371105500,1.50310546875,-0.52447509765625,0.496368408203125,0.7011871337890625
1772697894381154600,1.513154541015625,-0.5190277099609375,0.4934539794921875,0.704742431640625
1772697894391203300,1.523203369140625,-0.5196990966796875,0.4934844970703125,0.6930084228515625
1772697894401252600,1.533252685546875,-0.522186279296875,0.49127197265625,0.6790924072265625
1772697894411300400,1.54330029296875,-0.5288848876953125,0.4871826171875,0.6715850830078125
1772697894421349600,1.553349609375,-0.5329742431640625,0.48126220703125,0.662078857421875
1772697894431398400,1.5633984375,-0.534881591796875,0.4830780029296875,0.658660888671875
1772697894441447400,1.573447509765625,-0.5399322509765625,0.4878692626953125,0.65985107421875
1772697894451495400,1.583495361328125,-0.5522918701171875,0.4924774169921875,0.6660308837890625
1772697894461544400,1.59354443359375,-0.5577545166015625,0.4984283447265625,0.671173095703125
1772697894471593700,1.60359375,-0.5647430419921875,0.5043487548828125,0.6780242919921875
1772697894481642500,1.613642578125,-0.567626953125,0.510955810546875,0.68206787109375
1772697894491690500,1.6236904296875,-0.5686492919921875,0.5127105712890625,0.68121337890625
1772697894501739500,1.633739501953125,-0.575714111328125,0.518524169921875,0.679046630859375
1772697894511788500,1.64378857421875,-0.5832061767578125,0.5246124267578125,0.6721649169921875
1772697894521837600,1.653837646484375,-0.601409912109375,0.5262451171875,0.6697540283203125
1772697894531885600,1.663885498046875,-0.6055450439453125,0.5293121337890625,0.660797119140625
1772697894541934600,1.6739345703125,-0.59686279296875,0.5249176025390625,0.6534271240234375
1772697894551983600,1.683983642578125,-0.605194091796875,0.524200439453125,0.653900146484375
1772697894562032400,1.694032470703125,-0.5999755859375,0.51898193359375,0.650543212890625
1772697894572080600,1.70408056640625,-0.59423828125,0.5099945068359375,0.6559600830078125
1772697894582129400,1.71412939453125,-0.5932769775390625,0.496063232421875,0.6545867919921875
1772697894592178700,1.7241787109375,-0.5897216796875,0.486907958984375,0.6407928466796875
1772697894602227500,1.7342275390625,-0.5879974365234375,0.48016357421875,0.6253814697265625
1772697894612275700,1.744275634765625,-0.5884552001953125,0.4723052978515625,0.612945556640625
1772697894622324500,1.754324462890625,-0.5847625732421875,0.467681884765625,0.604461669921875
1772697894632373500,1.76437353515625,-0.581146240234375,0.4626007080078125,0.5938873291015625
1772697894642421500,1.77442138671875,-0.582275390625,0.46942138671875,0.600982666015625
1772697894652470500,1.784470458984375,-0.5739593505859375,0.473480224609375,0.607421875
1772697894662519600,1.79451953125,-0.5629730224609375,0.4821014404296875,0.6169891357421875
1772697894672568600,1.804568603515625,-0.5625457763671875,0.48626708984375,0.6295166015625
1772697894682616600,1.814616455078125,-0.570281982421875,0.486297607421875,0.6332855224609375
1772697894692665600,1.82466552734375,-0.5713958740234375,0.484893798828125,0.6305084228515625
1772697894702714400,1.83471435546875,-0.5793304443359375,0.4777069091796875,0.6259002685546875
1772697894712763600,1.844763671875,-0.58636474609375,0.4783172607421875,0.628662109375
1772697894722811400,1.854811279296875,-0.601409912109375,0.475341796875,0.6282196044921875
1772697894732860700,1.864860595703125,-0.610015869140625,0.469818115234375,0.6255340576171875
1772697894742909400,1.874909423828125,-0.619903564453125,0.470367431640625,0.626129150390625
1772697894752958500,1.88495849609375,-0.63201904296875,0.4689788818359375,0.62030029296875
1772697894763006500,1.89500634765625,-0.641448974609375,0.4678497314453125,0.6209564208984375
1772697894773055500,1.905055419921875,-0.646484375,0.4688568115234375,0.6187744140625
1772697894783104500,1.9151044921875,-0.65924072265625,0.4699554443359375,0.601287841796875
1772697894793153500,1.925153564453125,-0.6651153564453125,0.4681396484375,0.5890655517578125
1772697894803201500,1.935201416015625,-0.66265869140625,0.4638214111328125,0.5784149169921875
1772697894813250600,1.94525048828125,-0.65863037109375,0.4598236083984375,0.5707550048828125
1772697894823299300,1.95529931640625,-0.64764404296875,0.4508209228515625,0.5617523193359375
1772697894833348600,1.9653486328125,-0.64422607421875,0.4497528076171875,0.5559844970703125
1772697894843396400,1.975396240234375,-0.6455078125,0.446807861328125,0.552276611328125
1772697894853445600,1.985445556640625,-0.6482391357421875,0.4421539306640625,0.5483245849609375
1772697894863494400,1.995494384765625,-0.65509033203125,0.4403076171875,0.5498504638671875
1772697894873543400,2.00554345703125,-0.662872314453125,0.4384613037109375,0.5436553955078125
1772697894883591400,2.01559130859375,-0.6671142578125,0.4359588623046875,0.540771484375
1772697894893640400,2.025640380859375,-0.667938232421875,0.4405517578125,0.5384674072265625
1772697894903689700,2.035689697265625,-0.66717529296875,0.444915771484375,0.5430450439453125
1772697894913738500,2.045738525390625,-0.6674041748046875,0.4480438232421875,0.5498046875
1772697894923786500,2.055786376953125,-0.6669921875,0.455535888671875,0.561492919921875
1772697894933835500,2.06583544921875,-0.6632843017578125,0.4614715576171875,0.57513427734375
1772697894943884500,2.075884521484375,-0.6665496826171875,0.470794677734375,0.5894927978515625
1772697894953933600,2.08593359375,-0.662384033203125,0.4801483154296875,0.599456787109375
1772697894963981600,2.095981689453125,-0.6663360595703125,0.4845123291015625,0.607818603515625
1772697894974030600,2.106030517578125,-0.6710205078125,0.4819793701171875,0.6133575439453125
1772697894984079600,2.11607958984375,-0.67767333984375,0.476104736328125,0.6234130859375
1772697894994128400,2.12612841796875,-0.6862030029296875,0.4670562744140625,0.628875732421875
1772697895004176100,2.136176025390625,-0.6991729736328125,0.4613800048828125,0.6304931640625
1772697895014225200,2.14622509765625,-0.708282470703125,0.456512451171875,0.6289825439453125
1772697895024274200,2.156274169921875,-0.713409423828125,0.45269775390625,0.6234130859375
1772697895034323200,2.1663232421875,-0.7154541015625,0.4482574462890625,0.613677978515625
1772697895044371200,2.17637109375,-0.7047576904296875,0.4453582763671875,0.608184814453125
1772697895054420200,2.186420166015625,-0.6993408203125,0.443572998046875,0.6013946533203125
1772697895064469200,2.19646923828125,-0.695556640625,0.449554443359375,0.59466552734375
1772697895074518300,2.206518310546875,-0.67529296875,0.4501190185546875,0.5796356201171875
1772697895084566000,2.21656591796875,-0.6596221923828125,0.4378662109375,0.574951171875
1772697895094615300,2.226615234375,-0.6452178955078125,0.4406280517578125,0.5711669921875
1772697895104664300,2.236664306640625,-0.644317626953125,0.441619873046875,0.558380126953125
1772697895114713000,2.246713134765625,-0.640655517578125,0.4377288818359375,0.5482940673828125
1772697895124761000,2.256760986328125,-0.6347503662109375,0.4385223388671875,0.5428466796875
1772697895134810000,2.26681005859375,-0.626953125,0.4394073486328125,0.5336151123046875
1772697895144859400,2.276859375,-0.6258392333984375,0.439727783203125,0.5186920166015625
1772697895154908200,2.286908203125,-0.6320648193359375,0.441375732421875,0.5100250244140625
1772697895164956400,2.296956298828125,-0.62872314453125,0.4387969970703125,0.4969635009765625
1772697895175005200,2.307005126953125,-0.6374053955078125,0.45831298828125,0.4987945556640625
1772697895185054200,2.31705419921875,-0.6410064697265625,0.4865875244140625,0.5153045654296875
1772697895195103200,2.327103271484375,-0.6529998779296875,0.52569580078125,0.5711669921875
1772697895205151200,2.337151123046875,-0.6646270751953125,0.555633544921875,0.6304168701171875
1772697895215200300,2.3472001953125,-0.6724090576171875,0.5831451416015625,0.6820526123046875
1772697895225249300,2.357249267578125,-0.6735076904296875,0.613250732421875,0.728973388671875
1772697895235297300,2.36729736328125,-0.67303466796875,0.6464996337890625,0.7742767333984375
1772697895245346300,2.37734619140625,-0.6744384765625,0.68109130859375,0.816192626953125
1772697895255395000,2.38739501953125,-0.6813201904296875,0.70245361328125,0.8524932861328125
1772697895265444400,2.3974443359375,-0.668365478515625,0.7093658447265625,0.8702545166015625
1772697895275493000,2.4074931640625,-0.64508056640625,0.707000732421875,0.868743896484375
1772697895285541400,2.417541259765625,-0.612152099609375,0.6851654052734375,0.850830078125
1772697895295590100,2.427590087890625,-0.5795135498046875,0.6596832275390625,0.8287200927734375
1772697895305639200,2.43763916015625,-0.5543975830078125,0.6234893798828125,0.79425048828125
1772697895315687200,2.447687255859375,-0.531829833984375,0.572784423828125,0.7464752197265625
1772697895325736200,2.457736083984375,-0.528076171875,0.51220703125,0.6977996826171875
1772697895335785200,2.46778515625,-0.5058135986328125,0.4748077392578125,0.6375885009765625
1772697895345834200,2.477834228515625,-0.4840545654296875,0.4545745849609375,0.5967559814453125
1772697895355882200,2.48788232421875,-0.4693450927734375,0.4317626953125,0.5858154296875
1772697895365931300,2.49793115234375,-0.4702606201171875,0.403533935546875,0.5989990234375
1772697895375980000,2.50797998046875,-0.4746246337890625,0.3819122314453125,0.6005401611328125
1772697895386029300,2.518029296875,-0.4748077392578125,0.37261962890625,0.610992431640625
1772697895396077000,2.5280771484375,-0.496063232421875,0.3656768798828125,0.6171722412109375
1772697895406126300,2.538126220703125,-0.52593994140625,0.37225341796875,0.6243133544921875
1772697895416175000,2.548175048828125,-0.5579376220703125,0.39483642578125,0.65203857421875
1772697895426224000,2.55822412109375,-0.5850982666015625,0.4212646484375,0.66070556640625
1772697895436272000,2.568272216796875,-0.5855560302734375,0.438812255859375,0.6704559326171875
1772697895446321200,2.578321044921875,-0.58038330078125,0.4602203369140625,0.688018798828125
1772697895456370200,2.5883701171875,-0.5751800537109375,0.4694061279296875,0.704498291015625
1772697895466419200,2.598419189453125,-0.5738525390625,0.4713897705078125,0.7123260498046875
1772697895476467200,2.60846728515625,-0.5712890625,0.476806640625,0.7128753662109375
1772697895486516200,2.61851611328125,-0.5641632080078125,0.48480224609375,0.72308349609375
1772697895496565000,2.62856494140625,-0.5576019287109375,0.489959716796875,0.7356414794921875
1772697895506614300,2.6386142578125,-0.54119873046875,0.497650146484375,0.75213623046875
1772697895516662000,2.648662109375,-0.523223876953125,0.495880126953125,0.7638092041015625
1772697895526711300,2.658711181640625,-0.5087890625,0.4876861572265625,0.7739410400390625
1772697895536760300,2.66876025390625,-0.489959716796875,0.4793548583984375,0.782379150390625
1772697895546809000,2.67880908203125,-0.473175048828125,0.467010498046875,0.7853851318359375
1772697895556857000,2.688857177734375,-0.467559814453125,0.4538726806640625,0.7840118408203125
1772697895566906000,2.698906005859375,-0.4652862548828125,0.442596435546875,0.7795562744140625
1772697895576955400,2.708955322265625,-0.4685821533203125,0.4272003173828125,0.7664794921875
1772697895587004200,2.719004150390625,-0.4696502685546875,0.4139404296875,0.7626190185546875
1772697895597052400,2.729052490234375,-0.4759979248046875,0.4066009521484375,0.760040283203125
1772697895607101200,2.73910107421875,-0.4843597412109375,0.4063262939453125,0.7606353759765625
1772697895617150200,2.749150146484375,-0.488739013671875,0.40948486328125,0.766082763671875
1772697895627199200,2.75919921875,-0.4917144775390625,0.4154815673828125,0.765960693359375
1772697895637247200,2.769247314453125,-0.495391845703125,0.4233856201171875,0.773040771484375
1772697895647296300,2.779296142578125,-0.4944305419921875,0.4362945556640625,0.7845458984375
1772697895657345300,2.78934521484375,-0.495147705078125,0.4478912353515625,0.784454345703125
1772697895667394000,2.79939404296875,-0.50250244140625,0.4579315185546875,0.7769775390625
1772697895677442300,2.8094423828125,-0.508148193359375,0.459869384765625,0.7624664306640625
1772697895687491000,2.819490966796875,-0.5117034912109375,0.4559478759765625,0.7415924072265625
1772697895697540400,2.829540283203125,-0.511932373046875,0.44488525390625,0.71807861328125
1772697895707589000,2.839589111328125,-0.5054473876953125,0.435760498046875,0.69268798828125
1772697895717637400,2.849637451171875,-0.5088958740234375,0.428009033203125,0.67626953125
1772697895727686100,2.85968603515625,-0.5146484375,0.4157867431640625,0.664398193359375
1772697895737735200,2.869735107421875,-0.524322509765625,0.4116058349609375,0.6480712890625
1772697895747784200,2.8797841796875,-0.5285186767578125,0.4040985107421875,0.6392059326171875
1772697895757832200,2.889832275390625,-0.535400390625,0.4012603759765625,0.6294097900390625
1772697895767881200,2.899881103515625,-0.54644775390625,0.4053497314453125,0.6247711181640625
1772697895777930200,2.90993017578125,-0.559051513671875,0.4065399169921875,0.629791259765625
1772697895787979000,2.91997900390625,-0.570648193359375,0.4074249267578125,0.638946533203125
1772697895798027300,2.93002734375,-0.581146240234375,0.4115447998046875,0.6480255126953125
1772697895808076000,2.940075927734375,-0.596282958984375,0.4217987060546875,0.656005859375
1772697895818125300,2.950125244140625,-0.6063385009765625,0.4242401123046875,0.6631317138671875
1772697895828174000,2.960174072265625,-0.61737060546875,0.424652099609375,0.672210693359375
1772697895838222300,2.970222412109375,-0.6278533935546875,0.42462158203125,0.6842193603515625
1772697895848271000,2.98027099609375,-0.6360015869140625,0.4215545654296875,0.6878814697265625
1772697895858320100,2.990320068359375,-0.6507415771484375,0.41748046875,0.694091796875
1772697895868369200,3.000369140625,-0.663787841796875,0.4159698486328125,0.696929931640625
1772697895878417200,3.010417236328125,-0.6716461181640625,0.411163330078125,0.6964263916015625
1772697895888466200,3.020466064453125,-0.6707000732421875,0.4085235595703125,0.6936187744140625
1772697895898515200,3.03051513671875,-0.6648101806640625,0.4013824462890625,0.692352294921875
1772697895908564200,3.040564208984375,-0.663848876953125,0.40618896484375,0.689483642578125
1772697895918612200,3.0506123046875,-0.664764404296875,0.4118194580078125,0.6826629638671875
1772697895928661000,3.060660888671875,-0.6649627685546875,0.41583251953125,0.672332763671875
1772697895938710300,3.070710205078125,-0.6602783203125,0.4159393310546875,0.6636810302734375
1772697895948758000,3.080758056640625,-0.651580810546875,0.412811279296875,0.6533355712890625
1772697895958807300,3.090807373046875,-0.6461181640625,0.4150848388671875,0.645111083984375
1772697895968856300,3.100856201171875,-0.639404296875,0.4052581787109375,0.6334228515625
1772697895978905000,3.110905029296875,-0.6349639892578125,0.40692138671875,0.623016357421875
1772697895988953000,3.120953125,-0.626861572265625,0.404052734375,0.6153564453125
1772697895999002000,3.131002197265625,-0.6201629638671875,0.3997802734375,0.60809326171875
1772697896009051400,3.141051513671875,-0.6158599853515625,0.39739990234375,0.6039276123046875
1772697896019100400,3.151100341796875,-0.61090087890625,0.3918914794921875,0.600982666015625
1772697896029148400,3.1611484375,-0.613739013671875,0.38714599609375,0.608062744140625
1772697896039197400,3.171197509765625,-0.6193695068359375,0.389251708984375,0.618408203125
1772697896049246200,3.18124609375,-0.62579345703125,0.3979339599609375,0.6230316162109375
1772697896059295500,3.19129541015625,-0.6262664794921875,0.3972015380859375,0.6300048828125
1772697896069343200,3.20134326171875,-0.62786865234375,0.3940582275390625,0.6423492431640625
1772697896079392500,3.211392578125,-0.63250732421875,0.38970947265625,0.6533355712890625
1772697896089441300,3.221441162109375,-0.6419525146484375,0.3858795166015625,0.658416748046875
1772697896099490300,3.231490234375,-0.655029296875,0.380615234375,0.667877197265625
1772697896109538300,3.241538330078125,-0.6688079833984375,0.3793487548828125,0.673675537109375
1772697896119587300,3.25158740234375,-0.6818084716796875,0.3751220703125,0.6744537353515625
1772697896129636400,3.26163623046875,-0.6913909912109375,0.371612548828125,0.6704864501953125
1772697896139685400,3.271685302734375,-0.6989593505859375,0.3679046630859375,0.6622467041015625
1772697896149733400,3.2817333984375,-0.7060089111328125,0.3663330078125,0.6502838134765625
1772697896159782400,3.291782470703125,-0.709136962890625,0.36688232421875,0.635894775390625
1772697896169831200,3.3018310546875,-0.7149658203125,0.366729736328125,0.620452880859375
1772697896179880400,3.31188037109375,-0.7176513671875,0.3703765869140625,0.6120758056640625
1772697896189928200,3.32192822265625,-0.7137603759765625,0.3772735595703125,0.60791015625
1772697896199977500,3.3319775390625,-0.7123565673828125,0.3825836181640625,0.6012725830078125
1772697896210026200,3.342026123046875,-0.707122802734375,0.3844146728515625,0.5981903076171875
1772697896220075300,3.3520751953125,-0.7052764892578125,0.3818817138671875,0.5910491943359375
1772697896230123300,3.362123291015625,-0.700042724609375,0.3725738525390625,0.5873260498046875
1772697896240172300,3.37217236328125,-0.6955718994140625,0.367706298828125,0.5840911865234375
1772697896250221300,3.38222119140625,-0.6981658935546875,0.362060546875,0.5808563232421875
1772697896260270300,3.392270263671875,-0.696197509765625,0.357513427734375,0.5793609619140625
1772697896270318300,3.402318359375,-0.6951904296875,0.349273681640625,0.5784454345703125
1772697896280367400,3.412367431640625,-0.6979522705078125,0.341094970703125,0.5761260986328125
1772697896290416000,3.422416015625,-0.7040557861328125,0.3371734619140625,0.5705718994140625
1772697896300465400,3.43246533203125,-0.706817626953125,0.3373565673828125,0.5684814453125
1772697896310513200,3.44251318359375,-0.70367431640625,0.33697509765625,0.5687408447265625
1772697896320562400,3.4525625,-0.7032623291015625,0.33648681640625,0.56982421875
1772697896330611200,3.462611083984375,-0.7034454345703125,0.3414154052734375,0.5692138671875
1772697896340660200,3.47266015625,-0.701446533203125,0.34893798828125,0.57244873046875
1772697896350708200,3.482708251953125,-0.701751708984375,0.3525390625,0.5696868896484375
1772697896360757200,3.49275732421875,-0.7056732177734375,0.3597412109375,0.568511962890625
1772697896370806500,3.502806640625,-0.7078857421875,0.361297607421875,0.5693359375
1772697896380855300,3.512855224609375,-0.7198486328125,0.36920166015625,0.5685577392578125
1772697896390903300,3.5229033203125,-0.7259521484375,0.37811279296875,0.567962646484375
1772697896400952300,3.532952392578125,-0.7253875732421875,0.3815460205078125,0.5715179443359375
1772697896411001300,3.54300146484375,-0.7212677001953125,0.38934326171875,0.5679779052734375
1772697896421050400,3.55305029296875,-0.7230987548828125,0.393646240234375,0.5648193359375
1772697896431098400,3.563098388671875,-0.7261505126953125,0.3949432373046875,0.56085205078125
1772697896441147400,3.5731474609375,-0.731475830078125,0.4008636474609375,0.5556182861328125
1772697896451196400,3.583196533203125,-0.74053955078125,0.4000701904296875,0.5527801513671875
1772697896461245200,3.5932451171875,-0.7490692138671875,0.4003448486328125,0.552276611328125
1772697896471293400,3.60329345703125,-0.7515716552734375,0.3970184326171875,0.5728607177734375
1772697896481342200,3.61334228515625,-0.774322509765625,0.3932342529296875,0.5887298583984375
1772697896491391500,3.6233916015625,-0.7973480224609375,0.3958587646484375,0.6720733642578125
1772697896501440300,3.633440185546875,-0.8280792236328125,0.4408721923828125,0.7812652587890625
1772697896511488500,3.643488525390625,-0.829437255859375,0.495697021484375,0.8326416015625
1772697896521537300,3.653537353515625,-0.7685394287109375,0.506134033203125,0.8596954345703125
1772697896531586300,3.66358642578125,-0.6765289306640625,0.484649658203125,0.86529541015625
1772697896541635300,3.67363525390625,-0.6395721435546875,0.4673919677734375,0.8565673828125
1772697896551683300,3.683683349609375,-0.6700286865234375,0.467132568359375,0.8345947265625
1772697896561732400,3.693732421875,-0.69073486328125,0.4568634033203125,0.783203125
1772697896571781400,3.703781494140625,-0.6857452392578125,0.43914794921875,0.727691650390625
1772697896581830100,3.713830078125,-0.6502227783203125,0.4137420654296875,0.6879425048828125
1772697896591878400,3.72387841796875,-0.6060028076171875,0.3897247314453125,0.6488189697265625
1772697896601927200,3.73392724609375,-0.56494140625,0.3575592041015625,0.609039306640625
1772697896611976400,3.7439765625,-0.5404205322265625,0.3402557373046875,0.56304931640625
1772697896622025200,3.754025146484375,-0.544464111328125,0.33050537109375,0.5385284423828125
1772697896632073500,3.764073486328125,-0.5736541748046875,0.318817138671875,0.516448974609375
1772697896642122200,3.774122314453125,-0.6067047119140625,0.3199920654296875,0.4952850341796875
1772697896652171300,3.784171142578125,-0.636199951171875,0.323455810546875,0.480377197265625
1772697896662220300,3.79422021484375,-0.6541900634765625,0.326629638671875,0.4803924560546875
1772697896672268300,3.804268310546875,-0.6776885986328125,0.3284912109375,0.47802734375
1772697896682317300,3.8143173828125,-0.7036285400390625,0.338165283203125,0.4969635009765625
1772697896692366300,3.824366455078125,-0.72564697265625,0.3684539794921875,0.5233917236328125
1772697896702415000,3.8344150390625,-0.734832763671875,0.4023590087890625,0.5578460693359375
1772697896712463400,3.84446337890625,-0.7375946044921875,0.4261627197265625,0.5970611572265625
1772697896722512100,3.85451220703125,-0.7140045166015625,0.455718994140625,0.632354736328125
1772697896732561400,3.8645615234375,-0.6843414306640625,0.4693450927734375,0.6653594970703125
1772697896742610400,3.8746103515625,-0.66046142578125,0.46435546875,0.6855926513671875
1772697896752658400,3.884658447265625,-0.6504058837890625,0.46044921875,0.6896209716796875
1772697896762707200,3.894707275390625,-0.63726806640625,0.4547119140625,0.689605712890625
1772697896772756200,3.904756103515625,-0.6322021484375,0.442352294921875,0.681732177734375
1772697896782805500,3.914805419921875,-0.6333770751953125,0.42950439453125,0.6756744384765625
1772697896792853200,3.924853271484375,-0.623504638671875,0.420257568359375,0.6679534912109375
1772697896802902500,3.934902587890625,-0.6097869873046875,0.4134368896484375,0.659149169921875
1772697896812951300,3.944951416015625,-0.5972747802734375,0.41497802734375,0.6479034423828125
1772697896823000300,3.955000244140625,-0.5888214111328125,0.4215850830078125,0.649810791015625
1772697896833048300,3.96504833984375,-0.5827178955078125,0.429534912109375,0.6378936767578125
1772697896843097300,3.975097412109375,-0.5780792236328125,0.4472503662109375,0.6319580078125
1772697896853146400,3.985146484375,-0.5732421875,0.459869384765625,0.61968994140625
1772697896863195400,3.9951953125,-0.557769775390625,0.4650726318359375,0.6016693115234375
1772697896873243400,4.005243408203125,-0.54736328125,0.46160888671875,0.5823822021484375
1772697896883292400,4.01529248046875,-0.5431976318359375,0.45684814453125,0.56072998046875
1772697896893341200,4.025341064453125,-0.541412353515625,0.4598236083984375,0.5544586181640625
1772697896903390500,4.035390380859375,-0.547943115234375,0.466949462890625,0.5572967529296875
1772697896913438200,4.045438232421875,-0.5567626953125,0.4779052734375,0.5576019287109375
1772697896923487500,4.055487548828125,-0.553680419921875,0.4858551025390625,0.568359375
1772697896933536300,4.065536376953125,-0.55743408203125,0.504302978515625,0.5886688232421875
1772697896943585300,4.075585205078125,-0.560028076171875,0.53680419921875,0.6209869384765625
1772697896953633300,4.08563330078125,-0.5681304931640625,0.57373046875,0.6557159423828125
1772697896963682300,4.095682373046875,-0.591583251953125,0.5980224609375,0.685272216796875
1772697896973731300,4.1057314453125,-0.6161346435546875,0.629180908203125,0.724517822265625
1772697896983779300,4.115779296875,-0.6437225341796875,0.6561737060546875,0.7551727294921875
1772697896993828400,4.125828369140625,-0.666473388671875,0.657196044921875,0.7752532958984375
1772697897003877400,4.13587744140625,-0.686279296875,0.63916015625,0.7749786376953125
1772697897013926100,4.145926025390625,-0.6935272216796875,0.6100006103515625,0.7592620849609375
1772697897023975000,4.155974853515625,-0.6980743408203125,0.565032958984375,0.7370758056640625
1772697897034023200,4.166023193359375,-0.6953582763671875,0.5240478515625,0.7156219482421875
1772697897044072000,4.176072021484375,-0.6798095703125,0.4957122802734375,0.6938629150390625
1772697897054121000,4.186120849609375,-0.655029296875,0.483612060546875,0.673248291015625
1772697897064169000,4.1961689453125,-0.623138427734375,0.4727325439453125,0.6487579345703125
1772697897074218000,4.206218017578125,-0.6006011962890625,0.46380615234375,0.6268463134765625
1772697897084267000,4.21626708984375,-0.5810089111328125,0.4705047607421875,0.6058349609375
1772697897094316000,4.22631591796875,-0.557525634765625,0.4747467041015625,0.5906982421875
1772697897104364000,4.236364013671875,-0.531463623046875,0.4797821044921875,0.5769805908203125
1772697897114413000,4.2464130859375,-0.5068206787109375,0.4973602294921875,0.5704193115234375
1772697897124461800,4.2564619140625,-0.4874267578125,0.506439208984375,0.56170654296875
1772697897134511000,4.266510986328125,-0.4757843017578125,0.514617919921875,0.561614990234375
1772697897144558800,4.276558837890625,-0.479095458984375,0.5208892822265625,0.5588531494140625
1772697897154608000,4.286608154296875,-0.4911956787109375,0.5193023681640625,0.552398681640625
1772697897164657000,4.296656982421875,-0.5042572021484375,0.523895263671875,0.5507659912109375
1772697897174706000,4.306705810546875,-0.52520751953125,0.5196533203125,0.549285888671875
1772697897184754000,4.31675390625,-0.55279541015625,0.509735107421875,0.5504608154296875
1772697897194803000,4.326802978515625,-0.5789794921875,0.512908935546875,0.5414276123046875
1772697897204852000,4.33685205078125,-0.6041107177734375,0.511871337890625,0.5416259765625
1772697897214901000,4.34690087890625,-0.62542724609375,0.51171875,0.54730224609375
1772697897224949000,4.356948974609375,-0.654205322265625,0.5029296875,0.5521392822265625
1772697897234998000,4.366998046875,-0.67425537109375,0.49591064453125,0.5601806640625
1772697897245046800,4.377046875,-0.6833343505859375,0.490997314453125,0.55950927734375
1772697897255096000,4.387095947265625,-0.6852569580078125,0.4919891357421875,0.5605621337890625
1772697897265143800,4.397143798828125,-0.69366455078125,0.492034912109375,0.567626953125
1772697897275193000,4.407193115234375,-0.7046356201171875,0.487274169921875,0.5684814453125
1772697897285242000,4.4172421875,-0.7171630859375,0.4857025146484375,0.56915283203125
1772697897295291000,4.427290771484375,-0.7216796875,0.4830780029296875,0.5668792724609375
1772697897305339000,4.4373388671875,-0.7198333740234375,0.478668212890625,0.561767578125
1772697897315388000,4.447387939453125,-0.7119903564453125,0.4714813232421875,0.5615386962890625
1772697897325437200,4.457437255859375,-0.6959991455078125,0.462890625,0.5609588623046875
1772697897335486000,4.46748583984375,-0.6899566650390625,0.45660400390625,0.56207275390625
1772697897345534200,4.4775341796875,-0.68670654296875,0.4491424560546875,0.567962646484375
1772697897355583000,4.4875830078125,-0.6866607666015625,0.4526214599609375,0.5744476318359375
1772697897365632000,4.497632080078125,-0.685577392578125,0.4508514404296875,0.5784454345703125
1772697897375681000,4.507680908203125,-0.680633544921875,0.4461822509765625,0.581512451171875
1772697897385729000,4.51772900390625,-0.6788482666015625,0.4432525634765625,0.58709716796875
1772697897395778000,4.527778076171875,-0.672760009765625,0.442718505859375,0.597198486328125
1772697897405827000,4.5378271484375,-0.669342041015625,0.4431610107421875,0.60614013671875
1772697897415875800,4.547875732421875,-0.668365478515625,0.438232421875,0.6127777099609375
1772697897425924000,4.557924072265625,-0.6670989990234375,0.4435882568359375,0.620208740234375
1772697897435972900,4.567972900390625,-0.660858154296875,0.4466400146484375,0.62384033203125
1772697897446022100,4.578022216796875,-0.6539154052734375,0.4429931640625,0.6303558349609375
1772697897456071000,4.58807080078125,-0.6565704345703125,0.4394683837890625,0.6299896240234375
1772697897466119200,4.598119140625,-0.654632568359375,0.44158935546875,0.626678466796875
1772697897476168000,4.60816796875,-0.6522979736328125,0.436370849609375,0.6210784912109375
1772697897486217000,4.618217041015625,-0.6547393798828125,0.4327545166015625,0.6237945556640625
1772697897496266000,4.628265869140625,-0.6533050537109375,0.4298858642578125,0.614959716796875
1772697897506314000,4.63831396484375,-0.655670166015625,0.41986083984375,0.6114349365234375
1772697897516363000,4.648363037109375,-0.665130615234375,0.40594482421875,0.608734130859375
1772697897526412000,4.658412109375,-0.666259765625,0.4033966064453125,0.6038970947265625
1772697897536460800,4.668460693359375,-0.68035888671875,0.39373779296875,0.5988616943359375
1772697897546509000,4.678509033203125,-0.6833343505859375,0.3807220458984375,0.5953521728515625
1772697897556557800,4.688557861328125,-0.6996002197265625,0.362152099609375,0.58966064453125
1772697897566607000,4.698607177734375,-0.708709716796875,0.3558349609375,0.57843017578125
1772697897576656000,4.70865576171875,-0.737335205078125,0.348388671875,0.5773773193359375
1772697897586704100,4.7187041015625,-0.7664794921875,0.3444976806640625,0.5886077880859375
1772697897596753000,4.7287529296875,-0.7938690185546875,0.34674072265625,0.58514404296875
1772697897606802000,4.738802001953125,-0.7995452880859375,0.3611602783203125,0.5661163330078125
1772697897616851000,4.748850830078125,-0.7892913818359375,0.386199951171875,0.560211181640625
1772697897626899000,4.75889892578125,-0.7698516845703125,0.3978118896484375,0.564056396484375
1772697897636948000,4.768947998046875,-0.7480621337890625,0.4046478271484375,0.5670318603515625
1772697897646997000,4.7789970703125,-0.731781005859375,0.4082489013671875,0.566802978515625
1772697897657046000,4.7890458984375,-0.7268524169921875,0.417938232421875,0.5480194091796875
1772697897667094000,4.799093994140625,-0.723175048828125,0.4381256103515625,0.5269775390625
1772697897677142800,4.809142822265625,-0.7222900390625,0.4453125,0.5729522705078125
1772697897687192000,4.819192138671875,-0.732147216796875,0.5117645263671875,0.648223876953125
1772697897697241000,4.829240966796875,-0.76348876953125,0.5522308349609375,0.7651519775390625
1772697897707289000,4.8392890625,-0.8007354736328125,0.5320892333984375,0.804779052734375
1772697897717338000,4.849338134765625,-0.7488555908203125,0.52838134765625,0.77667236328125
1772697897727387000,4.859386962890625,-0.7041168212890625,0.54638671875,0.7810821533203125
1772697897737436200,4.869436279296875,-0.7041015625,0.5543212890625,0.8405303955078125
1772697897747484000,4.87948388671875,-0.72784423828125,0.5520477294921875,0.867218017578125
1772697897757533200,4.889533203125,-0.7371063232421875,0.533111572265625,0.8755950927734375
1772697897767582000,4.89958203125,-0.737518310546875,0.5004425048828125,0.8615875244140625
1772697897777631000,4.909630859375,-0.732177734375,0.491424560546875,0.8206787109375
1772697897787679000,4.919678955078125,-0.701751708984375,0.508575439453125,0.763427734375
1772697897797728000,4.92972802734375,-0.6380767822265625,0.5418243408203125,0.7336578369140625
1772697897807777000,4.939777099609375,-0.5679779052734375,0.57037353515625,0.7198028564453125
1772697897817826000,4.949825927734375,-0.5241546630859375,0.5770416259765625,0.68206787109375
1772697897827874000,4.9598740234375,-0.4907379150390625,0.54290771484375,0.6303253173828125
1772697897837923000,4.969923095703125,-0.445892333984375,0.500457763671875,0.59149169921875
1772697897847971800,4.979971923828125,-0.3970489501953125,0.462860107421875,0.554779052734375
1772697897858021000,4.990021240234375,-0.3658294677734375,0.4268341064453125,0.537567138671875
1772697897868068900,5.00006884765625,-0.3525238037109375,0.393341064453125,0.5347900390625
1772697897878118100,5.0101181640625,-0.3530731201171875,0.3636016845703125,0.547393798828125
1772697897888167000,5.0201669921875,-0.37530517578125,0.3251800537109375,0.56982421875
1772697897898216000,5.0302158203125,-0.428466796875,0.289886474609375,0.5872650146484375
1772697897908264000,5.040263916015625,-0.4863739013671875,0.2819366455078125,0.6042327880859375
1772697897918313000,5.05031298828125,-0.51849365234375,0.2899322509765625,0.639862060546875
1772697897928362000,5.060362060546875,-0.54803466796875,0.3043365478515625,0.658660888671875
1772697897938411000,5.070410888671875,-0.574005126953125,0.3197479248046875,0.67279052734375
1772697897948459000,5.080458984375,-0.5824737548828125,0.326202392578125,0.687530517578125
1772697897958508000,5.090508056640625,-0.59320068359375,0.33062744140625,0.70123291015625
1772697897968556800,5.100556884765625,-0.59039306640625,0.337860107421875,0.7171630859375
1772697897978606000,5.110606201171875,-0.5970458984375,0.34625244140625,0.727630615234375
1772697897988653800,5.12065380859375,-0.5986480712890625,0.343170166015625,0.72540283203125
1772697897998703000,5.130703125,-0.60491943359375,0.333404541015625,0.7220611572265625
1772697898008752400,5.14075244140625,-0.6199493408203125,0.334381103515625,0.725067138671875
1772697898018801400,5.150801513671875,-0.631591796875,0.3411102294921875,0.737548828125
1772697898028849400,5.160849365234375,-0.641510009765625,0.3448486328125,0.754364013671875
1772697898038898400,5.1708984375,-0.6426239013671875,0.34906005859375,0.768890380859375
1772697898048947500,5.180947509765625,-0.6333160400390625,0.3512420654296875,0.7871246337890625
1772697898058996500,5.19099658203125,-0.619537353515625,0.351654052734375,0.79583740234375
1772697898069044200,5.201044189453125,-0.604522705078125,0.3469085693359375,0.8013763427734375
1772697898079093500,5.211093505859375,-0.59393310546875,0.3394927978515625,0.8031158447265625
1772697898089142300,5.221142333984375,-0.59423828125,0.325225830078125,0.788818359375
1772697898099191600,5.231191650390625,-0.6007080078125,0.3112640380859375,0.7834625244140625
1772697898109239300,5.2412392578125,-0.6050567626953125,0.2938690185546875,0.7843475341796875
1772697898119288300,5.251288330078125,-0.620574951171875,0.2796630859375,0.76513671875
1772697898129337300,5.26133740234375,-0.6255035400390625,0.280120849609375,0.7666778564453125
1772697898139386400,5.271386474609375,-0.6273040771484375,0.2856903076171875,0.7613525390625
1772697898149434400,5.281434326171875,-0.6179962158203125,0.2860260009765625,0.7688140869140625
1772697898159483400,5.2914833984375,-0.6036376953125,0.2995452880859375,0.77630615234375
1772697898169532400,5.301532470703125,-0.5868072509765625,0.3110198974609375,0.779449462890625
1772697898179581400,5.31158154296875,-0.5768585205078125,0.3179473876953125,0.7722320556640625
1772697898189629400,5.32162939453125,-0.55938720703125,0.3229522705078125,0.7534942626953125
1772697898199678500,5.331678466796875,-0.544281005859375,0.325286865234375,0.734954833984375
1772697898209727200,5.341727294921875,-0.5391998291015625,0.325408935546875,0.71881103515625
1772697898219775500,5.351775390625,-0.5280914306640625,0.3248443603515625,0.7060546875
1772697898229824300,5.36182421875,-0.52606201171875,0.320159912109375,0.69140625
1772697898239873500,5.37187353515625,-0.5286865234375,0.314697265625,0.6884307861328125
1772697898249922300,5.38192236328125,-0.534393310546875,0.30914306640625,0.6907501220703125
1772697898259970300,5.39197021484375,-0.550872802734375,0.3086395263671875,0.6984710693359375
1772697898270019300,5.402019287109375,-0.574432373046875,0.3047637939453125,0.7075042724609375
1772697898280068400,5.412068359375,-0.5994415283203125,0.2980194091796875,0.7060699462890625
1772697898290117400,5.422117431640625,-0.6275177001953125,0.297210693359375,0.70745849609375
1772697898300165400,5.432165283203125,-0.6434783935546875,0.29547119140625,0.709686279296875
1772697898310214400,5.44221435546875,-0.6550445556640625,0.28369140625,0.7141265869140625
1772697898320263400,5.452263427734375,-0.666595458984375,0.2725372314453125,0.7203216552734375
1772697898330312400,5.4623125,-0.6691741943359375,0.2588958740234375,0.72308349609375
1772697898340360400,5.4723603515625,-0.6709747314453125,0.2451019287109375,0.7312774658203125
1772697898350409200,5.4824091796875,-0.6804962158203125,0.2377471923828125,0.73223876953125
1772697898360458500,5.49245849609375,-0.6911468505859375,0.2279510498046875,0.7259674072265625
1772697898370507500,5.502507568359375,-0.7016448974609375,0.2194671630859375,0.71875
1772697898380555300,5.51255517578125,-0.7084197998046875,0.2189483642578125,0.7016143798828125
1772697898390604500,5.5226044921875,-0.7122039794921875,0.2116851806640625,0.69549560546875
1772697898400653300,5.5326533203125,-0.7167816162109375,0.2161712646484375,0.693267822265625
1772697898410702600,5.54270263671875,-0.7206573486328125,0.219757080078125,0.6917877197265625
1772697898420750300,5.552750244140625,-0.7146759033203125,0.2339935302734375,0.6919403076171875
1772697898430799400,5.56279931640625,-0.70404052734375,0.246612548828125,0.6871337890625
1772697898440848400,5.572848388671875,-0.6922607421875,0.254974365234375,0.6832122802734375
1772697898450897400,5.5828974609375,-0.680572509765625,0.26251220703125,0.6808319091796875
1772697898460945400,5.5929453125,-0.6745452880859375,0.276153564453125,0.676544189453125
1772697898470994400,5.602994384765625,-0.6723480224609375,0.2868499755859375,0.675201416015625
1772697898481043500,5.61304345703125,-0.6736602783203125,0.2905426025390625,0.676788330078125
1772697898491092500,5.623092529296875,-0.6819305419921875,0.29608154296875,0.6831817626953125
1772697898501140500,5.633140380859375,-0.69610595703125,0.307373046875,0.6842498779296875
1772697898511189500,5.643189453125,-0.7084808349609375,0.3138427734375,0.684661865234375
1772697898521238300,5.65323828125,-0.7215576171875,0.31829833984375,0.6827392578125
1772697898531287600,5.66328759765625,-0.7317047119140625,0.326202392578125,0.682647705078125
1772697898541335300,5.673335205078125,-0.740264892578125,0.3335418701171875,0.680389404296875
1772697898551384600,5.683384521484375,-0.7479248046875,0.3311614990234375,0.681732177734375
1772697898561433300,5.693433349609375,-0.7475433349609375,0.32977294921875,0.673553466796875
1772697898571482400,5.703482421875,-0.741302490234375,0.3323822021484375,0.66802978515625
1772697898581530400,5.7135302734375,-0.725067138671875,0.332672119140625,0.6597442626953125
1772697898591579400,5.723579345703125,-0.7046051025390625,0.3220367431640625,0.6534423828125
1772697898601628400,5.73362841796875,-0.679656982421875,0.3141021728515625,0.647918701171875
1772697898611677400,5.743677490234375,-0.662109375,0.31036376953125,0.64129638671875
1772697898621725400,5.753725341796875,-0.6503448486328125,0.30645751953125,0.642181396484375
1772697898631774500,5.7637744140625,-0.64520263671875,0.300689697265625,0.63970947265625
1772697898641823200,5.7738232421875,-0.64453125,0.2911834716796875,0.6419830322265625
1772697898651872500,5.78387255859375,-0.6496429443359375,0.287017822265625,0.6406097412109375
1772697898661920300,5.793920166015625,-0.652587890625,0.2762908935546875,0.6383056640625
1772697898671969500,5.803969482421875,-0.655914306640625,0.261993408203125,0.6370849609375
1772697898682018300,5.814018310546875,-0.6617584228515625,0.251556396484375,0.6370697021484375
1772697898692067300,5.8240673828125,-0.6717376708984375,0.248382568359375,0.637176513671875
1772697898702115300,5.834115234375,-0.671417236328125,0.2515869140625,0.6339569091796875
1772697898712164400,5.844164306640625,-0.676025390625,0.25457763671875,0.6256256103515625
1772697898722213400,5.85421337890625,-0.6816864013671875,0.2536468505859375,0.6278228759765625
1772697898732262400,5.864262451171875,-0.679351806640625,0.2559356689453125,0.6264495849609375
1772697898742310400,5.874310302734375,-0.686920166015625,0.2550506591796875,0.6205596923828125
1772697898752359400,5.884359375,-0.6925048828125,0.258941650390625,0.62554931640625
1772697898762408400,5.894408447265625,-0.691009521484375,0.2681121826171875,0.636566162109375
1772697898772457500,5.90445751953125,-0.6878814697265625,0.2736968994140625,0.63909912109375
1772697898782505200,5.914505126953125,-0.686798095703125,0.282012939453125,0.639801025390625
1772697898792554500,5.924554443359375,-0.69073486328125,0.29010009765625,0.645904541015625
1772697898802603500,5.934603515625,-0.6919097900390625,0.2944488525390625,0.6531524658203125
1772697898812652300,5.94465234375,-0.694000244140625,0.2996826171875,0.6563873291015625
1772697898822700500,5.954700439453125,-0.699371337890625,0.306121826171875,0.6547393798828125
1772697898832749300,5.964749267578125,-0.70196533203125,0.305694580078125,0.651458740234375
1772697898842798600,5.974798583984375,-0.705902099609375,0.3050537109375,0.6501617431640625
1772697898852847400,5.984847412109375,-0.7155303955078125,0.3028411865234375,0.6438140869140625
1772697898862895600,5.9948955078125,-0.72869873046875,0.3015289306640625,0.6393585205078125
1772697898872944400,6.0049443359375,-0.74169921875,0.303924560546875,0.6435089111328125
1772697898882993400,6.014993408203125,-0.7516937255859375,0.30938720703125,0.649871826171875
1772697898893042400,6.02504248046875,-0.76568603515625,0.31671142578125,0.66339111328125
1772697898903090400,6.03509033203125,-0.7761993408203125,0.318267822265625,0.6700897216796875
1772697898913139500,6.045139404296875,-0.7807464599609375,0.31561279296875,0.6827545166015625
1772697898923188500,6.0551884765625,-0.773468017578125,0.3173828125,0.6948394775390625
1772697898933237200,6.0652373046875,-0.737884521484375,0.3116912841796875,0.7563934326171875
1772697898943285500,6.075285400390625,-0.7195587158203125,0.3199615478515625,0.8694305419921875
1772697898953334300,6.085334228515625,-0.7513275146484375,0.3579254150390625,0.942718505859375
1772697898963383600,6.095383544921875,-0.7383575439453125,0.4060516357421875,0.9486236572265625
1772697898973432300,6.105432373046875,-0.6260528564453125,0.411163330078125,0.9171295166015625
1772697898983480600,6.11548046875,-0.5486602783203125,0.385467529296875,0.8657684326171875
1772697898993529300,6.125529296875,-0.56011962890625,0.3670501708984375,0.8209381103515625
1772697899003578400,6.135578369140625,-0.5982208251953125,0.3494873046875,0.7720794677734375
1772697899013627600,6.145627685546875,-0.6273651123046875,0.3449249267578125,0.731231689453125
1772697899023675600,6.155675537109375,-0.6203765869140625,0.3328399658203125,0.699951171875
1772697899033724700,6.165724609375,-0.6123504638671875,0.305999755859375,0.66815185546875
1772697899043773700,6.175773681640625,-0.5838165283203125,0.2693023681640625,0.6233367919921875
1772697899053822700,6.18582275390625,-0.5405426025390625,0.246917724609375,0.600555419921875
1772697899063870700,6.19587060546875,-0.5075531005859375,0.251190185546875,0.5782623291015625
1772697899073919700,6.205919677734375,-0.4867401123046875,0.26739501953125,0.5711669921875
1772697899083968500,6.215968505859375,-0.4907073974609375,0.2918701171875,0.5870819091796875
1772697899094017800,6.226017822265625,-0.5196380615234375,0.3177947998046875,0.6070098876953125
1772697899104065500,6.2360654296875,-0.548309326171875,0.3372039794921875,0.6228485107421875
1772697899114114800,6.24611474609375,-0.58642578125,0.353240966796875,0.6356964111328125
1772697899124163600,6.25616357421875,-0.640411376953125,0.3750152587890625,0.6481475830078125
1772697899134212600,6.266212646484375,-0.69427490234375,0.4042510986328125,0.6531219482421875
1772697899144260600,6.276260498046875,-0.7450103759765625,0.409027099609375,0.6707763671875
1772697899154309600,6.2863095703125,-0.7824859619140625,0.390716552734375,0.696319580078125
1772697899164358700,6.296358642578125,-0.778533935546875,0.3819427490234375,0.7068939208984375
1772697899174407700,6.30640771484375,-0.7542724609375,0.373077392578125,0.7084808349609375
1772697899184455700,6.31645556640625,-0.726226806640625,0.3578033447265625,0.71258544921875
1772697899194504700,6.326504638671875,-0.6961212158203125,0.3483734130859375,0.7169647216796875
1772697899204553700,6.3365537109375,-0.6778717041015625,0.3529815673828125,0.71722412109375
1772697899214602800,6.346602783203125,-0.667633056640625,0.35992431640625,0.715423583984375
1772697899224650500,6.356650390625,-0.66009521484375,0.35400390625,0.6981964111328125
1772697899234699800,6.36669970703125,-0.6373138427734375,0.3545684814453125,0.6837615966796875
1772697899244748800,6.376748779296875,-0.604888916015625,0.3549652099609375,0.6649627685546875
1772697899254797800,6.3867978515625,-0.5836639404296875,0.3450164794921875,0.64990234375
1772697899264845600,6.396845458984375,-0.5531768798828125,0.33966064453125,0.614898681640625
1772697899274894600,6.40689453125,-0.5417022705078125,0.346099853515625,0.6126708984375
1772697899284944000,6.41694384765625,-0.54119873046875,0.3473052978515625,0.62335205078125
1772697899294992600,6.42699267578125,-0.5278167724609375,0.35748291015625,0.6196441650390625
1772697899305041000,6.437041015625,-0.545440673828125,0.3935546875,0.6064300537109375
1772697899315089700,6.447089599609375,-0.5607757568359375,0.42401123046875,0.6010589599609375
1772697899325138700,6.457138671875,-0.5778045654296875,0.43829345703125,0.601806640625
1772697899335187700,6.467187744140625,-0.586578369140625,0.437896728515625,0.6507568359375
1772697899345235700,6.477235595703125,-0.594573974609375,0.4644622802734375,0.65972900390625
1772697899355284700,6.48728466796875,-0.6028594970703125,0.483489990234375,0.684600830078125
1772697899365333800,6.497333740234375,-0.6215972900390625,0.502532958984375,0.6964874267578125
1772697899375382800,6.5073828125,-0.637176513671875,0.516815185546875,0.7107391357421875
1772697899385431800,6.517431884765625,-0.657806396484375,0.5240631103515625,0.72052001953125
1772697899395479600,6.5274794921875,-0.6745452880859375,0.5373687744140625,0.7121124267578125
1772697899405528800,6.53752880859375,-0.688323974609375,0.5413970947265625,0.7005462646484375
1772697899415577600,6.54757763671875,-0.7032318115234375,0.5353240966796875,0.6889190673828125
1772697899425627000,6.557626953125,-0.7055511474609375,0.516937255859375,0.6819610595703125
1772697899435674600,6.567674560546875,-0.704498291015625,0.4978790283203125,0.6637115478515625
1772697899445723600,6.5777236328125,-0.7027435302734375,0.4828948974609375,0.642181396484375
1772697899455772700,6.587772705078125,-0.70196533203125,0.4653472900390625,0.615875244140625
1772697899465821700,6.59782177734375,-0.6959075927734375,0.4483489990234375,0.596923828125
1772697899475869700,6.60786962890625,-0.681121826171875,0.451446533203125,0.58380126953125
1772697899485918700,6.617918701171875,-0.6708984375,0.460601806640625,0.5759735107421875
1772697899495967700,6.6279677734375,-0.64495849609375,0.4565277099609375,0.5627593994140625
1772697899506016800,6.638016845703125,-0.6228485107421875,0.447265625,0.5566253662109375
1772697899516064800,6.648064697265625,-0.6064453125,0.43939208984375,0.5449371337890625
1772697899526113800,6.65811376953125,-0.5933074951171875,0.4416351318359375,0.5417022705078125
1772697899536162600,6.66816259765625,-0.59136962890625,0.444488525390625,0.551422119140625
1772697899546211800,6.6782119140625,-0.6004638671875,0.4498748779296875,0.5595550537109375
1772697899556259600,6.688259521484375,-0.6109466552734375,0.4533233642578125,0.5607452392578125
1772697899566308900,6.698308837890625,-0.6218109130859375,0.463409423828125,0.5501251220703125
1772697899576357600,6.708357666015625,-0.6307373046875,0.462371826171875,0.5427703857421875
1772697899586406700,6.71840673828125,-0.6358489990234375,0.4586639404296875,0.539031982421875
1772697899596454700,6.72845458984375,-0.6470794677734375,0.4597015380859375,0.539520263671875
1772697899606503700,6.738503662109375,-0.656280517578125,0.4589691162109375,0.5489654541015625
1772697899616552700,6.748552734375,-0.66558837890625,0.4598541259765625,0.55767822265625
1772697899626601700,6.758601806640625,-0.6663970947265625,0.461273193359375,0.5646820068359375
1772697899636649700,6.768649658203125,-0.673431396484375,0.4603118896484375,0.5691680908203125
1772697899646698800,6.77869873046875,-0.674560546875,0.45745849609375,0.57537841796875
1772697899656747800,6.788747802734375,-0.6778411865234375,0.4505767822265625,0.5714874267578125
1772697899666796800,6.798796875,-0.67987060546875,0.441986083984375,0.566986083984375
1772697899676844800,6.8088447265625,-0.6791229248046875,0.434814453125,0.5649261474609375
1772697899686893800,6.818893798828125,-0.680877685546875,0.429290771484375,0.5586395263671875
1772697899696942800,6.82894287109375,-0.6872100830078125,0.42254638671875,0.5558929443359375
1772697899706991600,6.83899169921875,-0.6910400390625,0.42041015625,0.55157470703125
1772697899717039900,6.849039794921875,-0.6940765380859375,0.42034912109375,0.5548248291015625
1772697899727088600,6.859088623046875,-0.6966094970703125,0.4188232421875,0.56280517578125
1772697899737138000,6.869137939453125,-0.6989898681640625,0.4223785400390625,0.5719146728515625
1772697899747186700,6.879186767578125,-0.69781494140625,0.4266204833984375,0.577117919921875
1772697899757234700,6.889234619140625,-0.695770263671875,0.43402099609375,0.586212158203125
1772697899767283700,6.89928369140625,-0.698333740234375,0.432281494140625,0.5945587158203125
1772697899777332700,6.909332763671875,-0.705108642578125,0.4341888427734375,0.5944366455078125
1772697899787381800,6.9193818359375,-0.7064971923828125,0.44085693359375,0.5966644287109375
1772697899797429800,6.9294296875,-0.7035675048828125,0.445037841796875,0.6018218994140625
1772697899807478800,6.939478759765625,-0.6967620849609375,0.443145751953125,0.6089324951171875
1772697899817527800,6.94952783203125,-0.6887054443359375,0.441680908203125,0.6095428466796875
1772697899827576600,6.95957666015625,-0.6856842041015625,0.440673828125,0.6053619384765625
1772697899837624800,6.969624755859375,-0.6883392333984375,0.440277099609375,0.5975494384765625
1772697899847673600,6.979673583984375,-0.68927001953125,0.442413330078125,0.5962982177734375
1772697899857723000,6.989722900390625,-0.69012451171875,0.4352264404296875,0.5999603271484375
1772697899867771600,6.999771728515625,-0.6963348388671875,0.4420928955078125,0.5953826904296875
1772697899877820000,7.00981982421875,-0.70111083984375,0.4365234375,0.594207763671875
1772697899887868700,7.01986865234375,-0.7087249755859375,0.4359130859375,0.587249755859375
1772697899897917700,7.029917724609375,-0.7148590087890625,0.4356689453125,0.57666015625
1772697899907966700,7.039966796875,-0.720123291015625,0.4329376220703125,0.5652313232421875
1772697899918014700,7.0500146484375,-0.7282867431640625,0.4267120361328125,0.5499114990234375
1772697899928063700,7.060063720703125,-0.73394775390625,0.4144134521484375,0.532073974609375
1772697899938112800,7.07011279296875,-0.7399444580078125,0.404144287109375,0.5145721435546875
1772697899948161500,7.08016162109375,-0.7493896484375,0.394683837890625,0.4946746826171875
1772697899958209800,7.090209716796875,-0.7639007568359375,0.395965576171875,0.47393798828125
1772697899968258600,7.100258544921875,-0.773773193359375,0.394989013671875,0.4843902587890625
1772697899978307800,7.110307861328125,-0.756500244140625,0.4261627197265625,0.5499725341796875
1772697899988356900,7.12035693359375,-0.7496185302734375,0.51947021484375,0.7204437255859375
1772697899998404900,7.13040478515625,-0.7664642333984375,0.6045989990234375,0.8078765869140625
1772697900008453600,7.14045361328125,-0.7388916015625,0.64666748046875,0.8155059814453125
1772697900018502700,7.150502685546875,-0.674530029296875,0.6705474853515625,0.846771240234375
1772697900028552000,7.160552001953125,-0.6492462158203125,0.6764984130859375,0.8690185546875
1772697900038599700,7.170599609375,-0.615631103515625,0.6787261962890625,0.8543853759765625
1772697900048649000,7.18064892578125,-0.585540771484375,0.66107177734375,0.8293609619140625
1772697900058697700,7.19069775390625,-0.591156005859375,0.6280517578125,0.81707763671875
1772697900068746800,7.200746826171875,-0.5883331298828125,0.5703125,0.7869110107421875
1772697900078794800,7.210794677734375,-0.592041015625,0.47015380859375,0.73614501953125
1772697900088843800,7.22084375,-0.5931243896484375,0.3742828369140625,0.6870880126953125
1772697900098892800,7.230892822265625,-0.5528564453125,0.33258056640625,0.6798858642578125
1772697900108941800,7.24094189453125,-0.511444091796875,0.3346405029296875,0.6702423095703125
1772697900118989800,7.25098974609375,-0.482025146484375,0.3418426513671875,0.6386260986328125
1772697900129038800,7.261038818359375,-0.4805450439453125,0.373992919921875,0.6756439208984375
1772697900139087600,7.271087646484375,-0.5253143310546875,0.37860107421875,0.7519073486328125
1772697900149137000,7.281136962890625,-0.5485992431640625,0.370147705078125,0.8094635009765625
1772697900159184600,7.2911845703125,-0.5770721435546875,0.3875732421875,0.838409423828125
1772697900169234000,7.30123388671875,-0.5917510986328125,0.4113006591796875,0.861083984375
1772697900179282700,7.31128271484375,-0.5896453857421875,0.408935546875,0.8603973388671875
1772697900189331700,7.321331787109375,-0.566375732421875,0.3852996826171875,0.8449249267578125
1772697900199379700,7.331379638671875,-0.5373687744140625,0.3505096435546875,0.8112335205078125
1772697900209428700,7.3414287109375,-0.512451171875,0.3115692138671875,0.7832489013671875
1772697900219477800,7.351477783203125,-0.5098724365234375,0.293487548828125,0.7503662109375
1772697900229526800,7.36152685546875,-0.5055389404296875,0.278228759765625,0.7353057861328125
1772697900239574800,7.37157470703125,-0.510528564453125,0.2752532958984375,0.72100830078125
1772697900249623800,7.381623779296875,-0.50872802734375,0.2762603759765625,0.7110748291015625
1772697900259672600,7.391672607421875,-0.509521484375,0.2871856689453125,0.7057952880859375
1772697900269721900,7.401721923828125,-0.5099334716796875,0.300445556640625,0.709747314453125
1772697900279769600,7.41176953125,-0.505126953125,0.3140411376953125,0.7186737060546875
1772697900289819000,7.42181884765625,-0.5067596435546875,0.323699951171875,0.7330169677734375
1772697900299867600,7.43186767578125,-0.514862060546875,0.3301544189453125,0.737457275390625
1772697900309916700,7.441916748046875,-0.52032470703125,0.336273193359375,0.7415313720703125
1772697900319965700,7.451965576171875,-0.53070068359375,0.3401031494140625,0.7352142333984375
1772697900330013700,7.462013671875,-0.547271728515625,0.3459320068359375,0.7210540771484375
1772697900340062700,7.472062744140625,-0.5600128173828125,0.342742919921875,0.7140045166015625
1772697900350111700,7.48211181640625,-0.5672607421875,0.339599609375,0.7080230712890625
1772697900360159700,7.49215966796875,-0.5723876953125,0.335418701171875,0.705841064453125
1772697900370208800,7.502208740234375,-0.5811309814453125,0.3298187255859375,0.710296630859375
1772697900380257500,7.512257568359375,-0.5855865478515625,0.322845458984375,0.7060394287109375
1772697900390306800,7.522306884765625,-0.5943603515625,0.309295654296875,0.6979217529296875
1772697900400355800,7.53235595703125,-0.5832977294921875,0.3114013671875,0.6927642822265625
1772697900410403800,7.54240380859375,-0.4982452392578125,0.29937744140625,0.7251129150390625
1772697900420452900,7.552452880859375,-0.616912841796875,0.3562774658203125,0.72454833984375
1772697900430501600,7.562501708984375,-0.6610565185546875,0.3361053466796875,0.684844970703125
1772697900440551000,7.572551025390625,-0.661163330078125,0.3207550048828125,0.6841888427734375
1772697900450598700,7.5825986328125,-0.664581298828125,0.316375732421875,0.714874267578125
1772697900460648000,7.59264794921875,-0.6577606201171875,0.308746337890625,0.7252349853515625
1772697900470696700,7.60269677734375,-0.6529998779296875,0.3099517822265625,0.72430419921875
1772697900480745700,7.612745849609375,-0.6544647216796875,0.312774658203125,0.7098236083984375
1772697900490793700,7.622793701171875,-0.664703369140625,0.322174072265625,0.7011566162109375
1772697900500842800,7.6328427734375,-0.6563568115234375,0.3119049072265625,0.6996307373046875
1772697900510891800,7.642891845703125,-0.6244659423828125,0.2906646728515625,0.707244873046875
1772697900520940800,7.65294091796875,-0.603485107421875,0.281768798828125,0.7205657958984375
