time,seconds_elapsed,z,y,x
1772697892924086500,0.05608642578125,0.037084516137838364,0.0020040287636220455,0.062008511275053024
1772697892934135600,0.066135498046875,0.015474563464522362,0.05107437074184418,0.08134093135595322
1772697892944183600,0.07618359375,-0.002153964713215828,0.11262534558773041,0.10180359333753586
1772697892954232600,0.086232666015625,-0.022672023624181747,0.16399052739143372,0.1340600699186325
1772697892964281600,0.096281494140625,-0.04141002520918846,0.1754266768693924,0.17364609241485596
1772697892974330400,0.106330322265625,-0.06030142307281494,0.17039890587329865,0.20208625495433807
1772697892984378600,0.116378662109375,-0.06527114659547806,0.16366270184516907,0.2196442037820816
1772697892994427400,0.126427490234375,-0.06072326749563217,0.16332606971263885,0.20766983926296234
1772697893004476700,0.1364765625,-0.06345194578170776,0.1568945348262787,0.18549209833145142
1772697893014525700,0.146525634765625,-0.07281056046485901,0.15923945605754852,0.17242662608623505
1772697893024573400,0.156573486328125,-0.08396600931882858,0.16091138124465942,0.1615002155303955
1772697893034622700,0.166622802734375,-0.0859958678483963,0.15094956755638123,0.17153047025203705
1772697893044671500,0.17667138671875,-0.09122178703546524,0.14857561886310577,0.16812509298324585
1772697893054720800,0.186720703125,-0.09044494479894638,0.13711018860340118,0.14996525645256042
1772697893064768500,0.1967685546875,-0.08911789208650589,0.12688018381595612,0.12131310999393463
1772697893074817500,0.206817626953125,-0.0889570340514183,0.13294926285743713,0.09229477494955063
1772697893084866600,0.216866455078125,-0.08508213609457016,0.14557982981204987,0.07225582003593445
1772697893094915600,0.22691552734375,-0.0899040549993515,0.15676511824131012,0.04900349676609039
1772697893104963600,0.236963623046875,-0.09547219425439835,0.16853389143943787,0.04391232877969742
1772697893115012600,0.2470126953125,-0.11666722595691681,0.18205715715885162,0.04809002950787544
1772697893125061600,0.2570615234375,-0.143026664853096,0.19408905506134033,0.07315730303525925
1772697893135109600,0.267109619140625,-0.1625998318195343,0.1972462236881256,0.11469915509223938
1772697893145158700,0.27715869140625,-0.17802032828330994,0.2019118219614029,0.14200986921787262
1772697893155207700,0.287207763671875,-0.17152754962444305,0.1907861977815628,0.14434786140918732
1772697893165256400,0.29725634765625,-0.15859070420265198,0.1849120557308197,0.11788669228553772
1772697893175304700,0.3073046875,-0.1364436000585556,0.1853296458721161,0.0836658701300621
1772697893185353500,0.317353515625,-0.11153531819581985,0.2009805142879486,0.059954412281513214
1772697893195402500,0.327402587890625,-0.0926191508769989,0.1965961456298828,0.05180753767490387
1772697893205451500,0.337451416015625,-0.08180325478315353,0.17648901045322418,0.06430042535066605
1772697893215499500,0.34749951171875,-0.08552528917789459,0.16453301906585693,0.07472749799489975
1772697893225548500,0.357548583984375,-0.09544689208269119,0.17036214470863342,0.09494275599718094
1772697893235597600,0.36759765625,-0.10468912869691849,0.174297496676445,0.1085808053612709
1772697893245646600,0.377646484375,-0.1016981303691864,0.1555589735507965,0.12160339951515198
1772697893255694600,0.387694580078125,-0.09016584604978561,0.11880548298358917,0.12822481989860535
1772697893265743600,0.39774365234375,-0.0892300084233284,0.0760289877653122,0.12794890999794006
1772697893275792600,0.407792724609375,-0.0907466784119606,0.03825657442212105,0.1361016482114792
1772697893285841700,0.417841552734375,-0.08667497336864471,0.02497459203004837,0.15092507004737854
1772697893295889700,0.4278896484375,-0.08014490455389023,0.015717443078756332,0.15942586958408356
1772697893305938400,0.4379384765625,-0.0803542286157608,-0.0012311793398112059,0.16465286910533905
1772697893315987700,0.44798779296875,-0.08538706600666046,-0.017176324501633644,0.16959328949451447
1772697893326036700,0.45803662109375,-0.09097198396921158,-0.021082915365695953,0.17651085555553436
1772697893336084500,0.46808447265625,-0.09233392775058746,-0.025500565767288208,0.1779276579618454
1772697893346133800,0.4781337890625,-0.08234813809394836,-0.024237962439656258,0.18147632479667664
1772697893356182500,0.4881826171875,-0.07577598839998245,-0.014578676782548428,0.1792200803756714
1772697893366231600,0.4982314453125,-0.07017695903778076,-0.001871136948466301,0.17887280881404877
1772697893376279600,0.508279541015625,-0.07696188986301422,-0.003715642262250185,0.17430709302425385
1772697893386328600,0.51832861328125,-0.08440622687339783,-0.00017124126316048205,0.16116492450237274
1772697893396377600,0.528377685546875,-0.10107814520597458,0.000773381965700537,0.16200754046440125
1772697893406426600,0.538426513671875,-0.11383255571126938,-0.002261556452140212,0.1695653349161148
1772697893416474600,0.548474609375,-0.12863387167453766,-0.011051585897803307,0.17894737422466278
1772697893426523600,0.558523681640625,-0.12834864854812622,-0.007723433431237936,0.18619117140769958
1772697893436572700,0.56857275390625,-0.12555979192256927,-0.0016863135388121009,0.19275879859924316
1772697893446621700,0.57862158203125,-0.12268064171075821,0.011414308100938797,0.2004167139530182
1772697893456669700,0.588669677734375,-0.11916100978851318,0.010482202284038067,0.20653720200061798
1772697893466718700,0.59871875,-0.1343972235918045,0.0023153522051870823,0.21517036855220795
1772697893476767500,0.608767578125,-0.1313074231147766,-0.013827398419380188,0.2223483771085739
1772697893486816800,0.618816650390625,-0.145849347114563,-0.037270672619342804,0.21543800830841064
1772697893496864500,0.628864501953125,-0.16935308277606964,-0.04791959002614021,0.20850980281829834
1772697893506913500,0.63891357421875,-0.19584380090236664,-0.053830742835998535,0.20231342315673828
1772697893516962600,0.648962646484375,-0.22460514307022095,-0.060141101479530334,0.19208262860774994
1772697893527011600,0.659011474609375,-0.24168425798416138,-0.05976692587137222,0.18437249958515167
1772697893537059600,0.6690595703125,-0.24673521518707275,-0.0516916885972023,0.16491438448429108
1772697893547108600,0.679108642578125,-0.2514234483242035,-0.04165077209472656,0.1405685693025589
1772697893557157600,0.68915771484375,-0.25267645716667175,-0.03434678912162781,0.10660820454359055
1772697893567206700,0.69920654296875,-0.2504862844944,-0.01864585652947426,0.05885612592101097
1772697893577254700,0.709254638671875,-0.24726252257823944,0.015327024273574352,-0.0014839133946225047
1772697893587303700,0.7193037109375,-0.24588246643543243,0.049665555357933044,-0.06418963521718979
1772697893597352400,0.7293525390625,-0.24137666821479797,0.085840605199337,-0.11813649535179138
1772697893607401700,0.739401611328125,-0.24382224678993225,0.1122644916176796,-0.15866181254386902
1772697893617449500,0.749449462890625,-0.24187414348125458,0.12932071089744568,-0.18719492852687836
1772697893627498800,0.759498779296875,-0.23727940022945404,0.1560993194580078,-0.21512535214424133
1772697893637547500,0.769547607421875,-0.23546604812145233,0.17383144795894623,-0.22975197434425354
1772697893647596500,0.779596435546875,-0.22923772037029266,0.1814078688621521,-0.22484536468982697
1772697893657644500,0.78964453125,-0.22130335867404938,0.18050453066825867,-0.20628738403320312
1772697893667693600,0.799693603515625,-0.21686679124832153,0.19762812554836273,-0.18247979879379272
1772697893677742600,0.80974267578125,-0.20881898701190948,0.19784756004810333,-0.1670241355895996
1772697893687791600,0.81979150390625,-0.20658060908317566,0.2070746272802353,-0.15373177826404572
1772697893697839600,0.829839599609375,-0.21555306017398834,0.21183635294437408,-0.139685720205307
1772697893707888600,0.839888671875,-0.22850054502487183,0.2098373919725418,-0.13538391888141632
1772697893717937700,0.849937744140625,-0.2426789551973343,0.20550788938999176,-0.14979907870292664
1772697893727985700,0.859985595703125,-0.24210451543331146,0.1928645223379135,-0.17054244875907898
1772697893738034400,0.870034423828125,-0.24298815429210663,0.19085463881492615,-0.19157901406288147
1772697893748083700,0.880083740234375,-0.2526160180568695,0.17940543591976166,-0.2046612650156021
1772697893758132700,0.8901328125,-0.2519526183605194,0.1783612221479416,-0.20765864849090576
1772697893768181500,0.900181396484375,-0.25126445293426514,0.18341989815235138,-0.2008606642484665
1772697893778229500,0.9102294921875,-0.2532818019390106,0.19609121978282928,-0.19234627485275269
1772697893788278500,0.920278564453125,-0.2636715769767761,0.20488522946834564,-0.1886008083820343
1772697893798327800,0.930327880859375,-0.27233830094337463,0.20945362746715546,-0.18689104914665222
1772697893808376600,0.94037646484375,-0.27794188261032104,0.2202809751033783,-0.18964582681655884
1772697893818424600,0.950424560546875,-0.2834596633911133,0.21885643899440765,-0.18540793657302856
1772697893828473600,0.9604736328125,-0.2886680066585541,0.21438179910182953,-0.16914987564086914
1772697893838522600,0.970522705078125,-0.29438555240631104,0.21277911961078644,-0.13258734345436096
1772697893848570600,0.980570556640625,-0.3240630328655243,0.20736438035964966,-0.07463295757770538
1772697893858619600,0.99061962890625,-0.3593754768371582,0.16838741302490234,-0.015560317784547806
1772697893868668700,1.000668701171875,-0.37550410628318787,0.11374787241220474,0.041308026760816574
1772697893878717700,1.0107177734375,-0.39741581678390503,0.09653692692518234,0.08785848319530487
1772697893888765700,1.020765625,-0.4089776575565338,0.07723406702280045,0.12083055078983307
1772697893898814700,1.030814697265625,-0.4026550352573395,0.07830332964658737,0.13637249171733856
1772697893908863500,1.040863525390625,-0.39404797554016113,0.10393145680427551,0.14453987777233124
1772697893918912800,1.050912841796875,-0.3931238651275635,0.1403275430202484,0.14130014181137085
1772697893928960500,1.06096044921875,-0.38803693652153015,0.18772275745868683,0.12897875905036926
1772697893939009800,1.071009765625,-0.38452157378196716,0.2473067343235016,0.08806008100509644
1772697893949058600,1.08105859375,-0.38322222232818604,0.29285210371017456,0.045529935508966446
1772697893959107600,1.091107666015625,-0.3647196292877197,0.31350386142730713,-0.0036884781438857317
1772697893969155600,1.101155517578125,-0.352888822555542,0.31143778562545776,-0.06752204895019531
1772697893979204600,1.11120458984375,-0.34434884786605835,0.30569785833358765,-0.12585113942623138
1772697893989253600,1.121253662109375,-0.32890811562538147,0.2821216881275177,-0.15882746875286102
1772697893999302700,1.131302734375,-0.3113110065460205,0.24571043252944946,-0.15903891623020172
1772697894009350700,1.1413505859375,-0.291514128446579,0.19675034284591675,-0.13800233602523804
1772697894019399400,1.1513994140625,-0.274101585149765,0.1427566260099411,-0.11019334942102432
1772697894029448400,1.161448486328125,-0.25358566641807556,0.08948327600955963,-0.0758870393037796
1772697894039497700,1.171497802734375,-0.2370314598083496,0.07149895280599594,-0.04527214169502258
1772697894049545500,1.18154541015625,-0.2211502194404602,0.07227765768766403,-0.022894930094480515
1772697894059594500,1.191594482421875,-0.2056756615638733,0.08086501806974411,-0.008760734461247921
1772697894069643500,1.2016435546875,-0.1953660398721695,0.06624293327331543,0.017253288999199867
1772697894079692500,1.211692626953125,-0.185674786567688,0.02935815416276455,0.0326349101960659
1772697894089740500,1.221740478515625,-0.18269124627113342,0.005387042183429003,0.0319020077586174
1772697894099789600,1.23178955078125,-0.18148404359817505,0.003891677362844348,0.018966766074299812
1772697894109838600,1.241838623046875,-0.1691213846206665,0.012672917917370796,-0.012318718247115612
1772697894119887600,1.2518876953125,-0.16462036967277527,0.033486321568489075,-0.048536643385887146
1772697894129935600,1.261935546875,-0.15155570209026337,0.03647918254137039,-0.06999000161886215
1772697894139984600,1.271984619140625,-0.1371498703956604,0.03411988541483879,-0.07173730432987213
1772697894150033400,1.282033447265625,-0.11937539279460907,0.025547437369823456,-0.06156029924750328
1772697894160082700,1.292082763671875,-0.10560685396194458,0.019245600327849388,-0.053884536027908325
1772697894170130400,1.30213037109375,-0.10791661590337753,0.02720791846513748,-0.041126396507024765
1772697894180179700,1.3121796875,-0.1137518659234047,0.024821193888783455,-0.026150111109018326
1772697894190228500,1.322228515625,-0.10815150290727615,-0.0022447784431278706,-0.0017089504981413484
1772697894200277500,1.332277587890625,-0.10259748250246048,-0.0231788232922554,0.015861254185438156
1772697894210325500,1.342325439453125,-0.10565266013145447,-0.021396368741989136,0.036379311233758926
1772697894220374500,1.35237451171875,-0.09971221536397934,-0.042331479489803314,0.05313192680478096
1772697894230423600,1.362423583984375,-0.09697315096855164,-0.04892546311020851,0.07465293258428574
1772697894240472600,1.37247265625,-0.09616035223007202,-0.05693332478404045,0.10557489842176437
1772697894250520600,1.3825205078125,-0.10878613591194153,-0.06664667278528214,0.13065974414348602
1772697894260569600,1.392569580078125,-0.12516431510448456,-0.07719065994024277,0.1616554707288742
1772697894270618400,1.402618408203125,-0.13315938413143158,-0.08521396666765213,0.19047008454799652
1772697894280667600,1.412667724609375,-0.13476447761058807,-0.09770312160253525,0.21243876218795776
1772697894290715400,1.42271533203125,-0.12548096477985382,-0.11003542691469193,0.22025033831596375
1772697894300764700,1.4327646484375,-0.11559291183948517,-0.12284842133522034,0.21933820843696594
1772697894310813400,1.4428134765625,-0.10734962671995163,-0.1255113184452057,0.20406444370746613
1772697894320862500,1.452862548828125,-0.09536939859390259,-0.12473740428686142,0.18467476963996887
1772697894330910500,1.462910400390625,-0.08385442197322845,-0.13898718357086182,0.16497990489006042
1772697894340959500,1.47295947265625,-0.07520420849323273,-0.16545900702476501,0.1472424417734146
1772697894351008500,1.483008544921875,-0.07454853504896164,-0.18519702553749084,0.13587607443332672
1772697894361057500,1.4930576171875,-0.07968950271606445,-0.21271465718746185,0.1376497447490692
1772697894371105500,1.50310546875,-0.09001430869102478,-0.24743935465812683,0.13559004664421082
1772697894381154600,1.513154541015625,-0.09363647550344467,-0.2736397981643677,0.1324877291917801
1772697894391203300,1.523203369140625,-0.09147665649652481,-0.30175745487213135,0.11950003355741501
1772697894401252600,1.533252685546875,-0.08019497245550156,-0.31031978130340576,0.10846948623657227
1772697894411300400,1.54330029296875,-0.06354168802499771,-0.30787020921707153,0.09610363095998764
1772697894421349600,1.553349609375,-0.05199156329035759,-0.2874634563922882,0.07390618324279785
1772697894431398400,1.5633984375,-0.044983185827732086,-0.2628643810749054,0.04633447527885437
1772697894441447400,1.573447509765625,-0.029989590868353844,-0.2440699189901352,0.02456047013401985
1772697894451495400,1.583495361328125,-0.025649437680840492,-0.23030857741832733,0.010043579153716564
1772697894461544400,1.59354443359375,-0.03423360362648964,-0.2264011800289154,0.008930377662181854
1772697894471593700,1.60359375,-0.0463203601539135,-0.2328289896249771,0.008708536624908447
1772697894481642500,1.613642578125,-0.06501974910497665,-0.2593013346195221,0.011470501311123371
1772697894491690500,1.6236904296875,-0.06887094676494598,-0.27689656615257263,0.01841735653579235
1772697894501739500,1.633739501953125,-0.07462549954652786,-0.2826032042503357,0.01745009608566761
1772697894511788500,1.64378857421875,-0.06560244411230087,-0.26748576760292053,0.026013758033514023
1772697894521837600,1.653837646484375,-0.052202217280864716,-0.2558951675891876,0.03730236366391182
1772697894531885600,1.663885498046875,-0.03742433711886406,-0.24550776183605194,0.03614655137062073
1772697894541934600,1.6739345703125,-0.018508968874812126,-0.22549091279506683,0.0423506535589695
1772697894551983600,1.683983642578125,-0.0022921827621757984,-0.21368113160133362,0.05523316189646721
1772697894562032400,1.694032470703125,-0.0024434502702206373,-0.2568187415599823,0.07255968451499939
1772697894572080600,1.70408056640625,-0.02527260035276413,-0.2881327271461487,0.09205429255962372
1772697894582129400,1.71412939453125,-0.04188672825694084,-0.3094633221626282,0.1000957041978836
1772697894592178700,1.7241787109375,-0.05167677626013756,-0.3343297839164734,0.09330970793962479
1772697894602227500,1.7342275390625,-0.04886527732014656,-0.33977752923965454,0.08374736458063126
1772697894612275700,1.744275634765625,-0.03298244997859001,-0.34686794877052307,0.0633384957909584
1772697894622324500,1.754324462890625,-0.016403473913669586,-0.3199750781059265,0.03050890751183033
1772697894632373500,1.76437353515625,-0.0024594292044639587,-0.24992115795612335,-0.009476859122514725
1772697894642421500,1.77442138671875,0.0033009881153702736,-0.18181906640529633,-0.048958487808704376
1772697894652470500,1.784470458984375,0.003734284546226263,-0.1165844053030014,-0.07806816697120667
1772697894662519600,1.79451953125,-0.013623666949570179,-0.0734984502196312,-0.09910474717617035
1772697894672568600,1.804568603515625,-0.024829981848597527,-0.06506714969873428,-0.10512242466211319
1772697894682616600,1.814616455078125,-0.03748665377497673,-0.058939214795827866,-0.12012667208909988
1772697894692665600,1.82466552734375,-0.03418833017349243,-0.06717371195554733,-0.15424522757530212
1772697894702714400,1.83471435546875,-0.01931910216808319,-0.058327220380306244,-0.19765181839466095
1772697894712763600,1.844763671875,-0.010643322952091694,-0.041494179517030716,-0.24152366816997528
1772697894722811400,1.854811279296875,0.008437160402536392,-0.027995947748422623,-0.2835129499435425
1772697894732860700,1.864860595703125,0.01720774918794632,-0.022782010957598686,-0.31706345081329346
1772697894742909400,1.874909423828125,0.03460245206952095,-0.03141065314412117,-0.33692288398742676
1772697894752958500,1.88495849609375,0.04989005997776985,-0.03430364653468132,-0.3374829590320587
1772697894763006500,1.89500634765625,0.0590774342417717,-0.04622608423233032,-0.34219250082969666
1772697894773055500,1.905055419921875,0.07375970482826233,-0.05579135939478874,-0.32810837030410767
1772697894783104500,1.9151044921875,0.09349612891674042,-0.05963297188282013,-0.29996222257614136
1772697894793153500,1.925153564453125,0.11706297099590302,-0.05794026330113411,-0.2794228494167328
1772697894803201500,1.935201416015625,0.13826626539230347,-0.04640025645494461,-0.25675562024116516
1772697894813250600,1.94525048828125,0.1645125150680542,-0.04958992451429367,-0.23688897490501404
1772697894823299300,1.95529931640625,0.17992448806762695,-0.07700956612825394,-0.20652547478675842
1772697894833348600,1.9653486328125,0.19060537219047546,-0.09009047597646713,-0.18101239204406738
1772697894843396400,1.975396240234375,0.19047380983829498,-0.09270623326301575,-0.16308212280273438
1772697894853445600,1.985445556640625,0.1941809207201004,-0.09169929474592209,-0.15058471262454987
1772697894863494400,1.995494384765625,0.1965298354625702,-0.08144399523735046,-0.14048707485198975
1772697894873543400,2.00554345703125,0.19975198805332184,-0.06177894398570061,-0.13605397939682007
1772697894883591400,2.01559130859375,0.21585479378700256,-0.045576274394989014,-0.1288948655128479
1772697894893640400,2.025640380859375,0.2338590919971466,-0.03385916352272034,-0.12150432914495468
1772697894903689700,2.035689697265625,0.2568160891532898,-0.024221982806921005,-0.11470501124858856
1772697894913738500,2.045738525390625,0.27087944746017456,-0.017735054716467857,-0.11419368535280228
1772697894923786500,2.055786376953125,0.28524264693260193,0.008407066576182842,-0.12862029671669006
1772697894933835500,2.06583544921875,0.2955187261104584,0.033364616334438324,-0.1496318280696869
1772697894943884500,2.075884521484375,0.3070662021636963,0.05342008173465729,-0.18027709424495697
1772697894953933600,2.08593359375,0.32546839118003845,0.056483250111341476,-0.2113889455795288
1772697894963981600,2.095981689453125,0.3424343168735504,0.04386865347623825,-0.24097585678100586
1772697894974030600,2.106030517578125,0.3561144471168518,0.008894691243767738,-0.2597618103027344
1772697894984079600,2.11607958984375,0.36520034074783325,-0.028134165331721306,-0.2818354070186615
1772697894994128400,2.12612841796875,0.3659803867340088,-0.06246630847454071,-0.29009202122688293
1772697895004176100,2.136176025390625,0.36389485001564026,-0.09221328049898148,-0.2787059247493744
1772697895014225200,2.14622509765625,0.3661598861217499,-0.13104377686977386,-0.2526671290397644
1772697895024274200,2.156274169921875,0.3707977831363678,-0.1517122983932495,-0.21667104959487915
1772697895034323200,2.1663232421875,0.38210341334342957,-0.16977731883525848,-0.18298234045505524
1772697895044371200,2.17637109375,0.39608874917030334,-0.1705765277147293,-0.16012442111968994
1772697895054420200,2.186420166015625,0.417596697807312,-0.19132041931152344,-0.1376390904188156
1772697895064469200,2.19646923828125,0.43286779522895813,-0.19923481345176697,-0.12233922630548477
1772697895074518300,2.206518310546875,0.44550076127052307,-0.20555421710014343,-0.12497682124376297
1772697895084566000,2.21656591796875,0.4573129713535309,-0.2221105694770813,-0.1330491304397583
1772697895094615300,2.226615234375,0.4735201597213745,-0.21629448235034943,-0.15424177050590515
1772697895104664300,2.236664306640625,0.48633554577827454,-0.20324978232383728,-0.17799849808216095
1772697895114713000,2.246713134765625,0.5022167563438416,-0.20079728960990906,-0.19735701382160187
1772697895124761000,2.256760986328125,0.5130036473274231,-0.18625588715076447,-0.21966472268104553
1772697895134810000,2.26681005859375,0.5190157294273376,-0.1401270180940628,-0.2501043677330017
1772697895144859400,2.276859375,0.5219002366065979,-0.09385219216346741,-0.27533677220344543
1772697895154908200,2.286908203125,0.5183275938034058,-0.05457589402794838,-0.3045010566711426
1772697895164956400,2.296956298828125,0.5166630744934082,-0.000809068325906992,-0.3328709006309509
1772697895175005200,2.307005126953125,0.5144566893577576,0.051544949412345886,-0.38560840487480164
1772697895185054200,2.31705419921875,0.497464120388031,0.13231995701789856,-0.4561068117618561
1772697895195103200,2.327103271484375,0.46148720383644104,0.2243550717830658,-0.5337768197059631
1772697895205151200,2.337151123046875,0.42068731784820557,0.3016919493675232,-0.5969800353050232
1772697895215200300,2.3472001953125,0.3832360804080963,0.31133419275283813,-0.6381179094314575
1772697895225249300,2.357249267578125,0.3438361883163452,0.25258272886276245,-0.6459611654281616
1772697895235297300,2.36729736328125,0.3017297685146332,0.2075907438993454,-0.6458495855331421
1772697895245346300,2.37734619140625,0.2622252106666565,0.19676126539707184,-0.6357370018959045
1772697895255395000,2.38739501953125,0.21288271248340607,0.1719571202993393,-0.6249738335609436
1772697895265444400,2.3974443359375,0.17266738414764404,0.1454237699508667,-0.6001178026199341
1772697895275493000,2.4074931640625,0.12906743586063385,0.11870428174734116,-0.5677840709686279
1772697895285541400,2.417541259765625,0.08274973928928375,0.06661871075630188,-0.531682014465332
1772697895295590100,2.427590087890625,0.06309747695922852,-0.021373465657234192,-0.48735713958740234
1772697895305639200,2.43763916015625,0.05971366539597511,-0.12811055779457092,-0.4543565809726715
1772697895315687200,2.447687255859375,0.06878971308469772,-0.22272415459156036,-0.40685299038887024
1772697895325736200,2.457736083984375,0.07725377380847931,-0.3052629828453064,-0.32926949858665466
1772697895335785200,2.46778515625,0.09150435030460358,-0.34904852509498596,-0.2361680567264557
1772697895345834200,2.477834228515625,0.08539319783449173,-0.3401479721069336,-0.14406903088092804
1772697895355882200,2.48788232421875,0.07665536552667618,-0.26090535521507263,-0.055583368986845016
1772697895365931300,2.49793115234375,0.03331481292843819,-0.14308498799800873,0.029338980093598366
1772697895375980000,2.50797998046875,-0.013345899060368538,-0.012202603742480278,0.07146592438220978
1772697895386029300,2.518029296875,-0.03588183596730232,0.11900361627340317,0.09067025035619736
1772697895396077000,2.5280771484375,-0.05393647029995918,0.1843314915895462,0.10915764421224594
1772697895406126300,2.538126220703125,-0.06707996875047684,0.25233930349349976,0.1139577254652977
1772697895416175000,2.548175048828125,-0.09310224652290344,0.28584641218185425,0.1582423746585846
1772697895426224000,2.55822412109375,-0.10741407424211502,0.27253031730651855,0.22498704493045807
1772697895436272000,2.568272216796875,-0.11241202801465988,0.23014265298843384,0.3246220350265503
1772697895446321200,2.578321044921875,-0.1188797801733017,0.15363669395446777,0.4137561619281769
1772697895456370200,2.5883701171875,-0.10863753408193588,0.07365797460079193,0.4739918112754822
1772697895466419200,2.598419189453125,-0.09305963665246964,0.017374996095895767,0.5067750215530396
1772697895476467200,2.60846728515625,-0.06727251410484314,-0.02690644934773445,0.5060024857521057
1772697895486516200,2.61851611328125,-0.040833983570337296,-0.04911481589078903,0.4883425235748291
1772697895496565000,2.62856494140625,-0.010279268957674503,-0.061708636581897736,0.46853071451187134
1772697895506614300,2.6386142578125,0.016562465578317642,-0.10470110923051834,0.451967716217041
1772697895516662000,2.648662109375,0.034504447132349014,-0.1434919238090515,0.4442557394504547
1772697895526711300,2.658711181640625,0.048470064997673035,-0.19266904890537262,0.43233969807624817
1772697895536760300,2.66876025390625,0.0699647068977356,-0.24104005098342896,0.4175652861595154
1772697895546809000,2.67880908203125,0.08399876207113266,-0.28300321102142334,0.3985157012939453
1772697895556857000,2.688857177734375,0.09918943047523499,-0.30559560656547546,0.37108540534973145
1772697895566906000,2.698906005859375,0.12055837363004684,-0.32134366035461426,0.34561118483543396
1772697895576955400,2.708955322265625,0.1405147761106491,-0.3047383427619934,0.3191969096660614
1772697895587004200,2.719004150390625,0.16038595139980316,-0.2820095717906952,0.29723459482192993
1772697895597052400,2.729052490234375,0.17348869144916534,-0.24415434896945953,0.28724002838134766
1772697895607101200,2.73910107421875,0.17836947739124298,-0.20479096472263336,0.2765900492668152
1772697895617150200,2.749150146484375,0.180013969540596,-0.15695126354694366,0.2646090090274811
1772697895627199200,2.75919921875,0.17836600542068481,-0.11490980535745621,0.2477133870124817
1772697895637247200,2.769247314453125,0.17941902577877045,-0.08166397362947464,0.21890518069267273
1772697895647296300,2.779296142578125,0.17742058634757996,-0.06687384098768234,0.18231894075870514
1772697895657345300,2.78934521484375,0.1669865846633911,-0.0478263795375824,0.13354314863681793
1772697895667394000,2.79939404296875,0.15909883379936218,-0.05321501940488815,0.09678087383508682
1772697895677442300,2.8094423828125,0.14959588646888733,-0.08109911531209946,0.05563822761178017
1772697895687491000,2.819490966796875,0.13527633249759674,-0.11494629085063934,0.015843145549297333
1772697895697540400,2.829540283203125,0.12487749010324478,-0.1480267494916916,-0.03797641023993492
1772697895707589000,2.839589111328125,0.11931600421667099,-0.1635172963142395,-0.07388248294591904
1772697895717637400,2.849637451171875,0.11630077660083771,-0.15873531997203827,-0.10670194774866104
1772697895727686100,2.85968603515625,0.1098274290561676,-0.1390625536441803,-0.134285107254982
1772697895737735200,2.869735107421875,0.09634970873594284,-0.099140964448452,-0.15440981090068817
1772697895747784200,2.8797841796875,0.08337478339672089,-0.06811007857322693,-0.15064197778701782
1772697895757832200,2.889832275390625,0.07075300067663193,-0.04447212815284729,-0.13042432069778442
1772697895767881200,2.899881103515625,0.05886278301477432,-0.0186474546790123,-0.10602523386478424
1772697895777930200,2.90993017578125,0.03749624267220497,0.011214038357138634,-0.07473921775817871
1772697895787979000,2.91997900390625,0.017596038058400154,0.04011918976902962,-0.04984185844659805
1772697895798027300,2.93002734375,-0.0024554345291107893,0.06264261156320572,-0.018031464889645576
1772697895808076000,2.940075927734375,-0.0242542065680027,0.07217193394899368,0.025074193254113197
1772697895818125300,2.950125244140625,-0.04694327339529991,0.06862326711416245,0.0676051452755928
1772697895828174000,2.960174072265625,-0.062432218343019485,0.0511406809091568,0.11129270493984222
1772697895838222300,2.970222412109375,-0.07878509163856506,0.0443032830953598,0.14170147478580475
1772697895848271000,2.98027099609375,-0.08394310623407364,0.03383519500494003,0.17853538691997528
1772697895858320100,2.990320068359375,-0.09637100994586945,0.007231547497212887,0.22200056910514832
1772697895868369200,3.000369140625,-0.1084737479686737,-0.022888004779815674,0.2789000868797302
1772697895878417200,3.010417236328125,-0.1252439320087433,-0.04267103224992752,0.33206290006637573
1772697895888466200,3.020466064453125,-0.1462687999010086,-0.04596269875764847,0.3742697238922119
1772697895898515200,3.03051513671875,-0.17334994673728943,-0.042223088443279266,0.4232628345489502
1772697895908564200,3.040564208984375,-0.19120778143405914,-0.051415786147117615,0.47819745540618896
1772697895918612200,3.0506123046875,-0.20750126242637634,-0.06457020342350006,0.5424350500106812
1772697895928661000,3.060660888671875,-0.2374461144208908,-0.07778933644294739,0.605144739151001
1772697895938710300,3.070710205078125,-0.2664963901042938,-0.09989437460899353,0.6616197824478149
1772697895948758000,3.080758056640625,-0.30045437812805176,-0.1271694004535675,0.7033773064613342
1772697895958807300,3.090807373046875,-0.32613202929496765,-0.16095346212387085,0.7282896041870117
1772697895968856300,3.100856201171875,-0.34941792488098145,-0.1578647345304489,0.7400344014167786
1772697895978905000,3.110905029296875,-0.3726787567138672,-0.1280253380537033,0.7263742685317993
1772697895988953000,3.120953125,-0.3979886472225189,-0.08478918671607971,0.6964139342308044
1772697895999002000,3.131002197265625,-0.4102908670902252,-0.037626203149557114,0.6497569680213928
1772697896009051400,3.141051513671875,-0.4232417941093445,0.017079384997487068,0.5772827863693237
1772697896019100400,3.151100341796875,-0.4330126941204071,0.07384679466485977,0.4986380338668823
1772697896029148400,3.1611484375,-0.4345509111881256,0.11871200054883957,0.4146619141101837
1772697896039197400,3.171197509765625,-0.42141488194465637,0.14858441054821014,0.33258938789367676
1772697896049246200,3.18124609375,-0.4114794135093689,0.19153107702732086,0.26485350728034973
1772697896059295500,3.19129541015625,-0.4049152731895447,0.21968922019004822,0.21267098188400269
1772697896069343200,3.20134326171875,-0.3927885591983795,0.23256267607212067,0.18777789175510406
1772697896079392500,3.211392578125,-0.3786485195159912,0.23994041979312897,0.17525304853916168
1772697896089441300,3.221441162109375,-0.3772737979888916,0.24561642110347748,0.18578077852725983
1772697896099490300,3.231490234375,-0.3779030740261078,0.24779196083545685,0.21368005871772766
1772697896109538300,3.241538330078125,-0.38613227009773254,0.23911377787590027,0.2641269862651825
1772697896119587300,3.25158740234375,-0.4008406400680542,0.22248020768165588,0.3173534572124481
1772697896129636400,3.26163623046875,-0.4224143624305725,0.2055121511220932,0.37281644344329834
1772697896139685400,3.271685302734375,-0.4400807023048401,0.19844651222229004,0.41910192370414734
1772697896149733400,3.2817333984375,-0.4472307562828064,0.18362602591514587,0.4556804299354553
1772697896159782400,3.291782470703125,-0.45646315813064575,0.16533729434013367,0.47842171788215637
1772697896169831200,3.3018310546875,-0.46305766701698303,0.15371020138263702,0.5018413066864014
1772697896179880400,3.31188037109375,-0.46564731001853943,0.13920502364635468,0.5220946073532104
1772697896189928200,3.32192822265625,-0.4671373665332794,0.13899171352386475,0.5216253399848938
1772697896199977500,3.3319775390625,-0.4671134054660797,0.14516465365886688,0.5194532871246338
1772697896210026200,3.342026123046875,-0.46974194049835205,0.1566990613937378,0.5119956731796265
1772697896220075300,3.3520751953125,-0.4745819568634033,0.14893408119678497,0.5002963542938232
1772697896230123300,3.362123291015625,-0.4771351218223572,0.13696104288101196,0.48915237188339233
1772697896240172300,3.37217236328125,-0.4769545793533325,0.12991991639137268,0.46374741196632385
1772697896250221300,3.38222119140625,-0.4771905243396759,0.1298256367444992,0.4443902373313904
1772697896260270300,3.392270263671875,-0.47685256600379944,0.11566375195980072,0.42365193367004395
1772697896270318300,3.402318359375,-0.47144314646720886,0.10221344977617264,0.4015468955039978
1772697896280367400,3.412367431640625,-0.4624616503715515,0.09613771736621857,0.3799518644809723
1772697896290416000,3.422416015625,-0.45024946331977844,0.1147574782371521,0.35765692591667175
1772697896300465400,3.43246533203125,-0.43970414996147156,0.12706580758094788,0.3368512690067291
1772697896310513200,3.44251318359375,-0.4347842037677765,0.14102023839950562,0.32065391540527344
1772697896320562400,3.4525625,-0.43119534850120544,0.1586271971464157,0.30174705386161804
1772697896330611200,3.462611083984375,-0.4302528500556946,0.1813330352306366,0.27159929275512695
1772697896340660200,3.47266015625,-0.4267478585243225,0.1769990175962448,0.23619681596755981
1772697896350708200,3.482708251953125,-0.43708038330078125,0.1730697900056839,0.2148028463125229
1772697896360757200,3.49275732421875,-0.44022291898727417,0.13619191944599152,0.19842946529388428
1772697896370806500,3.502806640625,-0.44848430156707764,0.09836838394403458,0.17505037784576416
1772697896380855300,3.512855224609375,-0.45302528142929077,0.09840299934148788,0.15015700459480286
1772697896390903300,3.5229033203125,-0.45721814036369324,0.10964633524417877,0.11800413578748703
1772697896400952300,3.532952392578125,-0.46940717101097107,0.11173505336046219,0.08816474676132202
1772697896411001300,3.54300146484375,-0.4802664816379547,0.10418712347745895,0.06953486800193787
1772697896421050400,3.55305029296875,-0.4820502698421478,0.09306149929761887,0.04911934211850166
1772697896431098400,3.563098388671875,-0.48824024200439453,0.0852951928973198,0.028854018077254295
1772697896441147400,3.5731474609375,-0.4918946325778961,0.08461342006921768,0.013776532374322414
1772697896451196400,3.583196533203125,-0.4986574649810791,0.09925681352615356,0.0037292244378477335
1772697896461245200,3.5932451171875,-0.4856785535812378,0.15184226632118225,-0.01721973344683647
1772697896471293400,3.60329345703125,-0.483945369720459,0.19424112141132355,-0.024939704686403275
1772697896481342200,3.61334228515625,-0.4723750054836273,0.25273025035858154,-0.022611036896705627
1772697896491391500,3.6233916015625,-0.4487761855125427,0.36964115500450134,-0.020426711067557335
1772697896501440300,3.633440185546875,-0.43967777490615845,0.593848705291748,-0.05956079810857773
1772697896511488500,3.643488525390625,-0.4477767050266266,0.7491341829299927,-0.11170203238725662
1772697896521537300,3.653537353515625,-0.46450987458229065,0.6527748703956604,-0.14434173703193665
1772697896531586300,3.66358642578125,-0.4716929495334625,0.3733922243118286,-0.14071397483348846
1772697896541635300,3.67363525390625,-0.4606381952762604,0.12448147684335709,-0.08806195110082626
1772697896551683300,3.683683349609375,-0.44344988465309143,-0.022915702313184738,-0.015921441838145256
1772697896561732400,3.693732421875,-0.4379216730594635,-0.058522697538137436,0.06871355324983597
1772697896571781400,3.703781494140625,-0.42848876118659973,-0.05854027345776558,0.15771479904651642
1772697896581830100,3.713830078125,-0.4171772599220276,-0.057984475046396255,0.24300119280815125
1772697896591878400,3.72387841796875,-0.37930232286453247,-0.05397375300526619,0.3108084797859192
1772697896601927200,3.73392724609375,-0.34195253252983093,-0.04838510975241661,0.33094143867492676
1772697896611976400,3.7439765625,-0.31438377499580383,-0.013321397826075554,0.31185829639434814
1772697896622025200,3.754025146484375,-0.2892158329486847,0.014986139722168446,0.2799341678619385
1772697896632073500,3.764073486328125,-0.2724459171295166,0.0794500857591629,0.2363733947277069
1772697896642122200,3.774122314453125,-0.25304609537124634,0.15446867048740387,0.186586394906044
1772697896652171300,3.784171142578125,-0.21789531409740448,0.27508243918418884,0.12863174080848694
1772697896662220300,3.79422021484375,-0.18518902361392975,0.39831462502479553,0.06854257732629776
1772697896672268300,3.804268310546875,-0.14823341369628906,0.4843277931213379,0.028742166236042976
1772697896682317300,3.8143173828125,-0.12889087200164795,0.5402379631996155,0.006095709279179573
1772697896692366300,3.824366455078125,-0.11182240396738052,0.5506809949874878,0.002743055811151862
1772697896702415000,3.8344150390625,-0.1009276807308197,0.48485884070396423,0.016282035037875175
1772697896712463400,3.84446337890625,-0.11011398583650589,0.3898497521877289,0.01829937845468521
1772697896722512100,3.85451220703125,-0.1148429587483406,0.25397077202796936,-0.005224855616688728
1772697896732561400,3.8645615234375,-0.10437620431184769,0.11221548914909363,-0.037162017077207565
1772697896742610400,3.8746103515625,-0.09166067838668823,0.0023521038237959146,-0.0793779119849205
1772697896752658400,3.884658447265625,-0.07415252178907394,-0.08165758103132248,-0.1108386367559433
1772697896762707200,3.894707275390625,-0.06202581897377968,-0.14380057156085968,-0.1414114534854889
1772697896772756200,3.904756103515625,-0.04733901843428612,-0.19899272918701172,-0.14918655157089233
1772697896782805500,3.914805419921875,-0.04059349745512009,-0.2562139332294464,-0.15688201785087585
1772697896792853200,3.924853271484375,-0.03285728394985199,-0.2961656153202057,-0.17133952677249908
1772697896802902500,3.934902587890625,-0.039632897824048996,-0.3233913779258728,-0.1996297538280487
1772697896812951300,3.944951416015625,-0.019873838871717453,-0.3206067681312561,-0.2313607931137085
1772697896823000300,3.955000244140625,-0.012359464541077614,-0.29854676127433777,-0.2586438059806824
1772697896833048300,3.96504833984375,-0.0059806606732308865,-0.29411470890045166,-0.270212858915329
1772697896843097300,3.975097412109375,-0.005517270881682634,-0.3056810796260834,-0.24761219322681427
1772697896853146400,3.985146484375,-0.01606951467692852,-0.3347971737384796,-0.20788341760635376
1772697896863195400,3.9951953125,-0.038829952478408813,-0.36569035053253174,-0.16984789073467255
1772697896873243400,4.005243408203125,-0.06149585172533989,-0.373884916305542,-0.12653343379497528
1772697896883292400,4.01529248046875,-0.08916449546813965,-0.3953065872192383,-0.09748447686433792
1772697896893341200,4.025341064453125,-0.08742092549800873,-0.3895488381385803,-0.0772700235247612
1772697896903390500,4.035390380859375,-0.07415199279785156,-0.325876384973526,-0.092584528028965
1772697896913438200,4.045438232421875,-0.05342727154493332,-0.21730461716651917,-0.12630866467952728
1772697896923487500,4.055487548828125,-0.03008360043168068,-0.08384110778570175,-0.194301038980484
1772697896933536300,4.065536376953125,-0.022520221769809723,0.06752258539199829,-0.25001996755599976
1772697896943585300,4.075585205078125,0.0005866943974979222,0.18098017573356628,-0.2951088845729828
1772697896953633300,4.08563330078125,0.020989172160625458,0.25435692071914673,-0.3025401532649994
1772697896963682300,4.095682373046875,0.042997267097234726,0.28616517782211304,-0.2920377254486084
1772697896973731300,4.1057314453125,0.05040485039353371,0.25947123765945435,-0.27540627121925354
1772697896983779300,4.115779296875,0.06337923556566238,0.18172292411327362,-0.23547643423080444
1772697896993828400,4.125828369140625,0.08648642152547836,0.08219394087791443,-0.15874037146568298
1772697897003877400,4.13587744140625,0.12206465750932693,-0.05409758910536766,-0.058101918548345566
1772697897013926100,4.145926025390625,0.13898532092571259,-0.18324971199035645,0.0637640655040741
1772697897023975000,4.155974853515625,0.1454796940088272,-0.26224014163017273,0.18666201829910278
1772697897034023200,4.166023193359375,0.14440670609474182,-0.3001640737056732,0.29589369893074036
1772697897044072000,4.176072021484375,0.13355699181556702,-0.3325752913951874,0.37157514691352844
1772697897054121000,4.186120849609375,0.13513119518756866,-0.3655601441860199,0.41242510080337524
1772697897064169000,4.1961689453125,0.14290229976177216,-0.3833702802658081,0.4024435877799988
1772697897074218000,4.206218017578125,0.14696307480335236,-0.3788924515247345,0.3563738167285919
1772697897084267000,4.21626708984375,0.1501663327217102,-0.3476487696170807,0.2721351087093353
1772697897094316000,4.22631591796875,0.16198331117630005,-0.3010844588279724,0.18610329926013947
1772697897104364000,4.236364013671875,0.1759534478187561,-0.24360467493534088,0.08376813679933548
1772697897114413000,4.2464130859375,0.19295907020568848,-0.16276095807552338,-0.022612901404500008
1772697897124461800,4.2564619140625,0.22207540273666382,-0.09323646873235703,-0.12962190806865692
1772697897134511000,4.266510986328125,0.2389068603515625,-0.04717603325843811,-0.25241175293922424
1772697897144558800,4.276558837890625,0.2583521902561188,-0.013289440423250198,-0.37246251106262207
1772697897154608000,4.286608154296875,0.27584436535835266,0.023370036855340004,-0.4826694428920746
1772697897164657000,4.296656982421875,0.28854283690452576,0.05324351415038109,-0.5756867527961731
1772697897174706000,4.306705810546875,0.2966543138027191,0.07367421686649323,-0.6482768058776855
1772697897184754000,4.31675390625,0.3085647523403168,0.10094339400529861,-0.7005759477615356
1772697897194803000,4.326802978515625,0.3126212954521179,0.11961081624031067,-0.7304584980010986
1772697897204852000,4.33685205078125,0.3078611493110657,0.15396267175674438,-0.7331730127334595
1772697897214901000,4.34690087890625,0.30014652013778687,0.1522292196750641,-0.7017275094985962
1772697897224949000,4.356948974609375,0.2903306186199188,0.12610334157943726,-0.6338304877281189
1772697897234998000,4.366998046875,0.2768888473510742,0.09860753268003464,-0.532588005065918
1772697897245046800,4.377046875,0.2543638348579407,0.10021927952766418,-0.4281209707260132
1772697897255096000,4.387095947265625,0.24574051797389984,0.11283786594867706,-0.3358277976512909
1772697897265143800,4.397143798828125,0.2353704422712326,0.1303369700908661,-0.25215235352516174
1772697897275193000,4.407193115234375,0.22346478700637817,0.12630973756313324,-0.1740378439426422
1772697897285242000,4.4172421875,0.2205592691898346,0.09068462997674942,-0.11606215685606003
1772697897295291000,4.427290771484375,0.22433403134346008,0.05335749685764313,-0.07190109044313431
1772697897305339000,4.4373388671875,0.23345190286636353,0.02803376503288746,-0.04026193544268608
1772697897315388000,4.447387939453125,0.24063417315483093,0.012999954633414745,-0.02262488566339016
1772697897325437200,4.457437255859375,0.25593724846839905,0.0019065570086240768,-0.01714836061000824
1772697897335486000,4.46748583984375,0.27665024995803833,-0.001758218975737691,-0.01955106481909752
1772697897345534200,4.4775341796875,0.2984766960144043,0.01056529302150011,-0.0465717613697052
1772697897355583000,4.4875830078125,0.3285568356513977,0.01739390380680561,-0.07279830425977707
1772697897365632000,4.497632080078125,0.3598465919494629,0.009639844298362732,-0.10300867259502411
1772697897375681000,4.507680908203125,0.3941427767276764,-0.011855860240757465,-0.1348121464252472
1772697897385729000,4.51772900390625,0.4180627465248108,-0.06490735709667206,-0.16502730548381805
1772697897395778000,4.527778076171875,0.44490182399749756,-0.11576095223426819,-0.1881541907787323
1772697897405827000,4.5378271484375,0.4595297873020172,-0.169367715716362,-0.20655184984207153
1772697897415875800,4.547875732421875,0.46536821126937866,-0.20514489710330963,-0.22897805273532867
1772697897425924000,4.557924072265625,0.4717550277709961,-0.22276464104652405,-0.2410363107919693
1772697897435972900,4.567972900390625,0.48175811767578125,-0.24416153132915497,-0.26687297224998474
1772697897446022100,4.578022216796875,0.5003523230552673,-0.27364566922187805,-0.29829320311546326
1772697897456071000,4.58807080078125,0.5232027769088745,-0.2826436758041382,-0.3278263509273529
1772697897466119200,4.598119140625,0.5376144647598267,-0.2895961403846741,-0.3546081483364105
1772697897476168000,4.60816796875,0.5578747391700745,-0.2978188991546631,-0.36513057351112366
1772697897486217000,4.618217041015625,0.5738057494163513,-0.30378440022468567,-0.3821662664413452
1772697897496266000,4.628265869140625,0.6047130823135376,-0.324312299489975,-0.40271708369255066
1772697897506314000,4.63831396484375,0.6257195472717285,-0.29286542534828186,-0.43576639890670776
1772697897516363000,4.648363037109375,0.6612775325775146,-0.2973991930484772,-0.4783519208431244
1772697897526412000,4.658412109375,0.6908738017082214,-0.24958772957324982,-0.5161648392677307
1772697897536460800,4.668460693359375,0.7322545051574707,-0.24403956532478333,-0.543113112449646
1772697897546509000,4.678509033203125,0.7862111926078796,-0.2650148868560791,-0.5860448479652405
1772697897556557800,4.688557861328125,0.835261881351471,-0.2727726697921753,-0.6284807324409485
1772697897566607000,4.698607177734375,0.8825843334197998,-0.32168108224868774,-0.6396198868751526
1772697897576656000,4.70865576171875,0.925901472568512,-0.3583347201347351,-0.626725435256958
1772697897586704100,4.7187041015625,0.9751883149147034,-0.39700648188591003,-0.5826863050460815
1772697897596753000,4.7287529296875,1.0227068662643433,-0.4493817985057831,-0.5409820079803467
1772697897606802000,4.738802001953125,1.0706157684326172,-0.4613596200942993,-0.5105146765708923
1772697897616851000,4.748850830078125,1.129145622253418,-0.4642137289047241,-0.5100677609443665
1772697897626899000,4.75889892578125,1.171851634979248,-0.45840325951576233,-0.5113916397094727
1772697897636948000,4.768947998046875,1.2285305261611938,-0.4889813959598541,-0.5344964265823364
1772697897646997000,4.7789970703125,1.2902448177337646,-0.5205785036087036,-0.5658519268035889
1772697897657046000,4.7890458984375,1.3149887323379517,-0.49359560012817383,-0.589597225189209
1772697897667094000,4.799093994140625,1.3191521167755127,-0.41047221422195435,-0.6130695343017578
1772697897677142800,4.809142822265625,1.3171677589416504,-0.34548869729042053,-0.6149271130561829
1772697897687192000,4.819192138671875,1.250410556793213,-0.21603935956954956,-0.6155292391777039
1772697897697241000,4.829240966796875,1.1817209720611572,0.04229286313056946,-0.5841941833496094
1772697897707289000,4.8392890625,1.0770905017852783,0.205396831035614,-0.5269469022750854
1772697897717338000,4.849338134765625,0.9567395448684692,0.1691533327102661,-0.4497208297252655
1772697897727387000,4.859386962890625,0.8942335844039917,0.0031473238486796618,-0.3661215305328369
1772697897737436200,4.869436279296875,0.8319238424301147,-0.186177596449852,-0.2652055621147156
1772697897747484000,4.87948388671875,0.7181704044342041,-0.31359654664993286,-0.14495985209941864
1772697897757533200,4.889533203125,0.5996062159538269,-0.39012807607650757,-0.021465877071022987
1772697897767582000,4.89958203125,0.5013768076896667,-0.48265719413757324,0.10889586061239243
1772697897777631000,4.909630859375,0.41031694412231445,-0.5839577317237854,0.22737856209278107
1772697897787679000,4.919678955078125,0.31229984760284424,-0.6462141871452332,0.3217114508152008
1772697897797728000,4.92972802734375,0.25049665570259094,-0.702801525592804,0.37738215923309326
1772697897807777000,4.939777099609375,0.21269123256206512,-0.7349531054496765,0.428655743598938
1772697897817826000,4.949825927734375,0.18835259974002838,-0.7198449969291687,0.4831134080886841
1772697897827874000,4.9598740234375,0.18141746520996094,-0.6442285180091858,0.5228294134140015
1772697897837923000,4.969923095703125,0.18515068292617798,-0.5451152324676514,0.5060011148452759
1772697897847971800,4.979971923828125,0.1853775829076767,-0.41644275188446045,0.4288211166858673
1772697897858021000,4.990021240234375,0.19940391182899475,-0.2691124379634857,0.30475670099258423
1772697897868068900,5.00006884765625,0.20599603652954102,-0.0891818106174469,0.14493535459041595
1772697897878118100,5.0101181640625,0.22241096198558807,0.048049286007881165,-0.02388988621532917
1772697897888167000,5.0201669921875,0.23891617357730865,0.11547146737575531,-0.1685464084148407
1772697897898216000,5.0302158203125,0.20294831693172455,0.20426099002361298,-0.22704806923866272
1772697897908264000,5.040263916015625,0.13259293138980865,0.2666442096233368,-0.22671250998973846
1772697897918313000,5.05031298828125,0.057791128754615784,0.2552887499332428,-0.19216464459896088
1772697897928362000,5.060362060546875,-0.020865866914391518,0.22524669766426086,-0.10868946462869644
1772697897938411000,5.070410888671875,-0.07802662253379822,0.20451025664806366,0.00046924897469580173
1772697897948459000,5.080458984375,-0.11894077062606812,0.2188125103712082,0.13964924216270447
1772697897958508000,5.090508056640625,-0.1502973586320877,0.2660396695137024,0.2725242078304291
1772697897968556800,5.100556884765625,-0.18346862494945526,0.3241269290447235,0.40105900168418884
1772697897978606000,5.110606201171875,-0.1992635726928711,0.35849955677986145,0.5088661909103394
1772697897988653800,5.12065380859375,-0.19875304400920868,0.36088255047798157,0.5782729387283325
1772697897998703000,5.130703125,-0.18590807914733887,0.30866676568984985,0.6236100792884827
1772697898008752400,5.14075244140625,-0.17724908888339996,0.25209587812423706,0.6376582384109497
1772697898018801400,5.150801513671875,-0.17751166224479675,0.20025719702243805,0.6161702275276184
1772697898028849400,5.160849365234375,-0.17101489007472992,0.19139951467514038,0.5635091662406921
1772697898038898400,5.1708984375,-0.16516658663749695,0.20739179849624634,0.5009927749633789
1772697898048947500,5.180947509765625,-0.1595691591501236,0.2313022017478943,0.4476051926612854
1772697898058996500,5.19099658203125,-0.16860312223434448,0.23561625182628632,0.43117883801460266
1772697898069044200,5.201044189453125,-0.15986555814743042,0.1825176179409027,0.4241235852241516
1772697898079093500,5.211093505859375,-0.14575879275798798,0.10742419213056564,0.43524041771888733
1772697898089142300,5.221142333984375,-0.14225487411022186,0.032814670354127884,0.4393579363822937
1772697898099191600,5.231191650390625,-0.12379278242588043,-0.0362248495221138,0.4247691333293915
1772697898109239300,5.2412392578125,-0.1331884115934372,-0.06776493042707443,0.4016382396221161
1772697898119288300,5.251288330078125,-0.13568539917469025,-0.0432654470205307,0.38071244955062866
1772697898129337300,5.26133740234375,-0.13109783828258514,-0.004551342222839594,0.37634408473968506
1772697898139386400,5.271386474609375,-0.12704983353614807,0.042389001697301865,0.38444647192955017
1772697898149434400,5.281434326171875,-0.13985776901245117,0.06333396583795547,0.38223153352737427
1772697898159483400,5.2914833984375,-0.16150979697704315,0.07610035687685013,0.37354588508605957
1772697898169532400,5.301532470703125,-0.1964520663022995,0.060750965029001236,0.363799512386322
1772697898179581400,5.31158154296875,-0.21686600148677826,0.04441939666867256,0.33992695808410645
1772697898189629400,5.32162939453125,-0.21800823509693146,0.03217364847660065,0.2991371750831604
1772697898199678500,5.331678466796875,-0.19902575016021729,0.03587144985795021,0.24720074236392975
1772697898209727200,5.341727294921875,-0.1646573841571808,0.050938546657562256,0.182403102517128
1772697898219775500,5.351775390625,-0.11600303649902344,0.07954728603363037,0.12149953097105026
1772697898229824300,5.36182421875,-0.0634993463754654,0.1047288104891777,0.06256724148988724
1772697898239873500,5.37187353515625,-0.02376178838312626,0.14006789028644562,0.021467475220561028
1772697898249922300,5.38192236328125,0.006295712664723396,0.15356212854385376,-0.007267233915627003
1772697898259970300,5.39197021484375,0.019808592274785042,0.15342018008232117,-0.025910958647727966
1772697898270019300,5.402019287109375,0.03526664525270462,0.13461454212665558,-0.034697525203228
1772697898280068400,5.412068359375,0.04481141269207001,0.13570217788219452,-0.04134637489914894
1772697898290117400,5.422117431640625,0.04959418252110481,0.1516888588666916,-0.048818137496709824
1772697898300165400,5.432165283203125,0.06130996346473694,0.1644270271062851,-0.052736181765794754
1772697898310214400,5.44221435546875,0.07495652884244919,0.19316759705543518,-0.05570081248879433
1772697898320263400,5.452263427734375,0.0739663690328598,0.21450777351856232,-0.06269640475511551
1772697898330312400,5.4623125,0.0627366155385971,0.203327015042305,-0.07584070414304733
1772697898340360400,5.4723603515625,0.04351525381207466,0.18682074546813965,-0.08073559403419495
1772697898350409200,5.4824091796875,0.019339876249432564,0.16230368614196777,-0.08224320411682129
1772697898360458500,5.49245849609375,-0.0057377805933356285,0.14304131269454956,-0.06350626796483994
1772697898370507500,5.502507568359375,-0.02340865321457386,0.12274535745382309,-0.02641988918185234
1772697898380555300,5.51255517578125,-0.045692119747400284,0.12126890569925308,0.004811799619346857
1772697898390604500,5.5226044921875,-0.05855492129921913,0.13157719373703003,0.052867207676172256
1772697898400653300,5.5326533203125,-0.08231644332408905,0.14578649401664734,0.09912551939487457
1772697898410702600,5.54270263671875,-0.10866362601518631,0.16954109072685242,0.14868827164173126
1772697898420750300,5.552750244140625,-0.13181261718273163,0.19934053719043732,0.18058255314826965
1772697898430799400,5.56279931640625,-0.1509397178888321,0.21349523961544037,0.2064487785100937
1772697898440848400,5.572848388671875,-0.16911578178405762,0.2030889391899109,0.22136300802230835
1772697898450897400,5.5828974609375,-0.1851663887500763,0.19738763570785522,0.21490831673145294
1772697898460945400,5.5929453125,-0.19489838182926178,0.20563092827796936,0.19155371189117432
1772697898470994400,5.602994384765625,-0.19798845052719116,0.21466675400733948,0.15810734033584595
1772697898481043500,5.61304345703125,-0.20196454226970673,0.2294108271598816,0.1256237030029297
1772697898491092500,5.623092529296875,-0.21557623147964478,0.24850115180015564,0.1034741923213005
1772697898501140500,5.633140380859375,-0.2343597710132599,0.2579188942909241,0.10441268980503082
1772697898511189500,5.643189453125,-0.2643173933029175,0.24117426574230194,0.15116049349308014
1772697898521238300,5.65323828125,-0.30087700486183167,0.20980197191238403,0.21965539455413818
1772697898531287600,5.66328759765625,-0.33227941393852234,0.15011972188949585,0.30866488814353943
1772697898541335300,5.673335205078125,-0.3651862144470215,0.08232443034648895,0.3980538845062256
1772697898551384600,5.683384521484375,-0.39632338285446167,0.013748835772275925,0.4811154901981354
1772697898561433300,5.693433349609375,-0.42174777388572693,-0.03242079168558121,0.5441397428512573
1772697898571482400,5.703482421875,-0.4392801523208618,-0.061894793063402176,0.6042693853378296
1772697898581530400,5.7135302734375,-0.45227906107902527,-0.06130277365446091,0.6413469910621643
1772697898591579400,5.723579345703125,-0.4600376486778259,-0.04532673582434654,0.6635516285896301
1772697898601628400,5.73362841796875,-0.4670713245868683,-0.015117167495191097,0.6747919917106628
1772697898611677400,5.743677490234375,-0.45900434255599976,0.023553529754281044,0.6854143142700195
1772697898621725400,5.753725341796875,-0.46251118183135986,0.06856761127710342,0.6686017513275146
1772697898631774500,5.7637744140625,-0.46357592940330505,0.0881410464644432,0.6308024525642395
1772697898641823200,5.7738232421875,-0.466086745262146,0.1058577224612236,0.5896419882774353
1772697898651872500,5.78387255859375,-0.4660177528858185,0.10442547500133514,0.5298944711685181
1772697898661920300,5.793920166015625,-0.4630478024482727,0.09016105532646179,0.46192076802253723
1772697898671969500,5.803969482421875,-0.45852524042129517,0.06866960972547531,0.3607510030269623
1772697898682018300,5.814018310546875,-0.4556490182876587,0.08466588705778122,0.2590182423591614
1772697898692067300,5.8240673828125,-0.4584605097770691,0.10327179729938507,0.17147400975227356
1772697898702115300,5.834115234375,-0.4583052396774292,0.09385059773921967,0.10871662944555283
1772697898712164400,5.844164306640625,-0.4643535614013672,0.07681968063116074,0.08421767503023148
1772697898722213400,5.85421337890625,-0.4788302481174469,0.057924285531044006,0.07428435236215591
1772697898732262400,5.864262451171875,-0.48475655913352966,0.04511581361293793,0.06405355036258698
1772697898742310400,5.874310302734375,-0.48524418473243713,0.05168423429131508,0.0544709637761116
1772697898752359400,5.884359375,-0.4833693206310272,0.06556276232004166,0.033060748130083084
1772697898762408400,5.894408447265625,-0.47804325819015503,0.08524619042873383,0.01906663551926613
1772697898772457500,5.90445751953125,-0.46579697728157043,0.11321577429771423,0.006131928414106369
1772697898782505200,5.914505126953125,-0.463285893201828,0.14365969598293304,0.005554554983973503
1772697898792554500,5.924554443359375,-0.4630696475505829,0.1715587079524994,0.011668107472360134
1772697898802603500,5.934603515625,-0.464891254901886,0.19190791249275208,0.019604060798883438
1772697898812652300,5.94465234375,-0.47423309087753296,0.21142356097698212,0.03133128955960274
1772697898822700500,5.954700439453125,-0.4793567359447479,0.2210109382867813,0.04544631019234657
1772697898832749300,5.964749267578125,-0.4778424799442291,0.21629661321640015,0.060631923377513885
1772697898842798600,5.974798583984375,-0.4718919098377228,0.21193435788154602,0.07413201779127121
1772697898852847400,5.984847412109375,-0.45876118540763855,0.22279073297977448,0.08157848566770554
1772697898862895600,5.9948955078125,-0.4374268651008606,0.24306537210941315,0.08845849335193634
1772697898872944400,6.0049443359375,-0.4188252091407776,0.2650873363018036,0.10244781523942947
1772697898882993400,6.014993408203125,-0.40906208753585815,0.2873076796531677,0.11576920747756958
1772697898893042400,6.02504248046875,-0.40894943475723267,0.31599950790405273,0.1299276351928711
1772697898903090400,6.03509033203125,-0.41589653491973877,0.3418172597885132,0.14256833493709564
1772697898913139500,6.045139404296875,-0.42580217123031616,0.339029461145401,0.16393247246742249
1772697898923188500,6.0551884765625,-0.4322451651096344,0.28511136770248413,0.20579150319099426
1772697898933237200,6.0652373046875,-0.44347384572029114,0.17880091071128845,0.24994352459907532
1772697898943285500,6.075285400390625,-0.4053086042404175,0.2574586868286133,0.26059964299201965
1772697898953334300,6.085334228515625,-0.37052586674690247,0.5046916604042053,0.22038643062114716
1772697898963383600,6.095383544921875,-0.3670525848865509,0.5540584325790405,0.19379450380802155
1772697898973432300,6.105432373046875,-0.4154725670814514,0.2987254559993744,0.2364538162946701
1772697898983480600,6.11548046875,-0.4656726121902466,-0.0705370157957077,0.32572004199028015
1772697898993529300,6.125529296875,-0.5038040280342102,-0.349001407623291,0.40584471821784973
1772697899003578400,6.135578369140625,-0.5110422372817993,-0.44174039363861084,0.5080959796905518
1772697899013627600,6.145627685546875,-0.5093660354614258,-0.40264278650283813,0.5724235773086548
1772697899023675600,6.155675537109375,-0.49701908230781555,-0.29333600401878357,0.6165947318077087
1772697899033724700,6.165724609375,-0.497280091047287,-0.15714594721794128,0.6464415788650513
1772697899043773700,6.175773681640625,-0.49521294236183167,-0.04891214892268181,0.6283866763114929
1772697899053822700,6.18582275390625,-0.4732261598110199,0.056591372936964035,0.5939203500747681
1772697899063870700,6.19587060546875,-0.4239427447319031,0.12538588047027588,0.5347211956977844
1772697899073919700,6.205919677734375,-0.3608514070510864,0.2020585536956787,0.44004955887794495
1772697899083968500,6.215968505859375,-0.3005638122558594,0.2856234908103943,0.3088124394416809
1772697899094017800,6.226017822265625,-0.2613394558429718,0.35646384954452515,0.14021863043308258
1772697899104065500,6.2360654296875,-0.2303682267665863,0.3715093731880188,-0.02666516602039337
1772697899114114800,6.24611474609375,-0.2039022594690323,0.34215840697288513,-0.16641081869602203
1772697899124163600,6.25616357421875,-0.1918834149837494,0.3108404278755188,-0.2554093897342682
1772697899134212600,6.266212646484375,-0.19015182554721832,0.25295716524124146,-0.2776569128036499
1772697899144260600,6.276260498046875,-0.19603395462036133,0.1448943316936493,-0.2103191465139389
1772697899154309600,6.2863095703125,-0.20934602618217468,-0.026934677734971046,-0.10826975107192993
1772697899164358700,6.296358642578125,-0.21931929886341095,-0.18605242669582367,-0.012661200016736984
1772697899174407700,6.30640771484375,-0.21479380130767822,-0.3154178857803345,0.06100716069340706
1772697899184455700,6.31645556640625,-0.2086871713399887,-0.42239758372306824,0.10476156324148178
1772697899194504700,6.326504638671875,-0.22089216113090515,-0.5228483080863953,0.14023859798908234
1772697899204553700,6.3365537109375,-0.2562890350818634,-0.6033295392990112,0.17626744508743286
1772697899214602800,6.346602783203125,-0.29240310192108154,-0.6589614152908325,0.2320859581232071
1772697899224650500,6.356650390625,-0.3325928747653961,-0.7144923210144043,0.3042216897010803
1772697899234699800,6.36669970703125,-0.3580963611602783,-0.7677448391914368,0.3546214699745178
1772697899244748800,6.376748779296875,-0.3505673408508301,-0.8187257647514343,0.3893754482269287
1772697899254797800,6.3867978515625,-0.35361212491989136,-0.8358283042907715,0.3868590295314789
1772697899264845600,6.396845458984375,-0.3352038264274597,-0.8000825643539429,0.36478596925735474
1772697899274894600,6.40689453125,-0.30566325783729553,-0.7245475649833679,0.3271504342556
1772697899284944000,6.41694384765625,-0.2628406882286072,-0.6080198884010315,0.2387755662202835
1772697899294992600,6.42699267578125,-0.22506694495677948,-0.4732317328453064,0.1178739070892334
1772697899305041000,6.437041015625,-0.16734318435192108,-0.30137449502944946,-0.006371879018843174
1772697899315089700,6.447089599609375,-0.12858673930168152,-0.14571699500083923,-0.11133451014757156
1772697899325138700,6.457138671875,-0.07805831730365753,0.022669360041618347,-0.21881863474845886
1772697899335187700,6.467187744140625,-0.04163213074207306,0.1593547761440277,-0.3153925836086273
1772697899345235700,6.477235595703125,-0.018394453451037407,0.24764415621757507,-0.4015769958496094
1772697899355284700,6.48728466796875,-0.012547217309474945,0.2831752598285675,-0.4536244869232178
1772697899365333800,6.497333740234375,-0.02064375951886177,0.28978973627090454,-0.4751918315887451
1772697899375382800,6.5073828125,-0.01588868536055088,0.28446927666664124,-0.47628453373908997
1772697899385431800,6.517431884765625,-0.0046299053356051445,0.2781405448913574,-0.47033873200416565
1772697899395479600,6.5274794921875,0.011245197616517544,0.2731114327907562,-0.4662420153617859
1772697899405528800,6.53752880859375,0.022664565593004227,0.2519025504589081,-0.4482044279575348
1772697899415577600,6.54757763671875,0.03279389813542366,0.19849951565265656,-0.4139670729637146
1772697899425627000,6.557626953125,0.04241297021508217,0.10723724216222763,-0.3594428598880768
1772697899435674600,6.567674560546875,0.040654752403497696,0.015207448974251747,-0.3030829131603241
1772697899445723600,6.5777236328125,0.0272502638399601,-0.06399203091859818,-0.2574506998062134
1772697899455772700,6.587772705078125,0.021941518411040306,-0.1288176327943802,-0.2320510745048523
1772697899465821700,6.59782177734375,0.02564251236617565,-0.15088485181331635,-0.24040435254573822
1772697899475869700,6.60786962890625,0.04020334407687187,-0.11198539286851883,-0.2627842128276825
1772697899485918700,6.617918701171875,0.03694949671626091,-0.06021380424499512,-0.29648491740226746
1772697899495967700,6.6279677734375,0.03755989298224449,-0.03056057170033455,-0.338729590177536
1772697899506016800,6.638016845703125,0.035718582570552826,-0.005906624719500542,-0.3786889910697937
1772697899516064800,6.648064697265625,0.02683321200311184,0.02473890222609043,-0.42010700702667236
1772697899526113800,6.65811376953125,0.012136291712522507,0.06879264861345291,-0.45490172505378723
1772697899536162600,6.66816259765625,-0.015333415940403938,0.12221512198448181,-0.4839107394218445
1772697899546211800,6.6782119140625,-0.03815590590238571,0.1596623659133911,-0.49411678314208984
1772697899556259600,6.688259521484375,-0.05278491601347923,0.22757349908351898,-0.4962038993835449
1772697899566308900,6.698308837890625,-0.058406852185726166,0.27667927742004395,-0.48799124360084534
1772697899576357600,6.708357666015625,-0.046014897525310516,0.3072611391544342,-0.4695432484149933
1772697899586406700,6.71840673828125,-0.026022013276815414,0.3306546211242676,-0.4467487335205078
1772697899596454700,6.72845458984375,-0.004595817066729069,0.3405093848705292,-0.415799617767334
1772697899606503700,6.738503662109375,0.020955348387360573,0.3559415936470032,-0.37034502625465393
1772697899616552700,6.748552734375,0.04249206557869911,0.35707876086235046,-0.33654099702835083
1772697899626601700,6.758601806640625,0.059306200593709946,0.3435451090335846,-0.2946883738040924
1772697899636649700,6.768649658203125,0.07186327129602432,0.31984618306159973,-0.254972368478775
1772697899646698800,6.77869873046875,0.08626990765333176,0.2949988842010498,-0.21073193848133087
1772697899656747800,6.788747802734375,0.08857434242963791,0.2663919925689697,-0.17047612369060516
1772697899666796800,6.798796875,0.09195495396852493,0.24107572436332703,-0.13775573670864105
1772697899676844800,6.8088447265625,0.09795505553483963,0.22900761663913727,-0.11830693483352661
1772697899686893800,6.818893798828125,0.10823220014572144,0.21998056769371033,-0.11240803450345993
1772697899696942800,6.82894287109375,0.1282772719860077,0.22867551445960999,-0.10848892480134964
1772697899706991600,6.83899169921875,0.14805817604064941,0.2312084585428238,-0.1101459413766861
1772697899717039900,6.849039794921875,0.16810990869998932,0.22576628625392914,-0.10692112147808075
1772697899727088600,6.859088623046875,0.1851903647184372,0.20738594233989716,-0.09856439381837845
1772697899737138000,6.869137939453125,0.19878312945365906,0.19425097107887268,-0.09880034625530243
1772697899747186700,6.879186767578125,0.21565692126750946,0.1694023460149765,-0.09948424249887466
1772697899757234700,6.889234619140625,0.23301513493061066,0.13035747408866882,-0.10311466455459595
1772697899767283700,6.89928369140625,0.24933019280433655,0.09548444300889969,-0.10885724425315857
1772697899777332700,6.909332763671875,0.266441285610199,0.06936522573232651,-0.1082625538110733
1772697899787381800,6.9193818359375,0.28464505076408386,0.042401786893606186,-0.102979376912117
1772697899797429800,6.9294296875,0.2969190180301666,0.026969565078616142,-0.11033263057470322
1772697899807478800,6.939478759765625,0.309634804725647,0.01841709017753601,-0.12443247437477112
1772697899817527800,6.94952783203125,0.3309768736362457,0.006374276243150234,-0.1549978405237198
1772697899827576600,6.95957666015625,0.35240811109542847,-0.001829591696150601,-0.1910240203142166
1772697899837624800,6.969624755859375,0.36889761686325073,-0.011462511494755745,-0.22816206514835358
1772697899847673600,6.979673583984375,0.4096620976924896,-0.03117709420621395,-0.2680759131908417
1772697899857723000,6.989722900390625,0.4403936266899109,-0.036856286227703094,-0.3220033347606659
1772697899867771600,6.999771728515625,0.47815006971359253,-0.041979409754276276,-0.38037821650505066
1772697899877820000,7.00981982421875,0.5225321650505066,-0.056943442672491074,-0.4234149158000946
1772697899887868700,7.01986865234375,0.5595168471336365,-0.08248075842857361,-0.442442387342453
1772697899897917700,7.029917724609375,0.5907671451568604,-0.11298434436321259,-0.4523264467716217
1772697899907966700,7.039966796875,0.6176943778991699,-0.14921079576015472,-0.45215627551078796
1772697899918014700,7.0500146484375,0.6405531167984009,-0.17176802456378937,-0.4554799199104309
1772697899928063700,7.060063720703125,0.6570806503295898,-0.18257486820220947,-0.45072004199028015
1772697899938112800,7.07011279296875,0.6766961812973022,-0.2004779726266861,-0.4458925127983093
1772697899948161500,7.08016162109375,0.6749089360237122,-0.1640762835741043,-0.4470563232898712
1772697899958209800,7.090209716796875,0.6657857298851013,-0.12162869423627853,-0.42563384771347046
1772697899968258600,7.100258544921875,0.6445342302322388,-0.11778522282838821,-0.3956748843193054
1772697899978307800,7.110307861328125,0.5757562518119812,-0.15530090034008026,-0.35810914635658264
1772697899988356900,7.12035693359375,0.5024220943450928,-0.08202136307954788,-0.34395524859428406
1772697899998404900,7.13040478515625,0.4265049695968628,0.02732856012880802,-0.27786728739738464
1772697900008453600,7.14045361328125,0.3459278345108032,0.06748077273368835,-0.12896090745925903
1772697900018502700,7.150502685546875,0.3267157971858978,-0.04814169555902481,0.05341368913650513
1772697900028552000,7.160552001953125,0.30768778920173645,-0.1962059885263443,0.1755893975496292
1772697900038599700,7.170599609375,0.25319603085517883,-0.33180031180381775,0.25244608521461487
1772697900048649000,7.18064892578125,0.1808462142944336,-0.517864465713501,0.3243759572505951
1772697900058697700,7.19069775390625,0.11080694198608398,-0.7383264899253845,0.3850070834159851
1772697900068746800,7.200746826171875,0.06663654744625092,-0.9450339078903198,0.4062140882015228
1772697900078794800,7.210794677734375,0.04662662371993065,-1.0724469423294067,0.4127334952354431
1772697900088843800,7.22084375,0.05302540212869644,-1.0653722286224365,0.3869820833206177
1772697900098892800,7.230892822265625,0.11395639926195145,-0.8964123129844666,0.3200230002403259
1772697900108941800,7.24094189453125,0.16562198102474213,-0.574643075466156,0.22932985424995422
1772697900118989800,7.25098974609375,0.24173113703727722,-0.18343427777290344,0.07462257146835327
1772697900129038800,7.261038818359375,0.2991475462913513,0.10940771549940109,-0.03080558218061924
1772697900139087600,7.271087646484375,0.3332213759422302,0.270624041557312,-0.0897381380200386
1772697900149137000,7.281136962890625,0.30094945430755615,0.3219892084598541,-0.09177146852016449
1772697900159184600,7.2911845703125,0.2544559836387634,0.293937623500824,-0.042031604796648026
1772697900169234000,7.30123388671875,0.17684854567050934,0.22867844998836517,0.06843525171279907
1772697900179282700,7.31128271484375,0.11614923924207687,0.13015800714492798,0.20404021441936493
1772697900189331700,7.321331787109375,0.06767837703227997,0.022298380732536316,0.34170833230018616
1772697900199379700,7.331379638671875,0.04193466529250145,-0.07231999933719635,0.4231320917606354
1772697900209428700,7.3414287109375,0.0067780110985040665,-0.12095758318901062,0.4510771632194519
1772697900219477800,7.351477783203125,-0.007956460118293762,-0.14931891858577728,0.44415855407714844
1772697900229526800,7.36152685546875,-0.007953530177474022,-0.17368470132350922,0.4264011085033417
1772697900239574800,7.37157470703125,0.01660427637398243,-0.16075532138347626,0.3811902403831482
1772697900249623800,7.381623779296875,0.05903136357665062,-0.0996195375919342,0.3256992697715759
1772697900259672600,7.391672607421875,0.10209600627422333,-0.01836436055600643,0.26909884810447693
1772697900269721900,7.401721923828125,0.1489202380180359,0.035287950187921524,0.2345363348722458
1772697900279769600,7.41176953125,0.1823791265487671,0.059719257056713104,0.23444552719593048
1772697900289819000,7.42181884765625,0.20779554545879364,0.04947780445218086,0.2580464482307434
1772697900299867600,7.43186767578125,0.20987467467784882,0.03242558240890503,0.28049424290657043
1772697900309916700,7.441916748046875,0.2112744301557541,-0.007586014457046986,0.29075887799263
1772697900319965700,7.451965576171875,0.20440000295639038,-0.04125609248876572,0.27983883023262024
1772697900330013700,7.462013671875,0.1821913719177246,-0.06075282767415047,0.26147767901420593
1772697900340062700,7.472062744140625,0.15890389680862427,-0.07708626240491867,0.2458134889602661
1772697900350111700,7.48211181640625,0.13248880207538605,-0.09073469787836075,0.22813516855239868
1772697900360159700,7.49215966796875,0.09823255985975266,-0.0739850103855133,0.20267455279827118
1772697900370208800,7.502208740234375,0.06700806319713593,-0.05926678702235222,0.17883233726024628
1772697900380257500,7.512257568359375,0.05032682046294212,-0.057619355618953705,0.15658214688301086
1772697900390306800,7.522306884765625,0.021220333874225616,-0.038959383964538574,0.1565648466348648
1772697900400355800,7.53235595703125,-0.025736521929502487,-0.22199179232120514,0.4405941665172577
1772697900410403800,7.54240380859375,-0.05380677431821823,-0.3561890125274658,0.40930256247520447
1772697900420452900,7.552452880859375,-0.0433725081384182,-0.2909628748893738,0.33206823468208313
1772697900430501600,7.562501708984375,-0.0026043052785098553,-0.14836762845516205,0.23878487944602966
1772697900440551000,7.572551025390625,0.0029547770973294973,-0.045997317880392075,0.15084490180015564
1772697900450598700,7.5825986328125,-0.028130438178777695,0.03241546452045441,0.08375401794910431
1772697900460648000,7.59264794921875,-0.06699980795383453,0.08292897045612335,0.027161046862602234
1772697900470696700,7.60269677734375,-0.0870901569724083,0.08835196495056152,-0.0051683965139091015
1772697900480745700,7.612745849609375,-0.11050094664096832,0.12335069477558136,-0.030830882489681244
1772697900490793700,7.622793701171875,-0.12692706286907196,0.17333902418613434,-0.011553858406841755
1772697900500842800,7.6328427734375,-0.15219458937644958,0.1864878535270691,0.07317221164703369
1772697900510891800,7.642891845703125,-0.17677557468414307,0.06615585088729858,0.17311745882034302
1772697900520940800,7.65294091796875,-0.2050202637910843,-0.03418593481183052,0.2178705483675003
