time,seconds_elapsed,z,y,x
1772697892935391500,0.0673916015625,0.016140006482601166,0.048458319157361984,0.08446749299764633
1772697892945439500,0.077439453125,-0.00519617460668087,0.11405836790800095,0.10431469976902008
1772697892955488500,0.087488525390625,-0.021600252017378807,0.15848803520202637,0.14110015332698822
1772697892965537500,0.09753759765625,-0.04706805944442749,0.16916623711585999,0.17752793431282043
1772697892975586300,0.10758642578125,-0.055120799690485,0.16445820033550262,0.20591913163661957
1772697892985634600,0.117634521484375,-0.06610313802957535,0.15330035984516144,0.22069329023361206
1772697892995683300,0.127683349609375,-0.057665444910526276,0.14973096549510956,0.20712317526340485
1772697893005732600,0.137732666015625,-0.06207909435033798,0.1518937200307846,0.18428204953670502
1772697893015781600,0.14778173828125,-0.07242574542760849,0.1543174684047699,0.17218783497810364
1772697893025829600,0.15782958984375,-0.08115026354789734,0.14995215833187103,0.16563144326210022
1772697893035878700,0.167878662109375,-0.08635993301868439,0.14201685786247253,0.17103202641010284
1772697893045927400,0.177927490234375,-0.08936397731304169,0.14033719897270203,0.16257701814174652
1772697893055976700,0.187976806640625,-0.09127619862556458,0.12786483764648438,0.14538618922233582
1772697893066024400,0.1980244140625,-0.0848233550786972,0.11793845146894455,0.12192826718091965
1772697893076073700,0.20807373046875,-0.08787993341684341,0.1281643956899643,0.09313604980707169
1772697893086122500,0.21812255859375,-0.08300022780895233,0.14212122559547424,0.06865787506103516
1772697893096171500,0.228171630859375,-0.08829858154058456,0.1502603441476822,0.04696739837527275
1772697893106219500,0.238219482421875,-0.09516660869121552,0.1633114367723465,0.04262325167655945
1772697893116268500,0.2482685546875,-0.11666443943977356,0.17617343366146088,0.054567527025938034
1772697893126317600,0.258317626953125,-0.14603617787361145,0.18375465273857117,0.07849550247192383
1772697893136365600,0.268365478515625,-0.1669200360774994,0.19149670004844666,0.12072238326072693
1772697893146414600,0.27841455078125,-0.17479100823402405,0.19712209701538086,0.14210304617881775
1772697893156463600,0.288463623046875,-0.1696079671382904,0.18316775560379028,0.14372557401657104
1772697893166512400,0.298512451171875,-0.15576352179050446,0.1748989075422287,0.11021527647972107
1772697893176560600,0.308560546875,-0.1315273493528366,0.18046464025974274,0.07781387120485306
1772697893186609400,0.318609375,-0.10842416435480118,0.1940600723028183,0.05846813693642616
1772697893196658700,0.32865869140625,-0.09014908224344254,0.18722881376743317,0.0534883476793766
1772697893206707500,0.33870751953125,-0.08145519345998764,0.16716907918453217,0.06491836905479431
1772697893216755700,0.348755615234375,-0.08431901782751083,0.15792466700077057,0.07986755669116974
1772697893226804500,0.358804443359375,-0.09631789475679398,0.16411198675632477,0.09946149587631226
1772697893236853500,0.368853515625,-0.10156145691871643,0.16954421997070312,0.11348509788513184
1772697893246902800,0.37890283203125,-0.09859789162874222,0.14450517296791077,0.12063781917095184
1772697893256950500,0.388950439453125,-0.08688511699438095,0.10459547489881516,0.12705639004707336
1772697893266999600,0.39899951171875,-0.08817461878061295,0.0611201673746109,0.12728355824947357
1772697893277048600,0.409048583984375,-0.0889110416173935,0.02874746546149254,0.13804283738136292
1772697893287097600,0.41909765625,-0.08433147519826889,0.01715259440243244,0.1529565453529358
1772697893297145600,0.4291455078125,-0.07885747402906418,0.00550068961456418,0.16180123388767242
1772697893307194600,0.439194580078125,-0.07799967378377914,-0.01058267243206501,0.16881492733955383
1772697893317243600,0.44924365234375,-0.08750749379396439,-0.02410447783768177,0.1732666790485382
1772697893327292700,0.459292724609375,-0.08954587578773499,-0.02789841778576374,0.17922097444534302
1772697893337340700,0.469340576171875,-0.08910518884658813,-0.03339938074350357,0.1780685931444168
1772697893347389700,0.4793896484375,-0.08226432651281357,-0.02876228466629982,0.17978979647159576
1772697893357438500,0.4894384765625,-0.07316550612449646,-0.02004331722855568,0.1812635213136673
1772697893367487700,0.49948779296875,-0.07119397073984146,-0.006315519567579031,0.17902593314647675
1772697893377535500,0.509535400390625,-0.07601688802242279,-0.010374623350799084,0.17159125208854675
1772697893387584800,0.519584716796875,-0.0844162330031395,-0.008160204626619816,0.16235488653182983
1772697893397633500,0.529633544921875,-0.10170640051364899,-0.006669801659882069,0.1638689935207367
1772697893407682600,0.5396826171875,-0.1153271421790123,-0.010436576791107655,0.1678813248872757
1772697893417730600,0.54973046875,-0.12648378312587738,-0.019450532272458076,0.17814187705516815
1772697893427779600,0.559779541015625,-0.1293482929468155,-0.012297015637159348,0.18995246291160583
1772697893437828600,0.56982861328125,-0.12434446811676025,-0.005402624141424894,0.19273041188716888
1772697893447877600,0.579877685546875,-0.1206197738647461,0.0061227381229400635,0.202884241938591
1772697893457925600,0.589925537109375,-0.1224578246474266,0.0019939588382840157,0.21077901124954224
1772697893467974700,0.599974609375,-0.13181032240390778,-0.007195012643933296,0.21502356231212616
1772697893478023400,0.6100234375,-0.13081209361553192,-0.02842293679714203,0.22399932146072388
1772697893488072700,0.62007275390625,-0.14755405485630035,-0.04635932669043541,0.21384549140930176
1772697893498120400,0.630120361328125,-0.17110444605350494,-0.0548027902841568,0.20775489509105682
1772697893508169700,0.640169677734375,-0.20050440728664398,-0.06354434788227081,0.20412607491016388
1772697893518218500,0.650218505859375,-0.2260330766439438,-0.06817196309566498,0.19254812598228455
1772697893528267500,0.660267578125,-0.24083545804023743,-0.06591813266277313,0.18304570019245148
1772697893538315500,0.6703154296875,-0.24742598831653595,-0.059422001242637634,0.16533200442790985
1772697893548364500,0.680364501953125,-0.24662171304225922,-0.04511656239628792,0.1391960084438324
1772697893558413600,0.69041357421875,-0.25211861729621887,-0.03901530057191849,0.09995946288108826
1772697893568462600,0.700462646484375,-0.24632756412029266,-0.019695401191711426,0.052826836705207825
1772697893578510600,0.710510498046875,-0.24521462619304657,0.012868134304881096,-0.009222154505550861
1772697893588559600,0.7205595703125,-0.24271684885025024,0.049319349229335785,-0.06903249025344849
1772697893598608400,0.7306083984375,-0.2419888824224472,0.08405143022537231,-0.12116362899541855
1772697893608657700,0.74065771484375,-0.24181364476680756,0.10593622177839279,-0.15973712503910065
1772697893618705400,0.750705322265625,-0.23954756557941437,0.12702403962612152,-0.19239017367362976
1772697893628754700,0.760754638671875,-0.23482923209667206,0.15275152027606964,-0.21530987322330475
1772697893638803500,0.770803466796875,-0.23175321519374847,0.17056122422218323,-0.22685115039348602
1772697893648852500,0.7808525390625,-0.22520823776721954,0.17418551445007324,-0.22503593564033508
1772697893658900500,0.790900390625,-0.22046972811222076,0.1738814413547516,-0.20260335505008698
1772697893668949500,0.800949462890625,-0.21425524353981018,0.1909690797328949,-0.1793598234653473
1772697893678998800,0.810998779296875,-0.2062653750181198,0.1920762062072754,-0.16401049494743347
1772697893689047600,0.821047607421875,-0.20977889001369476,0.2015964835882187,-0.14844325184822083
1772697893699095600,0.831095458984375,-0.21795791387557983,0.20783571898937225,-0.14070096611976624
1772697893709144600,0.84114453125,-0.23071764409542084,0.20593182742595673,-0.1346963346004486
1772697893719193600,0.851193603515625,-0.2424105852842331,0.19759412109851837,-0.15437015891075134
1772697893729241600,0.86124169921875,-0.23807628452777863,0.18487992882728577,-0.17000211775302887
1772697893739290400,0.871290283203125,-0.2440570890903473,0.18517480790615082,-0.19678445160388947
1772697893749339600,0.881339599609375,-0.2508814334869385,0.17573124170303345,-0.20373529195785522
1772697893759388700,0.891388671875,-0.254486620426178,0.17224523425102234,-0.20543095469474792
1772697893769437400,0.9014375,-0.2530442476272583,0.17718912661075592,-0.20100292563438416
1772697893779485700,0.911485595703125,-0.25325021147727966,0.19243718683719635,-0.19027036428451538
1772697893789534500,0.921534423828125,-0.2625217139720917,0.19746895134449005,-0.18547801673412323
1772697893799583700,0.931583740234375,-0.2696358263492584,0.20617231726646423,-0.1866271197795868
1772697893809632500,0.941632568359375,-0.27464815974235535,0.21308057010173798,-0.18709024786949158
1772697893819680800,0.9516806640625,-0.2823910117149353,0.212849959731102,-0.17887111008167267
1772697893829729500,0.9617294921875,-0.2872166633605957,0.2079090029001236,-0.16540668904781342
1772697893839778600,0.971778564453125,-0.29810768365859985,0.2069232165813446,-0.12314557284116745
1772697893849826600,0.98182666015625,-0.3290408253669739,0.19934572279453278,-0.06719549000263214
1772697893859875600,0.99187548828125,-0.3584437370300293,0.15361803770065308,-0.006519939284771681
1772697893869924600,1.001924560546875,-0.3781047761440277,0.10445234924554825,0.04558267816901207
1772697893879973600,1.0119736328125,-0.39806854724884033,0.0857747420668602,0.09369564056396484
1772697893890021600,1.022021728515625,-0.4069925546646118,0.06757442653179169,0.1234159842133522
1772697893900070700,1.032070556640625,-0.3995512127876282,0.07594237476587296,0.1395052671432495
1772697893910119400,1.042119384765625,-0.3906274735927582,0.10161977261304855,0.14571575820446014
1772697893920168700,1.052168701171875,-0.39187824726104736,0.13891996443271637,0.1398332566022873
1772697893930216400,1.062216552734375,-0.38666537404060364,0.1869274377822876,0.1263219714164734
1772697893940265700,1.072265625,-0.38521841168403625,0.25178900361061096,0.0815187618136406
1772697893950314500,1.082314453125,-0.38149210810661316,0.28888577222824097,0.038096457719802856
1772697893960363500,1.092363525390625,-0.3642997443675995,0.3049304485321045,-0.015480191446840763
1772697893970411500,1.10241162109375,-0.3529925048351288,0.3037740886211395,-0.07715979963541031
1772697893980460500,1.11246044921875,-0.34252840280532837,0.2970115840435028,-0.1318487823009491
1772697893990509600,1.122509521484375,-0.3281201720237732,0.2720707952976227,-0.16007563471794128
1772697894000558600,1.13255859375,-0.31007087230682373,0.23277954757213593,-0.15730257332324982
1772697894010606600,1.142606689453125,-0.2881684899330139,0.18294194340705872,-0.13457222282886505
1772697894020655400,1.1526552734375,-0.26803117990493774,0.12845830619335175,-0.10591164976358414
1772697894030704400,1.162704345703125,-0.250074565410614,0.07856158912181854,-0.07167192548513412
1772697894040753700,1.172753662109375,-0.23229676485061646,0.061807695776224136,-0.043669383972883224
1772697894050801400,1.182801513671875,-0.21921585500240326,0.06674253195524216,-0.02269965410232544
1772697894060850700,1.1928505859375,-0.20237916707992554,0.07365185767412186,-0.0027953977696597576
1772697894070899500,1.2028994140625,-0.19453482329845428,0.05646568164229393,0.017505347728729248
1772697894080948500,1.212948486328125,-0.18586628139019012,0.01709761656820774,0.03557265177369118
1772697894090996500,1.22299658203125,-0.18240045011043549,-0.003967456053942442,0.03650768846273422
1772697894101045500,1.23304541015625,-0.17730629444122314,-0.0015277722850441933,0.019831093028187752
1772697894111094500,1.243094482421875,-0.16903451085090637,0.010472696274518967,-0.01833014190196991
1772697894121143600,1.2531435546875,-0.1591302752494812,0.02607998438179493,-0.052281271666288376
1772697894131191600,1.263191650390625,-0.15060949325561523,0.029087228700518608,-0.0696253702044487
1772697894141240600,1.273240478515625,-0.1331281065940857,0.024186039343476295,-0.06753946840763092
1772697894151289300,1.283289306640625,-0.11804609000682831,0.01825038716197014,-0.05900697037577629
1772697894161338600,1.293338623046875,-0.1051970049738884,0.011959394440054893,-0.04985717311501503
1772697894171386400,1.303386474609375,-0.10565906763076782,0.02168818935751915,-0.040737710893154144
1772697894181435600,1.313435546875,-0.11072859168052673,0.012736497446894646,-0.021447952836751938
1772697894191484400,1.323484375,-0.10539428144693375,-0.011282019317150116,-0.00032615516101941466
1772697894201533400,1.333533447265625,-0.10196812450885773,-0.029767848551273346,0.01724901609122753
1772697894211581400,1.34358154296875,-0.10469919443130493,-0.028634140267968178,0.039344463497400284
1772697894221630500,1.35363037109375,-0.09773190319538116,-0.05226023122668266,0.05546884983778
1772697894231679500,1.363679443359375,-0.09783097356557846,-0.05635803937911987,0.07706043124198914
1772697894241728500,1.373728515625,-0.09711611270904541,-0.06666979193687439,0.1096239984035492
1772697894251776500,1.383776611328125,-0.11032219976186752,-0.0750877857208252,0.1332763433456421
1772697894261825500,1.393825439453125,-0.12594188749790192,-0.0836678296327591,0.16414445638656616
1772697894271874300,1.403874267578125,-0.13353003561496735,-0.09297104924917221,0.1933220475912094
1772697894281923600,1.413923583984375,-0.13050542771816254,-0.1094597801566124,0.21486473083496094
1772697894291971300,1.423971435546875,-0.12401451170444489,-0.12008313089609146,0.22521618008613586
1772697894302020600,1.4340205078125,-0.11317097395658493,-0.1306455433368683,0.21961557865142822
1772697894312069400,1.4440693359375,-0.10374871641397476,-0.132309228181839,0.2021481841802597
1772697894322118400,1.454118408203125,-0.08822202682495117,-0.13370972871780396,0.18329578638076782
1772697894332166400,1.46416650390625,-0.08094120770692825,-0.14863409101963043,0.1642424762248993
1772697894342215400,1.47421533203125,-0.07170236855745316,-0.17763705551624298,0.14464937150478363
1772697894352264400,1.484264404296875,-0.07139769941568375,-0.1962895691394806,0.1392143815755844
1772697894362313500,1.4943134765625,-0.08087935298681259,-0.22555455565452576,0.1374003291130066
1772697894372361500,1.504361572265625,-0.09137700498104095,-0.260732501745224,0.1363968551158905
1772697894382410500,1.514410400390625,-0.09172527492046356,-0.28445377945899963,0.1326669603586197
1772697894392459500,1.52445947265625,-0.08656380325555801,-0.3109288215637207,0.12005475163459778
1772697894402508500,1.534508544921875,-0.07727016508579254,-0.320056289434433,0.11029790341854095
1772697894412556300,1.544556396484375,-0.06142329424619675,-0.31156399846076965,0.0931687206029892
1772697894422605600,1.55460546875,-0.0499093197286129,-0.2926756739616394,0.06956768780946732
1772697894432654600,1.564654541015625,-0.04395715147256851,-0.2681000232696533,0.040736302733421326
1772697894442703400,1.574703369140625,-0.02755880542099476,-0.25330206751823425,0.02410593442618847
1772697894452751400,1.58475146484375,-0.02227296493947506,-0.2356753796339035,0.011573097668588161
1772697894462800400,1.59480029296875,-0.03579050302505493,-0.2315709888935089,0.00822574831545353
1772697894472849700,1.604849609375,-0.04752865061163902,-0.24043264985084534,0.007880602963268757
1772697894482898400,1.6148984375,-0.0663781687617302,-0.2703687250614166,0.013163288123905659
1772697894492946700,1.62494677734375,-0.06722745299339294,-0.2840118110179901,0.02114025503396988
1772697894502995500,1.634995361328125,-0.07129190117120743,-0.28979238867759705,0.01905081234872341
1772697894513044500,1.64504443359375,-0.06290187686681747,-0.2691954970359802,0.027984919026494026
1772697894523093500,1.655093505859375,-0.04948900267481804,-0.2598010003566742,0.03769354522228241
1772697894533141500,1.6651416015625,-0.034961994737386703,-0.2522605061531067,0.03426845371723175
1772697894543190500,1.6751904296875,-0.01586180552840233,-0.23006956279277802,0.041458237916231155
1772697894553239600,1.685239501953125,0.0013755052350461483,-0.22467640042304993,0.05713333934545517
1772697894563288600,1.69528857421875,-0.003768390277400613,-0.2666371464729309,0.07558371871709824
1772697894573336600,1.705336669921875,-0.025458240881562233,-0.2985548675060272,0.0923328697681427
1772697894583385300,1.71538525390625,-0.043305009603500366,-0.3187756836414337,0.10140698403120041
1772697894593434600,1.7254345703125,-0.050817519426345825,-0.3422818183898926,0.09491925686597824
1772697894603483400,1.7354833984375,-0.04507941007614136,-0.34811773896217346,0.08052104711532593
1772697894613531600,1.74553173828125,-0.027863938361406326,-0.3540233075618744,0.06068182736635208
1772697894623580400,1.755580322265625,-0.014409846626222134,-0.31738266348838806,0.027978019788861275
1772697894633629400,1.76562939453125,-0.0006993605056777596,-0.2468629628419876,-0.015202208422124386
1772697894643677400,1.775677490234375,0.005458333995193243,-0.1798158586025238,-0.05408293008804321
1772697894653726500,1.7857265625,0.002656422322615981,-0.11590106040239334,-0.07955233752727509
1772697894663775500,1.795775390625,-0.012350031174719334,-0.07833877205848694,-0.10124221444129944
1772697894673824500,1.805824462890625,-0.028517015278339386,-0.07310779392719269,-0.10462523251771927
1772697894683872500,1.81587255859375,-0.038344141095876694,-0.06544316560029984,-0.12273423373699188
1772697894693921500,1.825921630859375,-0.031033765524625778,-0.07415010780096054,-0.15775319933891296
1772697894703970600,1.835970458984375,-0.01937471330165863,-0.06166929379105568,-0.20387129485607147
1772697894714019600,1.84601953125,-0.00700086634606123,-0.04781286418437958,-0.24572260677814484
1772697894724067300,1.8560673828125,0.010112008079886436,-0.03433874249458313,-0.28769028186798096
1772697894734116600,1.86611669921875,0.018413079902529716,-0.028882721439003944,-0.31866365671157837
1772697894744165400,1.876165283203125,0.03956843167543411,-0.038461312651634216,-0.3385319113731384
1772697894754214400,1.88621435546875,0.05163947492837906,-0.04105816036462784,-0.33702534437179565
1772697894764262400,1.896262451171875,0.06369494646787643,-0.0550275519490242,-0.3395582139492035
1772697894774311400,1.9063115234375,0.08013969659805298,-0.06293794512748718,-0.3234708309173584
1772697894784360400,1.9163603515625,0.09906598180532455,-0.066283218562603,-0.29719996452331543
1772697894794409500,1.926409423828125,0.12029403448104858,-0.06472846120595932,-0.2760874927043915
1772697894804457500,1.93645751953125,0.14111196994781494,-0.05219756066799164,-0.25255918502807617
1772697894814506500,1.946506591796875,0.16598349809646606,-0.05913775786757469,-0.2303212434053421
1772697894824555500,1.956555419921875,0.17955909669399261,-0.0838390365242958,-0.20079289376735687
1772697894834604500,1.9666044921875,0.19021733105182648,-0.10026168823242188,-0.17695413529872894
1772697894844652300,1.97665234375,0.19257736206054688,-0.10037586838006973,-0.15957437455654144
1772697894854701600,1.98670166015625,0.19689834117889404,-0.09825918823480606,-0.14881253242492676
1772697894864750600,1.99675048828125,0.1997203528881073,-0.0840744599699974,-0.13833488523960114
1772697894874799600,2.006799560546875,0.20444107055664062,-0.06401447206735611,-0.13614709675312042
1772697894884847400,2.016847412109375,0.2187441885471344,-0.051153186708688736,-0.12628187239170074
1772697894894896400,2.026896484375,0.23863905668258667,-0.04076392948627472,-0.12003223598003387
1772697894904945700,2.036945556640625,0.2617102861404419,-0.03168906271457672,-0.11461186408996582
1772697894914994400,2.046994384765625,0.2743432819843292,-0.022431112825870514,-0.11376257985830307
1772697894925042700,2.057042724609375,0.2853511571884155,0.0056064738892018795,-0.1326804906129837
1772697894935091500,2.067091552734375,0.2979303300380707,0.03059438057243824,-0.15076175332069397
1772697894945140500,2.077140380859375,0.30930471420288086,0.048069920390844345,-0.18475909531116486
1772697894955189500,2.087189453125,0.32689541578292847,0.04980097711086273,-0.21437424421310425
1772697894965237500,2.097237548828125,0.34602105617523193,0.033998239785432816,-0.24015098810195923
1772697894975286500,2.10728662109375,0.35888439416885376,-0.0015056929551064968,-0.2605406939983368
1772697894985335600,2.11733544921875,0.3641906678676605,-0.040304917842149734,-0.2846829891204834
1772697894995384600,2.127384521484375,0.3667140007019043,-0.07515797019004822,-0.29232892394065857
1772697895005432000,2.13743212890625,0.36730310320854187,-0.10720862448215485,-0.2768664062023163
1772697895015481300,2.1474814453125,0.36561837792396545,-0.14156712591648102,-0.2524697184562683
1772697895025530400,2.1575302734375,0.37454092502593994,-0.15872301161289215,-0.21050819754600525
1772697895035579100,2.1675791015625,0.3868388533592224,-0.17809166014194489,-0.17738406360149384
1772697895045627100,2.177627197265625,0.399411141872406,-0.17892315983772278,-0.1583014279603958
1772697895055676200,2.18767626953125,0.42476099729537964,-0.20273926854133606,-0.13249726593494415
1772697895065725400,2.197725341796875,0.4341427683830261,-0.20505806803703308,-0.12650585174560547
1772697895075774200,2.207774169921875,0.44820159673690796,-0.2155836820602417,-0.12546002864837646
1772697895085822200,2.217822265625,0.4617050886154175,-0.22854620218276978,-0.13534238934516907
1772697895095871200,2.227871337890625,0.47528642416000366,-0.22362281382083893,-0.1550457924604416
1772697895105920300,2.237920166015625,0.4894208610057831,-0.20955996215343475,-0.1786263883113861
1772697895115969300,2.24796923828125,0.5059719085693359,-0.20897085964679718,-0.20004086196422577
1772697895126017300,2.258017333984375,0.5143972039222717,-0.1886254847049713,-0.22649149596691132
1772697895136066300,2.26806640625,0.518192708492279,-0.1435735821723938,-0.25048524141311646
1772697895146115300,2.278115234375,0.5232802629470825,-0.09818198531866074,-0.2763776183128357
1772697895156164000,2.2881640625,0.5185619592666626,-0.05658714100718498,-0.3060143291950226
1772697895166212400,2.29821240234375,0.5175310373306274,0.002411311026662588,-0.3360651731491089
1772697895176261000,2.30826123046875,0.5139948725700378,0.050184428691864014,-0.3942248821258545
1772697895186310400,2.318310302734375,0.49456316232681274,0.1363537758588791,-0.46581658720970154
1772697895196359200,2.328359130859375,0.4599894881248474,0.22533904016017914,-0.5426536202430725
1772697895206407400,2.338407470703125,0.4159563183784485,0.2974621653556824,-0.6022122502326965
1772697895216456200,2.348456298828125,0.38105133175849915,0.2972336709499359,-0.6391366720199585
1772697895226505200,2.358505126953125,0.34110376238822937,0.23806260526180267,-0.6460661292076111
1772697895236553200,2.36855322265625,0.29797786474227905,0.19735325872898102,-0.6447463035583496
1772697895246602200,2.378602294921875,0.25528934597969055,0.18889249861240387,-0.6321547031402588
1772697895256651300,2.3886513671875,0.20904727280139923,0.16055646538734436,-0.6200269460678101
1772697895266700300,2.3987001953125,0.16697946190834045,0.13508394360542297,-0.5985220074653625
1772697895276749000,2.4087490234375,0.12297923862934113,0.10459236055612564,-0.5598744750022888
1772697895286797300,2.41879736328125,0.07829205691814423,0.051771972328424454,-0.5235390663146973
1772697895296846000,2.42884619140625,0.06142066791653633,-0.04008790850639343,-0.48143288493156433
1772697895306895400,2.438895263671875,0.0599796324968338,-0.14764860272407532,-0.4485468864440918
1772697895316943000,2.448943115234375,0.07187384366989136,-0.2413681596517563,-0.39658036828041077
1772697895326992400,2.458992431640625,0.07893441617488861,-0.3181286156177521,-0.32026487588882446
1772697895337041200,2.469041259765625,0.08914551138877869,-0.3588901460170746,-0.22427333891391754
1772697895347090200,2.479090087890625,0.08594131469726562,-0.34022951126098633,-0.13405004143714905
1772697895357138200,2.48913818359375,0.07367666065692902,-0.25364935398101807,-0.04416168853640556
1772697895367187200,2.499187255859375,0.026383589953184128,-0.1339530199766159,0.03807176277041435
1772697895377236200,2.509236328125,-0.01527703832834959,-0.0012170909903943539,0.07434321939945221
1772697895387285200,2.51928515625,-0.03394633159041405,0.1253332793712616,0.09155767410993576
1772697895397333200,2.529333251953125,-0.053250253200531006,0.18283943831920624,0.11005465686321259
1772697895407382300,2.53938232421875,-0.06918421387672424,0.252804160118103,0.11694905161857605
1772697895417431000,2.54943115234375,-0.09592874348163605,0.2746434211730957,0.16492483019828796
1772697895427480300,2.559480224609375,-0.10872070491313934,0.26579827070236206,0.23785069584846497
1772697895437528000,2.569528076171875,-0.11305046826601028,0.21256858110427856,0.3345538079738617
1772697895447577300,2.579577392578125,-0.11549185961484909,0.1358228474855423,0.4227677285671234
1772697895457626000,2.589626220703125,-0.10563389956951141,0.0586596317589283,0.47851940989494324
1772697895467675100,2.599675048828125,-0.09107978641986847,0.0012763836421072483,0.5098057985305786
1772697895477723100,2.60972314453125,-0.06217197701334953,-0.03682253137230873,0.5063892006874084
1772697895487772200,2.619772216796875,-0.035754479467868805,-0.057078562676906586,0.488249808549881
1772697895497821400,2.629821533203125,-0.005128929857164621,-0.07515476644039154,0.4699171483516693
1772697895507870200,2.6398701171875,0.01892487332224846,-0.11662611365318298,0.4510747194290161
1772697895517918200,2.649918212890625,0.035868968814611435,-0.15827849507331848,0.4412252902984619
1772697895527967200,2.65996728515625,0.04935701563954353,-0.20470492541790009,0.4322541058063507
1772697895538016300,2.670016357421875,0.07267192751169205,-0.25356781482696533,0.41679471731185913
1772697895548065300,2.680065185546875,0.08319678902626038,-0.29698070883750916,0.39467066526412964
1772697895558113300,2.69011328125,0.105305016040802,-0.314180463552475,0.3686438500881195
1772697895568162300,2.700162353515625,0.12358403950929642,-0.3262534439563751,0.343385249376297
1772697895578211300,2.71021142578125,0.1460869461297989,-0.30937591195106506,0.3150811791419983
1772697895588260000,2.720260009765625,0.1641184240579605,-0.28422850370407104,0.2951122522354126
1772697895598308400,2.730308349609375,0.17561981081962585,-0.24659211933612823,0.28317004442214966
1772697895608357000,2.740357177734375,0.17918112874031067,-0.20483729243278503,0.2736699879169464
1772697895618406400,2.750406494140625,0.18123602867126465,-0.15661676228046417,0.2627963125705719
1772697895628455200,2.760455078125,0.1796208769083023,-0.12001629918813705,0.2448102831840515
1772697895638503400,2.77050341796875,0.18035484850406647,-0.08767407387495041,0.213858500123024
1772697895648552200,2.78055224609375,0.17601488530635834,-0.07103604078292847,0.17605939507484436
1772697895658601200,2.790601318359375,0.16567303240299225,-0.053822167217731476,0.1303289234638214
1772697895668650200,2.800650146484375,0.15892119705677032,-0.062436092644929886,0.09115815162658691
1772697895678698200,2.8106982421875,0.14808478951454163,-0.0918019711971283,0.048864223062992096
1772697895688747300,2.820747314453125,0.13742023706436157,-0.12901078164577484,0.010580021888017654
1772697895698796300,2.83079638671875,0.12475237250328064,-0.15820328891277313,-0.04157638922333717
1772697895708845000,2.840844970703125,0.1195010170340538,-0.1724667251110077,-0.07810672372579575
1772697895718893300,2.850893310546875,0.11874014884233475,-0.1661614179611206,-0.1116124838590622
1772697895728942000,2.860942138671875,0.10951482504606247,-0.1395084708929062,-0.13505344092845917
1772697895738991400,2.870991455078125,0.0968799889087677,-0.10485833883285522,-0.1505780667066574
1772697895749040000,2.8810400390625,0.08458684384822845,-0.07297591865062714,-0.14900818467140198
1772697895759088400,2.89108837890625,0.06904570013284683,-0.04641274735331535,-0.1271209865808487
1772697895769137200,2.90113720703125,0.0555371455848217,-0.021863741800189018,-0.10184551775455475
1772697895779186200,2.911186279296875,0.034680865705013275,0.008010266348719597,-0.07543495297431946
1772697895789235200,2.921235107421875,0.01802765391767025,0.03571654483675957,-0.04718805477023125
1772697895799283200,2.931283203125,-0.003464587964117527,0.05533658713102341,-0.012076138518750668
1772697895809332200,2.941332275390625,-0.027309531345963478,0.06501229852437973,0.030864860862493515
1772697895819381200,2.95138134765625,-0.046919986605644226,0.05477404594421387,0.0758720189332962
1772697895829430000,2.961429931640625,-0.06521403789520264,0.04132667928934097,0.11506469547748566
1772697895839478300,2.971478271484375,-0.07729386538267136,0.03903502970933914,0.14645271003246307
1772697895849527000,2.981527099609375,-0.08442328870296478,0.02243885211646557,0.18308860063552856
1772697895859576300,2.991576416015625,-0.0962115079164505,-0.0059845345094799995,0.22828377783298492
1772697895869625300,3.001625244140625,-0.11174312233924866,-0.033183131366968155,0.28406959772109985
1772697895879673300,3.01167333984375,-0.1257108747959137,-0.05329292640089989,0.3381701111793518
1772697895889722000,3.02172216796875,-0.14867344498634338,-0.054035529494285583,0.38382047414779663
1772697895899771100,3.031771240234375,-0.17451542615890503,-0.04636748880147934,0.428625226020813
1772697895909820400,3.0418203125,-0.19331176578998566,-0.062367264181375504,0.48787885904312134
1772697895919868200,3.0518681640625,-0.21066172420978546,-0.07265212386846542,0.5497917532920837
1772697895929917400,3.06191748046875,-0.2381899505853653,-0.08620338886976242,0.6133645176887512
1772697895939966200,3.07196630859375,-0.2723281979560852,-0.11373088508844376,0.6696951389312744
1772697895950014200,3.08201416015625,-0.30121052265167236,-0.14018985629081726,0.7092393040657043
1772697895960063200,3.092063232421875,-0.3279273509979248,-0.16898980736732483,0.7335448861122131
1772697895970112300,3.1021123046875,-0.3522438704967499,-0.16182966530323029,0.7410029768943787
1772697895980161300,3.112161376953125,-0.3758341670036316,-0.12974177300930023,0.7238572835922241
1772697895990209000,3.122208984375,-0.40018385648727417,-0.08521228283643723,0.6922542452812195
1772697896000258300,3.13225830078125,-0.4095933139324188,-0.03557495400309563,0.6438819169998169
1772697896010307300,3.142307373046875,-0.4252352714538574,0.02092602662742138,0.5711609721183777
1772697896020356400,3.1523564453125,-0.43076586723327637,0.07191730290651321,0.4894530773162842
1772697896030404400,3.162404296875,-0.4287886619567871,0.11543889343738556,0.40439972281455994
1772697896040453400,3.172453369140625,-0.4192422926425934,0.14696753025054932,0.3253515064716339
1772697896050502400,3.18250244140625,-0.41046950221061707,0.18748274445533752,0.2566553056240082
1772697896060551400,3.192551513671875,-0.40256285667419434,0.2151913344860077,0.20837539434432983
1772697896070599400,3.202599365234375,-0.3900734782218933,0.22580909729003906,0.18577559292316437
1772697896080648400,3.2126484375,-0.3776029646396637,0.23269151151180267,0.17642416059970856
1772697896090697200,3.222697265625,-0.37371766567230225,0.23885850608348846,0.18847084045410156
1772697896100746500,3.23274658203125,-0.3769763112068176,0.23840177059173584,0.22024928033351898
1772697896110794200,3.242794189453125,-0.3840161859989166,0.22816218435764313,0.2714155912399292
1772697896120843500,3.252843505859375,-0.4030514061450958,0.21002046763896942,0.3279547691345215
1772697896130892300,3.262892333984375,-0.4229123890399933,0.19765469431877136,0.3817613422870636
1772697896140941300,3.27294140625,-0.4385696351528168,0.18603292107582092,0.42563000321388245
1772697896150989300,3.2829892578125,-0.450149267911911,0.17433486878871918,0.45928436517715454
1772697896161038300,3.293038330078125,-0.4571440815925598,0.15676626563072205,0.4867388904094696
1772697896171087400,3.30308740234375,-0.4624514877796173,0.14454181492328644,0.5051043033599854
1772697896181136400,3.313136474609375,-0.46619054675102234,0.13282497227191925,0.5209040641784668
1772697896191184400,3.323184326171875,-0.4688241481781006,0.13522562384605408,0.5239090323448181
1772697896201233400,3.3332333984375,-0.46729177236557007,0.1401149183511734,0.518526017665863
1772697896211282200,3.3432822265625,-0.46848300099372864,0.14999011158943176,0.5137702226638794
1772697896221331500,3.35333154296875,-0.4742639362812042,0.1403561234474182,0.5009473562240601
1772697896231379200,3.363379150390625,-0.4783560037612915,0.12718725204467773,0.4887029230594635
1772697896241428500,3.373428466796875,-0.47536447644233704,0.12245587259531021,0.46194988489151
1772697896251477200,3.383477294921875,-0.4757592976093292,0.12180943042039871,0.441923588514328
1772697896261526300,3.3935263671875,-0.4759022891521454,0.1062600314617157,0.42257121205329895
1772697896271574300,3.40357421875,-0.46821486949920654,0.09159974753856659,0.39889606833457947
1772697896281623300,3.413623291015625,-0.4606408476829529,0.08841167390346527,0.3756900727748871
1772697896291672300,3.42367236328125,-0.44814836978912354,0.11389583349227905,0.3546997010707855
1772697896301721300,3.433721435546875,-0.4390645921230316,0.1210261806845665,0.3376370966434479
1772697896311769300,3.443769287109375,-0.4328424632549286,0.138280987739563,0.3190734386444092
1772697896321818400,3.453818359375,-0.42841121554374695,0.1560932844877243,0.30136075615882874
1772697896331867400,3.463867431640625,-0.42976731061935425,0.17355577647686005,0.2714974582195282
1772697896341916400,3.47391650390625,-0.42892706394195557,0.1713261902332306,0.23304328322410583
1772697896351964200,3.483964111328125,-0.4360447824001312,0.16117341816425323,0.21366995573043823
1772697896362013400,3.494013427734375,-0.44039133191108704,0.12397199124097824,0.196802020072937
1772697896372062500,3.5040625,-0.44837042689323425,0.08636800944805145,0.17363886535167694
1772697896382111200,3.514111328125,-0.45109617710113525,0.09028179198503494,0.1458360105752945
1772697896392159500,3.524159423828125,-0.45744580030441284,0.10669184476137161,0.11275605112314224
1772697896402208300,3.534208251953125,-0.47002363204956055,0.10864580422639847,0.08391454815864563
1772697896412257500,3.544257568359375,-0.4786921739578247,0.09704563766717911,0.06701283901929855
1772697896422306300,3.554306396484375,-0.48329171538352966,0.0834914818406105,0.045126985758543015
1772697896432354600,3.5643544921875,-0.4873027503490448,0.07762373983860016,0.024609507992863655
1772697896442403300,3.5744033203125,-0.49213266372680664,0.0788450688123703,0.011658022180199623
1772697896452452400,3.584452392578125,-0.4985004961490631,0.09848172217607498,0.0033738957718014717
1772697896462501400,3.59450146484375,-0.48461636900901794,0.14989058673381805,-0.02049681730568409
1772697896472549400,3.60454931640625,-0.48004525899887085,0.19455347955226898,-0.025823863223195076
1772697896482598400,3.614598388671875,-0.46924692392349243,0.2524647116661072,-0.023175882175564766
1772697896492647400,3.6246474609375,-0.44410938024520874,0.39108210802078247,-0.02065258100628853
1772697896502696200,3.6346962890625,-0.44030582904815674,0.6180359125137329,-0.06645389646291733
1772697896512744400,3.644744384765625,-0.44753625988960266,0.7423016428947449,-0.11633335053920746
1772697896522793200,3.654793212890625,-0.463352233171463,0.6156230568885803,-0.146979421377182
1772697896532842500,3.664842529296875,-0.47286251187324524,0.3266701102256775,-0.13540565967559814
1772697896542891300,3.674891357421875,-0.45402276515960693,0.09533091634511948,-0.07761239260435104
1772697896552939500,3.684939453125,-0.4416792690753937,-0.043031346052885056,-0.005518179852515459
1772697896562988300,3.69498828125,-0.4329664707183838,-0.06839369237422943,0.08154775202274323
1772697896573037300,3.705037353515625,-0.4261210858821869,-0.0642872154712677,0.16562804579734802
1772697896583086300,3.71508642578125,-0.41107767820358276,-0.06341103464365005,0.2528412640094757
1772697896593134300,3.72513427734375,-0.3721633851528168,-0.05684215947985649,0.31719139218330383
1772697896603183400,3.735183349609375,-0.3374491035938263,-0.051922235637903214,0.3340928852558136
1772697896613232400,3.745232421875,-0.3092193901538849,-0.018773069605231285,0.3116145431995392
1772697896623281200,3.75528125,-0.28502190113067627,0.014641344547271729,0.2769516408443451
1772697896633329400,3.765329345703125,-0.2703295648097992,0.07778359949588776,0.23002447187900543
1772697896643378200,3.775378173828125,-0.24850229918956757,0.16111470758914948,0.1797197461128235
1772697896653427500,3.785427490234375,-0.21525666117668152,0.28749555349349976,0.12049553543329239
1772697896663476200,3.795476318359375,-0.17793166637420654,0.4022413194179535,0.06440456956624985
1772697896673524500,3.8055244140625,-0.14306709170341492,0.4857479929924011,0.02373364008963108
1772697896683573200,3.8155732421875,-0.12711316347122192,0.5371502041816711,0.0047479658387601376
1772697896693622300,3.825622314453125,-0.10741974413394928,0.5355715155601501,0.006358042359352112
1772697896703671600,3.835671630859375,-0.09981003403663635,0.46961167454719543,0.017444249242544174
1772697896713719300,3.84571923828125,-0.11057619005441666,0.36716824769973755,0.01907198131084442
1772697896723768300,3.855768310546875,-0.11443271487951279,0.22611740231513977,-0.0059942216612398624
1772697896733817300,3.8658173828125,-0.10147983580827713,0.08797072619199753,-0.040680527687072754
1772697896743866400,3.875866455078125,-0.08933262526988983,-0.020050283521413803,-0.08175232261419296
1772697896753914400,3.885914306640625,-0.07226075977087021,-0.09684184938669205,-0.11464360356330872
1772697896763963400,3.89596337890625,-0.059004612267017365,-0.15482446551322937,-0.14196497201919556
1772697896774012400,3.906012451171875,-0.044497374445199966,-0.2184077799320221,-0.14942322671413422
1772697896784061400,3.9160615234375,-0.040213149040937424,-0.2718568742275238,-0.15790726244449615
1772697896794109400,3.926109375,-0.035288698971271515,-0.3071538805961609,-0.1756734699010849
1772697896804158500,3.936158447265625,-0.03683413192629814,-0.33365872502326965,-0.20369233191013336
1772697896814207200,3.946207275390625,-0.016522733494639397,-0.3238615095615387,-0.23545610904693604
1772697896824256500,3.956256591796875,-0.00941528845578432,-0.3015820384025574,-0.263184130191803
1772697896834304300,3.96630419921875,-0.004471598193049431,-0.30095919966697693,-0.26982054114341736
1772697896844353500,3.976353515625,-0.004233778454363346,-0.31568726897239685,-0.24302354454994202
1772697896854402300,3.98640234375,-0.017885882407426834,-0.3446091115474701,-0.20494462549686432
1772697896864451300,3.996451416015625,-0.040879882872104645,-0.37220558524131775,-0.16363899409770966
1772697896874499300,4.006499267578125,-0.065372034907341,-0.3820345401763916,-0.12332700937986374
1772697896884548400,4.01654833984375,-0.0920446515083313,-0.4065617322921753,-0.09551135450601578
1772697896894597400,4.026597412109375,-0.08658851683139801,-0.39343905448913574,-0.07449309527873993
1772697896904646400,4.036646484375,-0.07042180001735687,-0.32163092494010925,-0.09280738979578018
1772697896914694400,4.0466943359375,-0.04944532737135887,-0.2064199447631836,-0.13405483961105347
1772697896924743400,4.056743408203125,-0.028061211109161377,-0.07411568611860275,-0.20203335583209991
1772697896934792200,4.066792236328125,-0.019909681752324104,0.07700645178556442,-0.2544785439968109
1772697896944841500,4.076841552734375,0.004438002593815327,0.1855822056531906,-0.2956257164478302
1772697896954889200,4.08688916015625,0.027685537934303284,0.2550080120563507,-0.3022351861000061
1772697896964938500,4.0969384765625,0.04307727888226509,0.2792968451976776,-0.2919103801250458
1772697896974987300,4.1069873046875,0.05244601517915726,0.24389353394508362,-0.2693476378917694
1772697896985035500,4.117035400390625,0.06528325378894806,0.16328416764736176,-0.22752296924591064
1772697896995084300,4.127084228515625,0.09107143431901932,0.06105561926960945,-0.1471201479434967
1772697897005133300,4.13713330078125,0.12369170039892197,-0.07531900703907013,-0.0414043627679348
1772697897015182000,4.14718212890625,0.14219726622104645,-0.20240452885627747,0.08277292549610138
1772697897025230800,4.15723095703125,0.14703170955181122,-0.2770710587501526,0.20005853474140167
1772697897035279000,4.167279052734375,0.14068764448165894,-0.3131733536720276,0.30467548966407776
1772697897045328000,4.177327880859375,0.13629981875419617,-0.3444681465625763,0.3803151249885559
1772697897055377000,4.187376953125,0.13651227951049805,-0.3763108253479004,0.4138871431350708
1772697897065425000,4.1974248046875,0.14528393745422363,-0.3900759220123291,0.4008674621582031
1772697897075474000,4.207473876953125,0.14861035346984863,-0.38616040349006653,0.34833329916000366
1772697897085523000,4.21752294921875,0.15284238755702972,-0.348655641078949,0.26654577255249023
1772697897095572000,4.227572021484375,0.16334396600723267,-0.30462437868118286,0.17390486598014832
1772697897105620000,4.237619873046875,0.17791412770748138,-0.24035057425498962,0.07529094070196152
1772697897115669000,4.2476689453125,0.19575023651123047,-0.1607852727174759,-0.03269627317786217
1772697897125717800,4.2577177734375,0.22652733325958252,-0.09522435814142227,-0.14447100460529327
1772697897135767000,4.26776708984375,0.24277375638484955,-0.048129890114068985,-0.2694706916809082
1772697897145814800,4.277814697265625,0.2613045573234558,-0.016979165375232697,-0.3865957260131836
1772697897155864000,4.287864013671875,0.2791444659233093,0.02069847658276558,-0.4940258860588074
1772697897165912800,4.297912841796875,0.292803019285202,0.047747138887643814,-0.5848138928413391
1772697897175961900,4.3079619140625,0.2996656000614166,0.06976030021905899,-0.6571022868156433
1772697897186009900,4.318009765625,0.3090282082557678,0.09598284959793091,-0.7039914727210999
1772697897196059000,4.328058837890625,0.31479302048683167,0.11750396341085434,-0.7305935025215149
1772697897206108000,4.33810791015625,0.3068016469478607,0.1475236564874649,-0.7317224144935608
1772697897216157000,4.348156982421875,0.3026479482650757,0.14281415939331055,-0.6927211284637451
1772697897226205000,4.358204833984375,0.29127517342567444,0.11780893057584763,-0.6256464719772339
1772697897236254000,4.36825390625,0.2748129665851593,0.09032762795686722,-0.5157339572906494
1772697897246303000,4.378302978515625,0.25055795907974243,0.09684145450592041,-0.41833415627479553
1772697897256352000,4.38835205078125,0.24540281295776367,0.10630457103252411,-0.3262532651424408
1772697897266399700,4.398399658203125,0.23351579904556274,0.12594112753868103,-0.24219775199890137
1772697897276449000,4.408448974609375,0.2241150438785553,0.11525868624448776,-0.16390547156333923
1772697897286498000,4.418498046875,0.2212904989719391,0.07925141602754593,-0.10395771265029907
1772697897296546800,4.428546875,0.22649312019348145,0.04274739325046539,-0.0673011913895607
1772697897306595000,4.438594970703125,0.23271052539348602,0.020613595843315125,-0.03663276508450508
1772697897316643800,4.448643798828125,0.2433624267578125,0.001627922523766756,-0.02091083861887455
1772697897326693000,4.458693115234375,0.25945165753364563,-0.007544004358351231,-0.014494219794869423
1772697897336742000,4.468741943359375,0.2797466218471527,-0.007596810348331928,-0.021541986614465714
1772697897346790100,4.4787900390625,0.30501094460487366,0.00734565407037735,-0.04836028441786766
1772697897356839000,4.4888388671875,0.3326215445995331,0.01235334575176239,-0.07713968306779861
1772697897366888000,4.498887939453125,0.3654865622520447,0.0020186826586723328,-0.1097535490989685
1772697897376937000,4.50893701171875,0.39736852049827576,-0.02797763980925083,-0.13930006325244904
1772697897386985000,4.51898486328125,0.42263180017471313,-0.07705224305391312,-0.1657963991165161
1772697897397034000,4.529033935546875,0.45076683163642883,-0.12966036796569824,-0.18975487351417542
1772697897407083000,4.5390830078125,0.46341603994369507,-0.18318112194538116,-0.20859727263450623
1772697897417131800,4.5491318359375,0.46607905626296997,-0.21554142236709595,-0.23322758078575134
1772697897427180000,4.559179931640625,0.4750312864780426,-0.23386263847351074,-0.24443469941616058
1772697897437228800,4.569228759765625,0.4856472611427307,-0.2551059126853943,-0.2692759931087494
1772697897447278000,4.579278076171875,0.49942272901535034,-0.2812826335430145,-0.29897236824035645
1772697897457326800,4.589326904296875,0.5275576710700989,-0.28925275802612305,-0.3314601480960846
1772697897467375000,4.599375,0.5407229661941528,-0.2965674102306366,-0.35698866844177246
1772697897477423900,4.609423828125,0.5608503818511963,-0.303435742855072,-0.3636094033718109
1772697897487473000,4.619472900390625,0.578346848487854,-0.31840428709983826,-0.38080596923828125
1772697897497522000,4.62952197265625,0.6089076399803162,-0.3288801312446594,-0.4082525670528412
1772697897507570000,4.63956982421875,0.6313237547874451,-0.3006271719932556,-0.4392254054546356
1772697897517619000,4.649618896484375,0.6661885380744934,-0.30400335788726807,-0.4815106689929962
1772697897527668000,4.65966796875,0.7002876400947571,-0.25200194120407104,-0.5179494023323059
1772697897537717000,4.669717041015625,0.7397021055221558,-0.2525936961174011,-0.5466440916061401
1772697897547765000,4.679764892578125,0.7946926355361938,-0.27659252285957336,-0.589164137840271
1772697897557813800,4.689813720703125,0.8428773283958435,-0.2812649607658386,-0.6311453580856323
1772697897567863000,4.699863037109375,0.8890778422355652,-0.3349612057209015,-0.6399924159049988
1772697897577911800,4.709911865234375,0.9341484904289246,-0.36857959628105164,-0.6242590546607971
1772697897587960000,4.7199599609375,0.984007716178894,-0.40934568643569946,-0.5742166638374329
1772697897598008800,4.7300087890625,1.0306668281555176,-0.4648907780647278,-0.5355494022369385
1772697897608057900,4.740057861328125,1.0793088674545288,-0.4703920781612396,-0.5117591023445129
1772697897618107100,4.750107177734375,1.137551188468933,-0.4688183665275574,-0.5073440074920654
1772697897628155000,4.76015478515625,1.17887544631958,-0.46494346857070923,-0.5118865370750427
1772697897638204000,4.770203857421875,1.2380832433700562,-0.5008047819137573,-0.5373075604438782
1772697897648253000,4.7802529296875,1.2978483438491821,-0.525706946849823,-0.5691946744918823
1772697897658302000,4.790302001953125,1.3147801160812378,-0.4904651939868927,-0.5897801518440247
1772697897668350000,4.800349853515625,1.3248541355133057,-0.40931999683380127,-0.6165092587471008
1772697897678399000,4.81039892578125,1.314475417137146,-0.3421468138694763,-0.6134839653968811
1772697897688448000,4.820447998046875,1.2418509721755981,-0.19218793511390686,-0.6172915101051331
1772697897698497000,4.8304970703125,1.1707910299301147,0.06669913977384567,-0.5783282518386841
1772697897708545000,4.840544921875,1.0643035173416138,0.2064136415719986,-0.5182084441184998
1772697897718594000,4.850593994140625,0.9462433457374573,0.14466629922389984,-0.44143304228782654
1772697897728642800,4.860642822265625,0.8923422694206238,-0.028375783935189247,-0.35449039936065674
1772697897738692000,4.870692138671875,0.8231702446937561,-0.2122354358434677,-0.24847611784934998
1772697897748739800,4.88073974609375,0.7060937285423279,-0.3296984136104584,-0.13151487708091736
1772697897758789000,4.8907890625,0.5878042578697205,-0.40769195556640625,-0.0028136398177593946
1772697897768838000,4.900837890625,0.49130919575691223,-0.5036440491676331,0.1249360665678978
1772697897778887000,4.910886962890625,0.40109676122665405,-0.5983193516731262,0.24148915708065033
1772697897788935000,4.920934814453125,0.3022348880767822,-0.6601464748382568,0.33230718970298767
1772697897798984000,4.93098388671875,0.2453147917985916,-0.7165356278419495,0.38356199860572815
1772697897809033000,4.941032958984375,0.2116076946258545,-0.7439302206039429,0.435472309589386
1772697897819082000,4.95108203125,0.1887732297182083,-0.7182661890983582,0.4892122745513916
1772697897829130000,4.9611298828125,0.18279948830604553,-0.6435365676879883,0.523924708366394
1772697897839179000,4.971178955078125,0.18464340269565582,-0.5328266620635986,0.49966371059417725
1772697897849228000,4.98122802734375,0.18818141520023346,-0.4077686369419098,0.41457438468933105
1772697897859277000,4.991277099609375,0.20119088888168335,-0.26107797026634216,0.28669217228889465
1772697897869324800,5.00132470703125,0.2061544805765152,-0.0764484629034996,0.12487558275461197
1772697897879374000,5.0113740234375,0.22306816279888153,0.051194749772548676,-0.04307892173528671
1772697897889422800,5.0214228515625,0.23968681693077087,0.12194269150495529,-0.1831076592206955
1772697897899472000,5.031471923828125,0.1938234567642212,0.20983590185642242,-0.2307029366493225
1772697897909520000,5.041519775390625,0.12548300623893738,0.2565690875053406,-0.22215977311134338
1772697897919569000,5.05156884765625,0.04777282848954201,0.24335168302059174,-0.18416152894496918
1772697897929618000,5.061617919921875,-0.027634311467409134,0.2139945924282074,-0.09454935044050217
1772697897939667000,5.0716669921875,-0.08525079488754272,0.19689705967903137,0.018993675708770752
1772697897949715000,5.08171484375,-0.11921701580286026,0.21290133893489838,0.15779443085193634
1772697897959764000,5.091763916015625,-0.15502707660198212,0.2667376697063446,0.2883038818836212
1772697897969813000,5.10181298828125,-0.18534770607948303,0.32062485814094543,0.41657182574272156
1772697897979862000,5.111862060546875,-0.19939513504505157,0.35582584142684937,0.5190286636352539
1772697897989909800,5.12190966796875,-0.20045959949493408,0.349656343460083,0.5817485451698303
1772697897999959000,5.131958984375,-0.1825840175151825,0.29664289951324463,0.6262800693511963
1772697898010008300,5.14200830078125,-0.17749685049057007,0.23692098259925842,0.6369489431381226
1772697898020057300,5.152057373046875,-0.1745709478855133,0.1893562376499176,0.6131337285041809
1772697898030105300,5.162105224609375,-0.1683463454246521,0.18468612432479858,0.556486964225769
1772697898040154400,5.172154296875,-0.16136394441127777,0.20237278938293457,0.49361079931259155
1772697898050203400,5.182203369140625,-0.16232562065124512,0.22918230295181274,0.4443287253379822
1772697898060252400,5.19225244140625,-0.16664612293243408,0.22379277646541595,0.4327622950077057
1772697898070300400,5.202300537109375,-0.15923428535461426,0.16777637600898743,0.4283622205257416
1772697898080349400,5.212349365234375,-0.1423233449459076,0.09057252109050751,0.43723252415657043
1772697898090398200,5.222398193359375,-0.13916802406311035,0.017680469900369644,0.4364500939846039
1772697898100447500,5.232447509765625,-0.12122052162885666,-0.05141504853963852,0.42048996686935425
1772697898110495200,5.2424951171875,-0.13298717141151428,-0.06953785568475723,0.4022020399570465
1772697898120544500,5.25254443359375,-0.13300061225891113,-0.05147375911474228,0.38132378458976746
1772697898130593300,5.26259326171875,-0.1321910172700882,-0.007126802112907171,0.3775372803211212
1772697898140642300,5.272642333984375,-0.1278897523880005,0.04045434296131134,0.38585764169692993
1772697898150690300,5.282690185546875,-0.1396995335817337,0.060166262090206146,0.382524698972702
1772697898160739300,5.2927392578125,-0.1673697829246521,0.06814110279083252,0.37634190917015076
1772697898170788400,5.302788330078125,-0.2003341168165207,0.051027581095695496,0.36681967973709106
1772697898180837400,5.31283740234375,-0.21986301243305206,0.0342203788459301,0.3402540683746338
1772697898190885400,5.322885498046875,-0.2154163271188736,0.023360004648566246,0.29214298725128174
1772697898200934400,5.332934326171875,-0.19550073146820068,0.029205217957496643,0.23832769691944122
1772697898210983200,5.342983154296875,-0.1592697650194168,0.05163196474313736,0.17591091990470886
1772697898221031400,5.353031494140625,-0.10870532691478729,0.07534628361463547,0.11293518543243408
1772697898231080200,5.363080078125,-0.05761018022894859,0.10113473981618881,0.0557645745575428
1772697898241129500,5.37312939453125,-0.021138522773981094,0.13630500435829163,0.01778617687523365
1772697898251178500,5.383178466796875,0.00730536924675107,0.14744527637958527,-0.007558329496532679
1772697898261226500,5.3932265625,0.023110561072826385,0.14034007489681244,-0.02423439361155033
1772697898271275300,5.403275146484375,0.0347357913851738,0.12824346125125885,-0.035810355097055435
1772697898281324300,5.41332421875,0.04746809974312782,0.12754784524440765,-0.04190020635724068
1772697898291373600,5.42337353515625,0.05143887177109718,0.14891545474529266,-0.0486137680709362
1772697898301421300,5.43342138671875,0.06367956101894379,0.1606389582157135,-0.054714273661375046
1772697898311470300,5.44347021484375,0.07614528387784958,0.1931699961423874,-0.05647941678762436
1772697898321519400,5.453519287109375,0.07118814438581467,0.20446522533893585,-0.06336169689893723
1772697898331568400,5.463568359375,0.06151234731078148,0.19279845058918,-0.07809164375066757
1772697898341616400,5.473616455078125,0.04249271750450134,0.17982928454875946,-0.08299384266138077
1772697898351665400,5.48366552734375,0.015029401518404484,0.15414150059223175,-0.07977727800607681
1772697898361714400,5.49371435546875,-0.00947094801813364,0.13598759472370148,-0.058426208794116974
1772697898371763500,5.503763427734375,-0.02654101327061653,0.11162766069173813,-0.023360634222626686
1772697898381811500,5.5138115234375,-0.050353534519672394,0.11706990003585815,0.010956084355711937
1772697898391860500,5.523860595703125,-0.06013000011444092,0.12429692596197128,0.058594711124897
1772697898401909200,5.5339091796875,-0.0846657007932663,0.13945868611335754,0.11149968951940536
1772697898411958500,5.54395849609375,-0.10980886965990067,0.16350196301937103,0.1519022285938263
1772697898422006300,5.55400634765625,-0.1325806975364685,0.19626833498477936,0.18485939502716064
1772697898432055600,5.5640556640625,-0.15563355386257172,0.20518352091312408,0.21078792214393616
1772697898442104300,5.574104248046875,-0.1730731874704361,0.19725175201892853,0.2193087339401245
1772697898452153300,5.5841533203125,-0.18702548742294312,0.19142527878284454,0.21312594413757324
1772697898462201300,5.594201416015625,-0.19520999491214752,0.19760364294052124,0.18725064396858215
1772697898472250400,5.60425048828125,-0.19652879238128662,0.2082032859325409,0.15421812236309052
1772697898482299400,5.61429931640625,-0.2011839896440506,0.22272518277168274,0.12442337721586227
1772697898492348400,5.624348388671875,-0.21695390343666077,0.24618418514728546,0.09746260195970535
1772697898502396400,5.634396484375,-0.2383270412683487,0.25014549493789673,0.11093010753393173
1772697898512445400,5.644445556640625,-0.27055928111076355,0.22949320077896118,0.16082124412059784
1772697898522494200,5.654494140625,-0.30194222927093506,0.1947847455739975,0.23066796362400055
1772697898532543500,5.66454345703125,-0.33498939871788025,0.136017844080925,0.3196582794189453
1772697898542591200,5.67459130859375,-0.3682321012020111,0.06785663217306137,0.40898263454437256
1772697898552640500,5.684640625,-0.3989625871181488,-0.0022305785678327084,0.49359098076820374
1772697898562689300,5.694689208984375,-0.4233286380767822,-0.04840096831321716,0.5520581007003784
1772697898572738300,5.70473828125,-0.4409545063972473,-0.07285438477993011,0.6121491193771362
1772697898582786300,5.714786376953125,-0.45685482025146484,-0.06596565246582031,0.644955575466156
1772697898592835300,5.72483544921875,-0.4561919569969177,-0.05024341493844986,0.6698758602142334
1772697898602884400,5.73488427734375,-0.4647964537143707,-0.013852197676897049,0.6747568249702454
1772697898612933400,5.744933349609375,-0.45762455463409424,0.018977921456098557,0.6819404363632202
1772697898622981400,5.7549814453125,-0.46069446206092834,0.06721179932355881,0.6657581329345703
1772697898633030400,5.765030517578125,-0.46375468373298645,0.0807768777012825,0.6268344521522522
1772697898643079200,5.7750791015625,-0.4644709527492523,0.09753584861755371,0.5820167064666748
1772697898653128400,5.78512841796875,-0.46455538272857666,0.09495498239994049,0.5252554416656494
1772697898663176200,5.79517626953125,-0.46175554394721985,0.07704118639230728,0.45194724202156067
1772697898673225500,5.8052255859375,-0.4552195966243744,0.06108805164694786,0.34900596737861633
1772697898683274200,5.815274169921875,-0.45495128631591797,0.07945472747087479,0.24466806650161743
1772697898693323300,5.8253232421875,-0.4562884569168091,0.09713465720415115,0.16411757469177246
1772697898703371300,5.835371337890625,-0.45701563358306885,0.08561033010482788,0.10295256972312927
1772697898713420300,5.845420166015625,-0.4660903513431549,0.06902016699314117,0.08329843729734421
1772697898723469600,5.855469482421875,-0.4781772494316101,0.04750392958521843,0.07295746356248856
1772697898733518300,5.865518310546875,-0.4830676019191742,0.040199678391218185,0.06272239983081818
1772697898743566300,5.87556640625,-0.4859914183616638,0.045540980994701385,0.05321658030152321
1772697898753615400,5.885615478515625,-0.479815810918808,0.06236390769481659,0.032976023852825165
1772697898763664400,5.895664306640625,-0.47329461574554443,0.08417689800262451,0.016958970576524734
1772697898773713400,5.90571337890625,-0.4645831286907196,0.1113499328494072,0.008289848454296589
1772697898783761400,5.915761474609375,-0.46027255058288574,0.14087925851345062,0.0078108953312039375
1772697898793810400,5.925810546875,-0.45792073011398315,0.1669934242963791,0.011549973860383034
1772697898803859500,5.935859375,-0.4670933783054352,0.18849611282348633,0.021108660846948624
1772697898813908200,5.945908203125,-0.4728141129016876,0.20654888451099396,0.033031899482011795
1772697898823956500,5.95595654296875,-0.4800848662853241,0.2116893231868744,0.04973210021853447
1772697898834005200,5.966005126953125,-0.47820228338241577,0.20830044150352478,0.06164521723985672
1772697898844054500,5.976054443359375,-0.47019723057746887,0.20361734926700592,0.07590779662132263
1772697898854103300,5.986103271484375,-0.4508056938648224,0.2154598832130432,0.08262908458709717
1772697898864151600,5.996151611328125,-0.43550994992256165,0.23572631180286407,0.09032341837882996
1772697898874200300,6.006200439453125,-0.4161301255226135,0.25981754064559937,0.10231563448905945
1772697898884249300,6.016249267578125,-0.40679195523262024,0.2842370271682739,0.116154745221138
1772697898894298400,6.02629833984375,-0.4109118580818176,0.3135688006877899,0.12944072484970093
1772697898904346400,6.036346435546875,-0.41647154092788696,0.3360999822616577,0.1465815156698227
1772697898914395400,6.0463955078125,-0.4260900616645813,0.33150655031204224,0.1685616374015808
1772697898924444400,6.0564443359375,-0.4359365701675415,0.26425376534461975,0.20602832734584808
1772697898934493200,6.0664931640625,-0.4376085102558136,0.16750432550907135,0.25462064146995544
1772697898944541400,6.07654150390625,-0.39902549982070923,0.27869799733161926,0.25771722197532654
1772697898954590200,6.086590087890625,-0.3649218678474426,0.5185771584510803,0.21242351830005646
1772697898964639500,6.096639404296875,-0.3655555546283722,0.5307989716529846,0.19714489579200745
1772697898974688300,6.106688232421875,-0.4203948378562927,0.24896995723247528,0.24715720117092133
1772697898984736500,6.116736572265625,-0.4716053009033203,-0.12061523646116257,0.33321839570999146
1772697898994785300,6.126785400390625,-0.505925714969635,-0.3773024380207062,0.41839534044265747
1772697899004834300,6.136834228515625,-0.5103150606155396,-0.4497189223766327,0.5157145857810974
1772697899014883800,6.1468837890625,-0.5063709020614624,-0.39776572585105896,0.5809966921806335
1772697899024931600,6.156931640625,-0.4957515001296997,-0.28372079133987427,0.6225482821464539
1772697899034980900,6.16698095703125,-0.4965326189994812,-0.15286053717136383,0.6453800797462463
1772697899045029600,6.177029541015625,-0.49124109745025635,-0.04265626147389412,0.6260295510292053
1772697899055078700,6.18707861328125,-0.469927579164505,0.06003256514668465,0.5901399850845337
1772697899065126700,6.197126708984375,-0.4187410771846771,0.13011711835861206,0.5234682559967041
1772697899075175700,6.20717578125,-0.35359349846839905,0.2029404491186142,0.42717796564102173
1772697899085224700,6.217224609375,-0.2943544089794159,0.28952157497406006,0.2898941934108734
1772697899095273700,6.227273681640625,-0.2570682764053345,0.3536571264266968,0.11867211759090424
1772697899105321700,6.23732177734375,-0.2266986072063446,0.3621388077735901,-0.05028107017278671
1772697899115370800,6.247370849609375,-0.20068538188934326,0.33196279406547546,-0.1799948513507843
1772697899125419500,6.25741943359375,-0.18975238502025604,0.2971733510494232,-0.2589673101902008
1772697899135468800,6.26746875,-0.1892639547586441,0.23716755211353302,-0.27115848660469055
1772697899145516500,6.2775166015625,-0.19653871655464172,0.11642977595329285,-0.19621475040912628
1772697899155565800,6.28756591796875,-0.20892827212810516,-0.05287829041481018,-0.09517254680395126
1772697899165614600,6.297614501953125,-0.21553237736225128,-0.2120112031698227,-0.0016244699945673347
1772697899175663600,6.30766357421875,-0.21323725581169128,-0.33786872029304504,0.06567734479904175
1772697899185711600,6.317711669921875,-0.20893873274326324,-0.44509357213974,0.10829704999923706
1772697899195760600,6.3277607421875,-0.22307318449020386,-0.5379790663719177,0.14113250374794006
1772697899205810000,6.337809814453125,-0.2609398066997528,-0.6154677867889404,0.17902380228042603
1772697899215858700,6.347858642578125,-0.29800674319267273,-0.6733254790306091,0.2417721450328827
1772697899225906700,6.35790673828125,-0.3391864001750946,-0.728498101234436,0.3126571774482727
1772697899235955700,6.367955810546875,-0.3553856313228607,-0.7830790281295776,0.362917959690094
1772697899246004700,6.378004638671875,-0.349427729845047,-0.8305571675300598,0.38736069202423096
1772697899256053800,6.3880537109375,-0.3530395030975342,-0.8429461717605591,0.3809587061405182
1772697899266101800,6.398101806640625,-0.3291584849357605,-0.7972796559333801,0.3601468503475189
1772697899276150800,6.40815087890625,-0.30196014046669006,-0.7163084149360657,0.31670188903808594
1772697899286199800,6.41819970703125,-0.256070077419281,-0.5999122262001038,0.22328616678714752
1772697899296248600,6.42824853515625,-0.21773813664913177,-0.46379411220550537,0.1030750647187233
1772697899306296800,6.438296875,-0.15798060595989227,-0.29120495915412903,-0.019934499636292458
1772697899316345600,6.448345703125,-0.12463197112083435,-0.13494715094566345,-0.12369950860738754
1772697899326395000,6.458394775390625,-0.06754032522439957,0.03687373921275139,-0.23011291027069092
1772697899336443600,6.468443603515625,-0.03571581467986107,0.16619844734668732,-0.32826370000839233
1772697899346492000,6.478491943359375,-0.0152725949883461,0.24704109132289886,-0.41243210434913635
1772697899356540700,6.488540771484375,-0.015536513179540634,0.28207603096961975,-0.4570906460285187
1772697899366589700,6.498589599609375,-0.02018790692090988,0.28008759021759033,-0.4771624803543091
1772697899376638700,6.508638671875,-0.013888200744986534,0.27664172649383545,-0.47194454073905945
1772697899386687700,6.518687744140625,-0.0022004530765116215,0.270690381526947,-0.47018030285835266
1772697899396735700,6.52873583984375,0.013438427820801735,0.26392197608947754,-0.4656659960746765
1772697899406784800,6.53878466796875,0.025613266974687576,0.23915620148181915,-0.4418017864227295
1772697899416833500,6.54883349609375,0.03832080587744713,0.18012085556983948,-0.40402352809906006
1772697899426882800,6.5588828125,0.04447902739048004,0.0889553427696228,-0.35160931944847107
1772697899436930600,6.5689306640625,0.038535118103027344,-0.0011276807636022568,-0.2931761145591736
1772697899446979800,6.578979736328125,0.0269381832331419,-0.07840599864721298,-0.2521073818206787
1772697899457028600,6.589028564453125,0.02404705621302128,-0.14115619659423828,-0.23110009729862213
1772697899467077600,6.59907763671875,0.027788467705249786,-0.1582801640033722,-0.24250206351280212
1772697899477125600,6.609125732421875,0.04021024703979492,-0.11252520233392715,-0.2667410969734192
1772697899487174700,6.619174560546875,0.0376863107085228,-0.061228081583976746,-0.30245858430862427
1772697899497223700,6.6292236328125,0.039234139025211334,-0.03423720970749855,-0.3417370319366455
1772697899507272700,6.639272705078125,0.03633575141429901,-0.010365091264247894,-0.38229647278785706
1772697899517320700,6.64932080078125,0.026061808690428734,0.02426053024828434,-0.4244343340396881
1772697899527369700,6.65936962890625,0.0101591432467103,0.06733547896146774,-0.46038171648979187
1772697899537418500,6.66941845703125,-0.016256485134363174,0.11950282007455826,-0.4858971834182739
1772697899547467800,6.6794677734375,-0.04152695834636688,0.15860296785831451,-0.49640223383903503
1772697899557515500,6.689515625,-0.05296497046947479,0.22681105136871338,-0.49921107292175293
1772697899567564800,6.699564697265625,-0.05685025081038475,0.27392062544822693,-0.48542606830596924
1772697899577613800,6.70961376953125,-0.042252130806446075,0.3027224540710449,-0.46736666560173035
1772697899587662600,6.71966259765625,-0.02465103194117546,0.3252713680267334,-0.442230761051178
1772697899597710600,6.729710693359375,-0.00017471774481236935,0.33581429719924927,-0.408156156539917
1772697899607759600,6.739759521484375,0.024901866912841797,0.3499758541584015,-0.36653319001197815
1772697899617809000,6.749808837890625,0.04512378200888634,0.349007785320282,-0.33334994316101074
1772697899627857700,6.759857666015625,0.06328840553760529,0.331152081489563,-0.29153963923454285
1772697899637906000,6.769906005859375,0.07551737129688263,0.31134748458862305,-0.2485136091709137
1772697899647954700,6.77995458984375,0.08698148280382156,0.28522801399230957,-0.2058846652507782
1772697899658003700,6.790003662109375,0.09025850147008896,0.2562629282474518,-0.1653340458869934
1772697899668052700,6.800052734375,0.0926501527428627,0.23346289992332458,-0.13904088735580444
1772697899678100700,6.810100830078125,0.09846650063991547,0.2199915647506714,-0.11620242148637772
1772697899688149800,6.820149658203125,0.11219248175621033,0.21345235407352448,-0.1113181784749031
1772697899698198800,6.83019873046875,0.1300143450498581,0.22200936079025269,-0.10953758656978607
1772697899708247600,6.84024755859375,0.15065939724445343,0.22558379173278809,-0.10914323478937149
1772697899718295800,6.8502958984375,0.16983094811439514,0.21532022953033447,-0.10367336869239807
1772697899728344600,6.860344482421875,0.18543821573257446,0.1985696703195572,-0.09964211285114288
1772697899738393900,6.870393798828125,0.20124994218349457,0.18755750358104706,-0.09874435514211655
1772697899748442600,6.880442626953125,0.2198226898908615,0.1578439325094223,-0.09684061259031296
1772697899758491000,6.890490966796875,0.23564186692237854,0.1185026466846466,-0.10550068318843842
1772697899768539600,6.90053955078125,0.2521422803401947,0.08583947271108627,-0.11063295602798462
1772697899778588700,6.910588623046875,0.26846611499786377,0.06278848648071289,-0.10917540639638901
1772697899788637700,6.9206376953125,0.28618672490119934,0.03370508924126625,-0.10585824400186539
1772697899798685700,6.930685791015625,0.29933714866638184,0.019390597939491272,-0.1108548641204834
1772697899808734700,6.940734619140625,0.31148383021354675,0.00785640999674797,-0.12873196601867676
1772697899818783700,6.95078369140625,0.33260536193847656,-0.005494282580912113,-0.15843021869659424
1772697899828832500,6.96083251953125,0.3563084900379181,-0.009752659127116203,-0.19771091639995575
1772697899838880800,6.970880859375,0.37575089931488037,-0.023653028532862663,-0.23051972687244415
1772697899848929500,6.980929443359375,0.4154282510280609,-0.040163081139326096,-0.2732134759426117
1772697899858978800,6.990978759765625,0.44541627168655396,-0.04218628630042076,-0.3265254497528076
1772697899869027600,7.001027587890625,0.48909690976142883,-0.05040362477302551,-0.38528361916542053
1772697899879075800,7.011075927734375,0.5274749398231506,-0.06449361145496368,-0.42596128582954407
1772697899889124600,7.02112451171875,0.5644891262054443,-0.0945083424448967,-0.4451924264431
1772697899899173600,7.031173583984375,0.5971141457557678,-0.12652753293514252,-0.45058852434158325
1772697899909222700,7.04122265625,0.6224791407585144,-0.1588432490825653,-0.45380422472953796
1772697899919270700,7.051270751953125,0.6444137096405029,-0.178761288523674,-0.45359328389167786
1772697899929319700,7.061319580078125,0.6628824472427368,-0.1962239146232605,-0.4505043029785156
1772697899939368700,7.07136865234375,0.6781067252159119,-0.20565097033977509,-0.44379180669784546
1772697899949417700,7.081417724609375,0.6751177906990051,-0.16488100588321686,-0.4444679021835327
1772697899959465700,7.0914658203125,0.6670939922332764,-0.12702257931232452,-0.4251597225666046
1772697899969514500,7.101514404296875,0.6401962041854858,-0.13617365062236786,-0.39046990871429443
1772697899979563800,7.111563720703125,0.563601016998291,-0.15711088478565216,-0.35489192605018616
1772697899989612800,7.12161279296875,0.4936712980270386,-0.06808347254991531,-0.33550724387168884
1772697899999660800,7.131660888671875,0.41886070370674133,0.02682279609143734,-0.26333239674568176
1772697900009709800,7.141709716796875,0.3386057913303375,0.058749571442604065,-0.10287506878376007
1772697900019758600,7.151758544921875,0.32806554436683655,-0.07792864739894867,0.07407040894031525
1772697900029807900,7.161807861328125,0.30257752537727356,-0.21705307066440582,0.18537989258766174
1772697900039855600,7.171855712890625,0.24423326551914215,-0.3566967248916626,0.258017361164093
1772697900049905000,7.18190478515625,0.1717492938041687,-0.5498880743980408,0.33530375361442566
1772697900059953700,7.19195361328125,0.10467784851789474,-0.7708108425140381,0.3899587392807007
1772697900070002700,7.202002685546875,0.06211341544985771,-0.9723342061042786,0.40496379137039185
1772697900080050700,7.21205078125,0.04969030246138573,-1.085192322731018,0.409697026014328
1772697900090099700,7.222099609375,0.061537645757198334,-1.059001088142395,0.3810959458351135
1772697900100148700,7.232148681640625,0.12144332379102707,-0.8722224235534668,0.30769577622413635
1772697900110197800,7.24219775390625,0.17687422037124634,-0.5321575403213501,0.2141411453485489
1772697900120245800,7.252245849609375,0.2517798840999603,-0.1468793749809265,0.05986395105719566
1772697900130294800,7.262294677734375,0.30578553676605225,0.13161563873291016,-0.038103580474853516
1772697900140343600,7.272343505859375,0.33237773180007935,0.27324309945106506,-0.09291915595531464
1772697900150392800,7.282392822265625,0.29599976539611816,0.31610241532325745,-0.09093926101922989
1772697900160440600,7.292440673828125,0.24595415592193604,0.2809561491012573,-0.029778970405459404
1772697900170489900,7.30248974609375,0.17156919836997986,0.20905697345733643,0.08556357026100159
1772697900180538600,7.31253857421875,0.11062410473823547,0.11058738827705383,0.2209901064634323
1772697900190587600,7.322587646484375,0.06684013456106186,0.0038065011613070965,0.3597312569618225
1772697900200635600,7.3326357421875,0.041541434824466705,-0.09103371948003769,0.428661584854126
1772697900210684700,7.3426845703125,0.006420041434466839,-0.13219599425792694,0.4522833228111267
1772697900220733700,7.352733642578125,-0.00900472141802311,-0.16006438434123993,0.4402011036872864
1772697900230782700,7.36278271484375,-0.003987439908087254,-0.18099765479564667,0.4174647033214569
1772697900240830700,7.372830810546875,0.025573913007974625,-0.16371747851371765,0.3750131130218506
1772697900250879700,7.382879638671875,0.06483049690723419,-0.09851977229118347,0.31752729415893555
1772697900260928500,7.392928466796875,0.1098610907793045,-0.014962295070290565,0.263434499502182
1772697900270977800,7.402977783203125,0.15562911331653595,0.03249156475067139,0.23451799154281616
1772697900281025500,7.413025634765625,0.18847042322158813,0.05435505136847496,0.23792816698551178
1772697900291074800,7.42307470703125,0.2089185118675232,0.04088559001684189,0.26264867186546326
1772697900301123600,7.43312353515625,0.21076726913452148,0.022261306643486023,0.28318244218826294
1772697900311172600,7.443172607421875,0.21318335831165314,-0.02229384332895279,0.2871799170970917
1772697900321222000,7.453221923828125,0.20216985046863556,-0.049226921051740646,0.27714377641677856
1772697900331269600,7.46326953125,0.1804121732711792,-0.06841344386339188,0.2626357972621918
1772697900341318700,7.473318603515625,0.15630389750003815,-0.08781137317419052,0.2455414980649948
1772697900351367700,7.48336767578125,0.13023348152637482,-0.09580131620168686,0.22729413211345673
1772697900361415700,7.493415771484375,0.09607391804456711,-0.0787871778011322,0.20035545527935028
1772697900371464700,7.503464599609375,0.06603891402482986,-0.06473759561777115,0.17542456090450287
1772697900381513700,7.513513671875,0.04739679396152496,-0.06378844380378723,0.15572434663772583
1772697900391562800,7.523562744140625,0.016671020537614822,-0.050108976662158966,0.18324927985668182
1772697900401611800,7.53361181640625,-0.03166322410106659,-0.2534993886947632,0.4420377016067505
1772697900411659800,7.54365966796875,-0.05204910784959793,-0.36458301544189453,0.40703892707824707
1772697900421708800,7.553708740234375,-0.03798149153590202,-0.27864202857017517,0.3203471899032593
1772697900431757600,7.563757568359375,0.0011919343378394842,-0.1383601725101471,0.2250712364912033
1772697900441806800,7.573806884765625,0.0022843629121780396,-0.04060431569814682,0.1426999270915985
1772697900451854600,7.5838544921875,-0.03500928729772568,0.03446933627128601,0.07803218811750412
1772697900461904000,7.59390380859375,-0.07098805904388428,0.07878193259239197,0.02310449443757534
1772697900471952600,7.60395263671875,-0.08856309950351715,0.08380907773971558,-0.007283663842827082
1772697900482001700,7.614001708984375,-0.1137041375041008,0.12096469849348068,-0.031481944024562836
1772697900492049700,7.624049560546875,-0.1301451176404953,0.17089875042438507,-0.004932038486003876
1772697900502098700,7.6340986328125,-0.154865100979805,0.17222021520137787,0.09115907549858093
1772697900512147700,7.644147705078125,-0.17791423201560974,0.04043608903884888,0.18245624005794525
1772697900522196700,7.65419677734375,-0.20570804178714752,-0.04235679656267166,0.2217639684677124
