time,seconds_elapsed,z,y,x
1772697810897553700,0.0685537109375,0.08563245683908462,0.1684954489648342,-0.1742202563524246
1772697810907601700,0.0786015625,0.07538871072232722,0.2531368489399552,-0.20585691910982132
1772697810917650400,0.088650390625,0.04657791904062032,0.31091566869169474,-0.21355799500644207
1772697810927698200,0.0986982421875,0.013829787909984587,0.3322325974866748,-0.22260464029312133
1772697810937747200,0.108747314453125,-0.049722939068078995,0.38089346028119325,-0.18913725497722625
1772697810947796200,0.118796142578125,-0.13741145165413618,0.42640608817785974,-0.16733868014514444
1772697810957844200,0.12884423828125,-0.18409721498340367,0.4853402154445648,-0.13846446783840655
1772697810967893200,0.138893310546875,-0.17602730577439069,0.5266659130454063,-0.15094459470510482
1772697810977941200,0.148941162109375,-0.12994506129622457,0.5299626165032386,-0.1819020430266857
1772697810987990000,0.158989990234375,-0.06086246498078107,0.45647652453184123,-0.16183774464130402
1772697810998039300,0.169039306640625,-0.008593933083117008,0.37139381053000686,-0.11217676489353179
1772697811008087000,0.179087158203125,-0.005882920558750629,0.27238106311410665,-0.0960205798625946
1772697811018136300,0.18913623046875,0.002789338457584381,0.22081804913729428,-0.08268062129616736
1772697811028184000,0.19918408203125,0.0068760232493281365,0.19849311234354972,-0.09179682468771934
1772697811038233300,0.2092333984375,-0.014499065473675727,0.18617168316990135,-0.13244623046219348
1772697811048282000,0.2192822265625,-0.0771586430042982,0.14529606742411852,-0.14508417823910713
1772697811058330400,0.229330322265625,-0.14464257195144892,0.12330138549804687,-0.20417115797996518
1772697811068379100,0.239379150390625,-0.21774229495376346,0.16625936047583817,-0.21876550052165983
1772697811078427400,0.249427490234375,-0.27256840237975116,0.23126959278583525,-0.20111936919391155
1772697811088476200,0.25947607421875,-0.2084276463806629,0.2162424117848277,-0.1967418847620487
1772697811098525200,0.269525146484375,-0.05643617297112941,0.18393910181224346,-0.23017770589590072
1772697811108573200,0.2795732421875,0.008192074283957481,0.16321254012584685,-0.26222528754174707
1772697811118622200,0.289622314453125,-0.010827098962664603,0.14449877956658602,-0.2698123816698789
1772697811128671200,0.299671142578125,-0.07436316706687211,0.16592004551887513,-0.26091478946506974
1772697811138719200,0.30971923828125,-0.1585635452762246,0.22716917172968387,-0.25051497600376604
1772697811148768300,0.319768310546875,-0.1520332667246461,0.2672016146495938,-0.22788111939132213
1772697811158816300,0.329816162109375,-0.12284633520692587,0.27137159381061793,-0.16976561503112314
1772697811168865300,0.339865234375,-0.08982523235380649,0.2456540919691324,-0.0972930840164423
1772697811178914300,0.349914306640625,-0.06002192250341177,0.19470628728121517,-0.08457154960930346
1772697811188962300,0.35996240234375,-0.06613076077252626,0.18428133937865496,-0.09636544777750969
1772697811199011300,0.37001123046875,-0.09037585197389125,0.14768646969199178,-0.07668459575176238
1772697811209059300,0.380059326171875,-0.09959610026180743,0.09180705382078885,-0.08664134162068367
1772697811219108400,0.3901083984375,-0.10027239208817482,0.15648469317555427,-0.022579496076703072
1772697811229157000,0.4001572265625,-0.1023056514814496,0.23828034833073614,0.035032150414586065
1772697811239205400,0.410205322265625,-0.11197715066820382,0.2695359028160572,0.059435939309000964
1772697811249254100,0.420254150390625,-0.14865706828981637,0.2353305586144328,0.057148120632767675
1772697811259302100,0.43030224609375,-0.24536270780712366,0.19617109913676975,0.016617957323789595
1772697811269351200,0.44035107421875,-0.37912294347733255,0.24051497551500794,-0.04544423883557319
1772697811279400400,0.450400390625,-0.48859658689200874,0.3378063059657812,-0.11926409280598163
1772697811289448200,0.4604482421875,-0.5066588978052139,0.4143181754991412,-0.2837374466478824
1772697811299497200,0.470497314453125,-0.4613812477082014,0.42654578890949485,-0.398870723259449
1772697811309546200,0.480546142578125,-0.3791007316455245,0.43657150836139913,-0.4317413117259741
1772697811319594200,0.49059423828125,-0.3297369812786579,0.4911795891225338,-0.3650076166242361
1772697811329643300,0.500643310546875,-0.2516691144749522,0.4988251354396343,-0.24972119527757167
1772697811339691300,0.510691162109375,-0.12806319307237862,0.45819794149696824,-0.17070844883918762
1772697811349740300,0.520740234375,0.005079495221376419,0.45682226922959085,-0.12393792983591556
1772697811359789000,0.5307890625,0.10290361737459898,0.5007251238420606,-0.004364624950289726
1772697811369837300,0.54083740234375,-0.008957797959446907,0.4793050269335508,0.15348200422823427
1772697811379886000,0.550885986328125,-0.24574147799164056,0.39279520273804663,0.2287625784009695
1772697811389934300,0.560934326171875,-0.3916393107011914,0.35666327438801526,0.20311025075018405
1772697811399983000,0.570983154296875,-0.4222995296418667,0.3613040859311819,0.12679565735459328
1772697811410032400,0.581032470703125,-0.28640345098674297,0.33149726894944903,0.14688567470312117
1772697811420080000,0.591080078125,-0.1467792917191982,0.23611118759810923,0.2627881821215153
1772697811430129400,0.60112939453125,-0.25801731445789333,0.22997750714868306,0.23131343192756174
1772697811440177200,0.61117724609375,-0.43897740045934913,0.05011486099511385,0.23235504993498324
1772697811450226400,0.621226318359375,-0.3246022487387061,0.07166589080691337,0.1055623151898384
1772697811460275200,0.631275146484375,-0.14561024793982505,0.0532192567512393,0.08312076627910137
1772697811470323200,0.6413232421875,0.04465484202355146,0.05396802929192781,0.04886778354346752
1772697811480372200,0.651372314453125,0.1877805796712637,0.06595657324939966,0.15204057324826717
1772697811490421200,0.661421142578125,0.17144903807342052,0.06801847421526909,0.19175474399924278
1772697811500469200,0.67146923828125,0.24744068312495945,0.18559505232572554,0.06014847149252891
1772697811510518300,0.681518310546875,0.5272007505744696,0.306056830483675,0.006905541604757309
1772697811520566300,0.691566162109375,0.7515922742843627,0.34687896247655153,0.09747019414901732
1772697811530615300,0.701615234375,0.7434966461122036,0.31523645450025795,0.11099076997935771
1772697811540664300,0.711664306640625,0.5674500511154532,0.28900106626451016,-0.10679390281140803
1772697811550712300,0.72171240234375,0.47168607636243104,0.21973697590231894,-0.23246318648457526
1772697811560761000,0.731760986328125,0.42163200564384457,0.07224982817471028,-0.25761750148534773
1772697811570809000,0.74180908203125,0.384006623865664,-0.06028817222416401,-0.2699538359671831
1772697811580858000,0.751858154296875,0.35900223872959613,-0.17076807007193565,-0.3136415865242481
1772697811590907400,0.761907470703125,0.3376058149576187,-0.2584410928279161,-0.34506256070435043
1772697811600955100,0.771955078125,0.33095366359204054,-0.35008711086809635,-0.34673078617751596
1772697811611004400,0.78200439453125,0.3975650474883616,-0.4206283815592527,-0.3752145378619432
1772697811621053200,0.79205322265625,0.5095834069497883,-0.4676566747158766,-0.3980634985297918
1772697811631101200,0.80210107421875,0.5291393174216151,-0.6062134970128535,-0.42841187504231926
1772697811641150200,0.812150146484375,0.4135629732176661,-0.7501204481661319,-0.4339005355864763
1772697811651198200,0.8221982421875,0.2574943134970963,-0.857611685591936,-0.3711065180212259
1772697811661247200,0.832247314453125,0.12232143454998731,-0.8846779716938733,-0.2033785462975502
1772697811671296300,0.842296142578125,-0.006399199517816305,-0.8087889102339744,0.04962357034683227
1772697811681344300,0.85234423828125,-0.2520790104500949,-0.6567974368244409,0.34010464603602886
1772697811691393000,0.86239306640625,-0.5349859976232052,-0.5412351211458444,0.6197539465874433
1772697811701441300,0.872441162109375,-0.7680059412077069,-0.48751785174459217,0.8244108422577381
1772697811711490000,0.882489990234375,-0.9724033091589808,-0.4650888700544834,1.0051005868852139
1772697811721539300,0.892539306640625,-1.147812190774083,-0.4278644702926278,1.0905611942887306
1772697811731587000,0.902587158203125,-1.2755340230628847,-0.3606879998594522,1.06251291141212
1772697811741636400,0.91263623046875,-1.3486989202558994,-0.3596960662126541,0.8945727582424878
1772697811751684000,0.92268408203125,-1.3381179050087928,-0.35124037255644797,0.7099784073919058
1772697811761733400,0.9327333984375,-1.2902717195980251,-0.2792816362828016,0.49923430076241493
1772697811771782100,0.9427822265625,-1.1804092229962349,-0.17834990350306032,0.25781623892784117
1772697811781830400,0.952830322265625,-1.0086695314131677,-0.06948679320216178,0.04645779979228973
1772697811791879200,0.962879150390625,-0.8109004955604672,-0.01697100854516029,-0.08083119403719902
1772697811801927400,0.972927490234375,-0.5969044013977051,-0.0034834582015872,-0.21643033557236194
1772697811811976200,0.98297607421875,-0.3282004193611443,-0.007056348252296447,-0.3497439965188503
1772697811822025200,0.993025146484375,-0.00856134598776698,0.03421791142225265,-0.38943127926290033
1772697811832073200,1.0030732421875,0.14758140188232063,0.05562047267407179,-0.29984219375252724
1772697811842122200,1.013122314453125,0.19463468334972858,-0.04200841916799545,-0.20543080265223979
1772697811852171300,1.023171142578125,0.20225158809423446,-0.19594401238262651,-0.12860416808128355
1772697811862219300,1.03321923828125,0.26460341484993694,-0.4044698584407568,-0.09976035091280937
1772697811872268300,1.043268310546875,0.3075117054671049,-0.537280246040225,-0.21977263173758982
1772697811882316300,1.05331640625,0.13382175659909842,-0.5761354618743062,-0.2615478266716003
1772697811892365300,1.063365234375,-0.023612200125306845,-0.3844496914580464,-0.43791503192484377
1772697811902414300,1.073414306640625,-0.14096212987303733,-0.19439561389684676,-0.33836043271720406
1772697811912462300,1.08346240234375,-0.2407663199275732,-0.11075549991875887,-0.1995651254892349
1772697811922511400,1.093511474609375,-0.2031416688017547,-0.04838058454841375,-0.24715631322562692
1772697811932559600,1.1035595703125,-0.22177169660031795,0.016075521010160444,-0.2960650133013725
1772697811942608600,1.113608642578125,-0.34357845962643624,-0.08326631222963332,-0.3099251963496208
1772697811952657400,1.123657470703125,-0.38769378794580694,-0.1989209823668003,-0.2204313879072666
1772697811962705400,1.133705322265625,-0.36018458038195966,-0.31121114450693127,-0.17797464044988154
1772697811972754400,1.14375439453125,-0.2366220597296953,-0.3785068574056029,-0.102068043333292
1772697811982803500,1.153803466796875,-0.2650008897349238,-0.3370063877597451,-0.027500585865974425
1772697811992851500,1.1638515625,-0.351398777988553,-0.2991594721853733,-0.07849953621923923
1772697812002900500,1.173900390625,-0.47802054008096456,-0.21263386589884756,-0.11899112108349799
1772697812012948500,1.183948486328125,-0.49909576907455916,-0.1577405384555459,-0.15134791480898857
1772697812022997500,1.19399755859375,-0.5065843712642789,-0.13776245704889298,-0.19924480749368667
1772697812033046500,1.204046630859375,-0.499512971573323,-0.04551408920139074,-0.25602643290162086
1772697812043094300,1.21409423828125,-0.41180721559152006,0.036577626290917396,-0.18527590337395666
1772697812053143600,1.2241435546875,-0.363252881911397,-0.019003975677490233,-0.10344166977405547
1772697812063191300,1.23419140625,-0.4017475938700139,-0.07666179939806461,-0.12044658058881759
1772697812073240600,1.244240478515625,-0.48189708925336594,-0.09321049087792635,-0.1068172836869955
1772697812083289300,1.254289306640625,-0.5404629677295685,-0.05053688579946756,-0.14267185640037058
1772697812093337600,1.264337646484375,-0.5164911405116319,-0.009078209468722342,-0.07184183189570903
1772697812103386400,1.274386474609375,-0.5466834496796131,0.03308481573909521,-0.09265957899689674
1772697812113434600,1.2844345703125,-0.5968517944276333,0.06150017836242914,-0.17132921108603477
1772697812123483400,1.2944833984375,-0.6674572163961827,0.13040537228435278,-0.2274386363208294
1772697812133532400,1.304532470703125,-0.7482983473055064,0.040564357839524744,-0.2142062297821045
1772697812143580400,1.314580322265625,-0.7967904294043779,-0.043402796135842796,-0.2590267837613821
1772697812153629400,1.32462939453125,-0.6890272431693971,-0.11958645662814378,-0.2025456026047468
1772697812163677400,1.334677490234375,-0.5705393954329192,-0.07562456530481576,-0.21094342859387397
1772697812173726500,1.3447265625,-0.4716999587573111,-0.0032671851024031638,-0.16231062285006045
1772697812183775500,1.354775390625,-0.45910044329464433,0.14079495661258698,-0.1417962426096201
1772697812193823500,1.364823486328125,-0.4603079193882644,0.1259054305166006,-0.1428290927886963
1772697812203872500,1.37487255859375,-0.47389995301961896,0.07848404638916254,-0.08933774109780789
1772697812213921500,1.384921630859375,-0.4852255030237138,-0.049770285341143604,-0.10170271715223789
1772697812223969500,1.394969482421875,-0.557920298486948,-0.18940233565419912,-0.10057400538325309
1772697812234018600,1.4050185546875,-0.6383714071653783,-0.4935553783431649,-0.07107786178588867
1772697812244066600,1.415066650390625,-0.7859681527473033,-0.6607058424398302,-0.007433949393033981
1772697812254115600,1.425115478515625,-0.8507669342637062,-0.8117556510850786,0.0383200860440731
1772697812264164400,1.435164306640625,-1.0442376884005964,-0.8034937264353036,0.09345569781064987
1772697812274212600,1.445212646484375,-1.0600234326839446,-0.8860194494307041,0.09690028530657291
1772697812284261400,1.455261474609375,-1.0987316412627697,-0.7954021899163722,0.11948445755839347
1772697812294309400,1.465309326171875,-0.9770581492274999,-0.7853326313227414,0.16442425400316715
1772697812304358400,1.4753583984375,-0.8917020251117647,-0.6916665056318044,0.29009821385145185
1772697812314407700,1.48540771484375,-0.8006833451896905,-0.7818684623435139,0.2463473349303007
1772697812324455400,1.495455322265625,-0.8667688055157661,-0.7213669396296143,0.2325350826770067
1772697812334504700,1.505504638671875,-0.8551851890973746,-0.8914557952657342,0.18795301362872122
1772697812344552400,1.515552490234375,-1.0225747226469217,-0.9371329660743475,0.3159107005000114
1772697812354601500,1.5256015625,-1.0809820495605469,-1.1862792840734124,0.22222470106482506
1772697812364650500,1.535650390625,-1.2560182984709738,-1.2605319765031338,0.30165596517622467
1772697812374698500,1.545698486328125,-1.3226450260668992,-1.383178112962842,0.31697686842679973
1772697812384747500,1.55574755859375,-1.4084423180788754,-1.4776725061714648,0.3905535612910986
1772697812394796500,1.565796630859375,-1.3612252243518828,-1.5334318027943372,0.43680853198766706
1772697812404844500,1.575844482421875,-1.2108861943244933,-1.451663035646081,0.7318102999716997
1772697812414893300,1.585893310546875,-0.929324922671914,-1.2230550632849335,1.155281796002388
1772697812424941600,1.595941650390625,-0.6124923580866307,-0.7246209729894996,1.9441572144985197
1772697812434990300,1.605990234375,-0.09972462201230227,-0.31806086427122354,2.7445284249991175
1772697812445039600,1.61603955078125,0.46410088193044063,-0.0348866044640541,3.5091105292379856
1772697812455087400,1.62608740234375,1.181443096088618,-0.09423866488188505,3.913264161336422
1772697812465136600,1.63613671875,1.8605267451316116,-0.4908522568643093,3.6190023980647323
1772697812475184400,1.646184326171875,2.3836259056061504,-1.056141915075481,2.4502216535419223
1772697812485233700,1.656233642578125,2.648539409318566,-1.6023036789685488,1.0410895996332168
1772697812495282400,1.666282470703125,2.5938006879150866,-1.9901035576373338,-0.04413432528078556
1772697812505330700,1.67633056640625,2.0523545543670654,-1.9979630389660596,-1.3148206160515545
1772697812515379500,1.68637939453125,1.0432429782748223,-1.7631863148421048,-2.2953338741689917
1772697812525427500,1.696427490234375,0.09357844740748406,-1.3108131339758633,-2.3336855243951082
1772697812535476500,1.7064765625,-0.5784679599424823,-0.6212219733133911,-2.0462071376532314
1772697812545525500,1.716525390625,-0.8556406777799129,0.0887073342397809,-1.3863935678780077
1772697812555573500,1.726573486328125,-0.8665162920594215,0.7095379701480269,-0.2995160305380821
1772697812565622500,1.73662255859375,-0.6991776119142771,0.9147659437045454,0.5216793568044901
1772697812575670500,1.74667041015625,-0.5539489837031811,1.0043906850501894,1.0021464132547377
1772697812585719600,1.756719482421875,-0.48944998885095115,0.6985244087025523,0.959140799742937
1772697812595768600,1.7667685546875,-0.5381301408678293,0.2727715237364173,0.609392711570859
1772697812605816600,1.776816650390625,-0.5201186833590269,-0.033357202939689155,0.2714695012271404
1772697812615865300,1.786865234375,-0.32672903163433076,-0.18362258320897817,0.20662322730720042
1772697812625914600,1.79691455078125,0.1170171906620264,-0.2515305827870965,0.31753859396278855
1772697812635962400,1.80696240234375,0.658925754090026,-0.29764497596919537,0.42008536072373387
1772697812646011600,1.81701171875,1.1958294949680566,-0.3771443368807435,0.5864180786967277
1772697812656059400,1.827059326171875,1.4891649371750653,-0.510922108207643,0.5198591556400061
1772697812666108700,1.837108642578125,1.65153737321496,-0.6085992231056094,0.13296996207535267
1772697812676157400,1.847157470703125,1.5550994447231292,-0.6743333857759833,-0.18309388315975664
1772697812686205400,1.857205322265625,1.3761311170607804,-0.6236360487177968,-0.4301847299337387
1772697812696254500,1.86725439453125,1.1208985379505902,-0.5363724835455417,-0.5579565388441086
1772697812706302500,1.877302490234375,0.8896663545656949,-0.3787520643383264,-0.5161468571186065
1772697812716351500,1.8873515625,0.8080793737251311,-0.14868483307957647,-0.4168471094548702
1772697812726400300,1.897400146484375,0.9013749125380068,0.14655541983544826,-0.29449966368079183
1772697812736448500,1.907448486328125,0.9640876084953546,0.35341157911568877,0.04063713081479072
1772697812746497300,1.917497314453125,0.9349589830361306,0.47826837736219163,0.35862171497941014
1772697812756545500,1.927545654296875,0.9090050420902669,0.6142991883128881,0.5805769514530896
1772697812766594300,1.93759423828125,0.6870965673677623,0.6801201524838805,0.8230524133861065
1772697812776643600,1.9476435546875,0.3243875830747187,0.6230898130118847,0.9567267243385315
1772697812786691300,1.95769140625,0.05101122531294822,0.5810983449786901,0.8927414511620998
1772697812796740600,1.96774072265625,-0.22871114047467708,0.5757002853274346,0.8138152139633893
1772697812806789400,1.977789306640625,-0.5061794437251985,0.5957403260543942,0.741250328490138
1772697812816837600,1.987837646484375,-0.6491127275407313,0.6127499130442738,0.537701686322689
1772697812826886400,1.997886474609375,-0.7134113044500351,0.6583759381875396,0.20890870789587496
1772697812836934700,2.0079345703125,-0.6056418346047401,0.6468889140114188,-0.11013561445474623
1772697812846983400,2.0179833984375,-0.39239509750455615,0.5348340219318867,-0.4555243383735418
1772697812857032400,2.028032470703125,-0.24192601135671138,0.38112230060100555,-0.7481587927043437
1772697812867080400,2.03808056640625,-0.1372340492606163,0.23157763582170007,-0.8815110320955515
1772697812877129500,2.04812939453125,-0.05305296027362346,0.1598839802250266,-0.9495984798938035
1772697812887177500,2.058177490234375,0.12295914793163537,0.1013625254124403,-0.8778390655845403
1772697812897226500,2.0682265625,0.40040567774176594,0.08701514336913824,-0.7712059062927961
1772697812907275500,2.078275634765625,0.5790840825468302,0.0989659856647253,-0.6870522898346185
1772697812917323500,2.088323486328125,0.6388511535063386,0.1792684796527028,-0.5563403358191251
1772697812927372500,2.09837255859375,0.6804091985583305,0.3157365129768848,-0.36278467987775803
1772697812937420500,2.108420654296875,0.586137800450623,0.4833434886693954,-0.2253898870974779
1772697812947469800,2.1184697265625,0.29787790794223545,0.5206316013172269,-0.14980769962966442
1772697812957518600,2.1285185546875,0.18779022428244352,0.49557080981880425,-0.11919161209166049
1772697812967566800,2.13856689453125,0.2921528082937002,0.4044780417472124,0.028472645768523215
1772697812977615600,2.14861572265625,0.43192192898988724,0.1968497290506959,0.13265607382059097
1772697812987664600,2.15866455078125,0.5832125606536865,0.07784896335601806,0.13130524373352526
1772697812997712600,2.168712646484375,0.7191136077448725,-0.011897943064570426,0.07270107907354831
1772697813007761700,2.17876171875,0.7863499916717409,-0.16854922497868538,0.20800971322953699
1772697813017809700,2.1888095703125,0.8332745321929454,-0.19455401932895183,0.2447960138350725
1772697813027858700,2.198858642578125,0.7368459560513496,-0.10922083769738673,0.24945523781776427
1772697813037907700,2.20890771484375,0.5509352619051933,0.05269318705052137,0.16548106957972047
1772697813047955500,2.21895556640625,0.37902269797325133,0.24095161336660384,0.049642275047302245
1772697813058004700,2.229004638671875,0.2805874581843614,0.4278817136883735,-0.02839315079152584
1772697813068052500,2.239052490234375,0.16549246775656937,0.5995666063442826,-0.15841946063041687
1772697813078101800,2.249101806640625,0.150147891369462,0.7457426714733243,-0.2861661350995302
1772697813088150500,2.259150634765625,0.11418021367043256,0.8696101664215325,-0.4610129989176988
1772697813098198500,2.269198486328125,0.12450696189552544,0.9969354006081819,-0.5865992804825305
1772697813108247600,2.27924755859375,0.19382628957629203,0.9905892464518546,-0.742792881757021
1772697813118295600,2.289295654296875,0.29772067155390974,1.0016045614629983,-0.7742278844624757
1772697813128344600,2.299344482421875,0.3167161716639995,0.9583666005000472,-0.835308083847165
1772697813138393600,2.3093935546875,0.2960959929615259,0.8272717846468091,-0.8573013044685125
1772697813148441600,2.319441650390625,0.2204360640823841,0.7069672428771853,-0.9086410310834646
1772697813158490600,2.32949072265625,0.09435556925982236,0.6518392298951745,-0.890516176328063
1772697813168538600,2.33953857421875,0.01246463703662157,0.5776949662759899,-0.8481623047232627
1772697813178587600,2.349587646484375,-0.1068368651703,0.4902589671462774,-0.8243465448498726
1772697813188636400,2.359636474609375,-0.22891104696094988,0.39023675042688843,-0.7043482925504445
1772697813198684700,2.3696845703125,-0.30777532483935355,0.244761527043581,-0.5432306788772344
1772697813208733400,2.3797333984375,-0.36697131791263815,0.06110825643539428,-0.40184769324362274
1772697813218782700,2.38978271484375,-0.34521775126606224,-0.07176788987666369,-0.3162462160646915
1772697813228830500,2.39983056640625,-0.3166059892877936,-0.14129706091582775,-0.369172335088253
1772697813238879700,2.409879638671875,-0.2798731724351644,-0.2051926099821925,-0.4637339483141899
1772697813248927500,2.419927490234375,-0.26190584632903335,-0.21133973443508147,-0.5058253695905208
1772697813258976800,2.429976806640625,-0.2823836939513683,-0.17467939829677342,-0.5453811349093913
1772697813269025500,2.440025634765625,-0.2373018586874008,-0.1666045206516981,-0.634762130627036
1772697813279073800,2.45007373046875,-0.14779986693859098,-0.21241993088722227,-0.6699491793423891
1772697813289122600,2.46012255859375,-0.11715747591555117,-0.3109682756617665,-0.6414554907858372
1772697813299170800,2.4701708984375,-0.15037497812360523,-0.4296443394467234,-0.48172611660063264
1772697813309219600,2.480219482421875,-0.23843378532677886,-0.5019827226877213,-0.22327917855381965
1772697813319268600,2.4902685546875,-0.3406979357540607,-0.5416074615895747,-0.10289981798231601
1772697813329316600,2.500316650390625,-0.4282306732565164,-0.5915154018357396,-0.07183774024248123
1772697813339365600,2.51036572265625,-0.512158664265275,-0.6174938927009701,-0.02920271360874176
1772697813349414700,2.52041455078125,-0.5877423130378127,-0.6023007074832916,0.05093114581406116
1772697813359462400,2.53046240234375,-0.6904165055707097,-0.5583619047746062,0.16441957782804964
1772697813369511700,2.54051171875,-0.8243281324103474,-0.6383025797128677,0.3326473157674074
1772697813379559400,2.550559326171875,-0.9647110010907053,-0.7459189048230648,0.4232429479718208
1772697813389608700,2.560608642578125,-1.174086449715495,-0.8327765195429324,0.5903460657954216
1772697813399657700,2.57065771484375,-1.3911279029235244,-0.8495908762216567,0.7013321595996618
1772697813409705700,2.580705810546875,-1.6520926690101623,-0.7489578341275454,0.702913291311264
1772697813419754500,2.59075439453125,-1.8750684807032345,-0.5558133893355727,0.5037742822796106
1772697813429802800,2.600802734375,-1.9978300602361558,-0.30269729092270137,0.25760873365700243
1772697813439851500,2.6108515625,-1.9641747511327265,-0.12252806303799152,0.027526304829120635
1772697813449900500,2.620900634765625,-1.7934256780222058,-0.057039107300341126,-0.32707214598357676
1772697813459948500,2.630948486328125,-1.545504225642979,-0.04781593640297651,-0.6758201172024011
1772697813469997600,2.64099755859375,-1.3310668174535036,-0.003533434823155403,-0.9431400975346564
1772697813480045600,2.651045654296875,-1.1963555646687745,0.09281213921010494,-1.0689087499290704
1772697813490094600,2.661094482421875,-1.0757900338754056,0.2821069228366017,-1.0511246714353562
1772697813500143600,2.6711435546875,-0.9289715791895985,0.48075727156847714,-0.8001508457481861
1772697813510191600,2.681191650390625,-0.7698536149010061,0.8649714007049798,-0.39127018512785433
1772697813520240600,2.69124072265625,-0.6049085518941283,1.4071484788760542,0.16050737282037733
1772697813530289700,2.70128955078125,-0.4440718009889126,1.872593030500412,0.7225304304510355
1772697813540337700,2.711337646484375,-0.24550913054049014,2.113909677787125,1.2182944247543812
1772697813550386700,2.72138671875,-0.06821808844059706,2.1838684724152087,1.6856319505184887
1772697813560434700,2.7314345703125,0.017062486220896244,2.04432673073411,2.125392318049073
1772697813570483700,2.741483642578125,0.00006108253747224807,1.745979451714456,2.4306238036245107
1772697813580532500,2.751532470703125,0.11789309671372175,1.3256588209301232,2.0555174023121596
1772697813590580700,2.761580810546875,0.4442278683334589,0.8901704316303134,1.212037702447176
1772697813600629500,2.77162939453125,0.6773577020332217,0.5034738380283117,0.46029286794960494
1772697813610677800,2.781677734375,0.5003600899219512,0.09555909983068704,-0.25445231545269487
1772697813620726500,2.7917265625,0.08486264151036739,-0.285142637270689,-1.2667238168805837
1772697813630775800,2.80177587890625,-0.2739633638694882,-0.5781590766564011,-2.147024888664484
1772697813640823600,2.811823486328125,-0.3425806807607412,-0.4182710047781467,-2.592124863657355
1772697813650872800,2.821872802734375,-0.2513788993567228,0.047262978695333004,-1.987753195118904
1772697813660920600,2.831920654296875,-0.16522621803581714,0.748831577399373,-0.7390899355858563
1772697813670969600,2.841969482421875,-0.2196650797098875,1.2279969036012888,0.3995265568196773
1772697813681018600,2.8520185546875,-0.42178661168366666,1.184532440406084,1.0113771829366682
1772697813691066600,2.862066650390625,-0.6382078871667385,0.7375289698794484,1.0867413437396287
1772697813701115600,2.87211572265625,-0.5308461213394999,0.20182751746326683,0.6530734478652477
1772697813711163600,2.88216357421875,0.052532735791802405,-0.07781389204263686,0.06791969001591205
1772697813721212700,2.892212646484375,0.8684528130799531,-0.1840615591481328,-0.3826788823932409
1772697813731261700,2.90226171875,1.5299343160673975,-0.14569851074516774,-0.7464408828705549
1772697813741309700,2.912309814453125,1.834596769583225,-0.04060410532802343,-0.9597767595589161
1772697813751358500,2.9223583984375,1.9628984475865958,0.15382833344787358,-1.043381509962678
1772697813761407500,2.932407470703125,2.0035449307516218,0.24343992305099962,-0.8365420095562934
1772697813771455500,2.94245556640625,2.0900708292990924,0.25255028122365475,-0.6775497174739837
1772697813781504500,2.95250439453125,2.066780846865475,0.1379524266630411,-0.42098026373684405
1772697813791552500,2.962552490234375,1.925018214264512,-0.09610299744904041,-0.1202414134055376
1772697813801601500,2.9726015625,1.7115230553612113,-0.21016572221964597,-0.057414662614464755
1772697813811650600,2.982650634765625,1.5956497740373015,-0.19168167876303194,0.0014957915157079696
1772697813821698600,2.992698486328125,1.5580935119725763,-0.13854016342312098,0.1722597699344158
1772697813831747600,3.00274755859375,1.5102655928708613,-0.024004852704703806,0.3848299229472875
1772697813841795600,3.012795654296875,1.4252420617103576,0.10562515129297971,0.5273550643533468
1772697813851844600,3.0228447265625,1.3754555558867751,0.2010845901414752,0.5434019437909126
1772697813861893600,3.0328935546875,1.254707946524769,0.33705256498903036,0.42944414069950576
1772697813871941600,3.042941650390625,1.0900796943821012,0.5012982475548983,0.34209085141718387
1772697813881990700,3.05299072265625,0.8173129929512739,0.6635904579654336,0.28480186100900173
1772697813892039400,3.063039306640625,0.41728213987126944,0.8500225456371903,0.205085350215435
1772697813902087700,3.073087646484375,0.05487345369905233,1.0119920999646186,0.12948913422226904
1772697813912136400,3.083136474609375,-0.28777532386183735,1.1455161887913943,0.09925941565334796
1772697813922184700,3.093184814453125,-0.5018135036006569,1.1445660484597087,0.08038695740103721
1772697813932234200,3.103234130859375,-0.6156159699998796,1.1051096518620849,0.06652092913389206
1772697813942283300,3.113283203125,-0.6079729079008102,1.0501660555362702,0.06240063433349132
1772697813952331300,3.123331298828125,-0.588049479290843,0.9847086639806628,-0.014970190116763114
1772697813962380300,3.13338037109375,-0.4906248778492212,0.8083779913455248,-0.01679389841258526
1772697813972428300,3.14342822265625,-0.3625429800763726,0.7392869194626808,-0.07738309940993786
1772697813982477300,3.153477294921875,-0.2933309121623635,0.7045026063293218,-0.1801157441318035
1772697813992526300,3.1635263671875,-0.2125536402694881,0.7209522213488817,-0.3891068696141243
1772697814002574300,3.17357421875,-0.11815496252030133,0.7356725283578037,-0.4944944127589464
1772697814012623400,3.183623291015625,0.10025339512676,0.6696425976112484,-0.6243412743777036
1772697814022671000,3.193671142578125,0.36020547703951594,0.43721623600572346,-0.733490215882659
1772697814032720400,3.203720458984375,0.5924971063494682,0.118424134850502,-0.6757914756298065
1772697814042769400,3.213769287109375,0.7598534682817757,-0.1409977857083082,-0.6816553992271422
1772697814052817400,3.2238173828125,0.8846145510688423,-0.32901451222300526,-0.5528595079660416
1772697814062866200,3.2338662109375,0.9536445404142141,-0.5016887081772089,-0.41035365578234195
1772697814072915200,3.243915283203125,0.8800919590778649,-0.4930167414218187,-0.3193891902655363
1772697814082963200,3.253963134765625,0.7220834173358976,-0.4533215676322579,-0.16956453950107098
1772697814093012200,3.26401220703125,0.618333558395505,-0.4308320879265666,-0.0657131198823452
1772697814103060200,3.274060302734375,0.5457616586595774,-0.4144295269191265,-0.04801204349696636
1772697814113109200,3.284109130859375,0.46981166079267855,-0.39410423950999973,0.026102409505844113
1772697814123158300,3.294158203125,0.4340805683284998,-0.3519841766610741,0.06424421637356281
1772697814133206300,3.304206298828125,0.33813363822400566,-0.28726766660064457,0.029275194323062893
1772697814143255300,3.31425537109375,0.27603973175212737,-0.233605049996078,0.022106617867946623
1772697814153303300,3.32430322265625,0.21368965856209396,-0.19802724839746952,0.010703180322051047
1772697814163352300,3.334352294921875,0.21430516011193393,-0.19421938054710625,0.007696984243392944
1772697814173401300,3.3444013671875,0.19267068980038166,-0.1963259974375367,0.0021837737798690794
1772697814183449300,3.354449462890625,0.1255576399922371,-0.18843553644865751,0.006519757157564162
1772697814193498400,3.364498291015625,0.042110710498690605,-0.19221417820453643,0.03215162654221058
1772697814203546400,3.37454638671875,-0.06153963358998298,-0.2152250514358282,0.0760953976869583
1772697814213595400,3.384595458984375,-0.14713643459379672,-0.23889175822734832,0.19138474164307118
1772697814223644200,3.39464404296875,-0.21834289119541644,-0.15619710840582846,0.17348960399031638
1772697814233692400,3.4046923828125,-0.29184593430161476,-0.08555968386381864,0.21435236025452611
1772697814243741200,3.4147412109375,-0.3684102646745741,-0.04018529539406299,0.2386614566028118
1772697814253789400,3.42478955078125,-0.49107890522703523,-0.04346943163126707,0.19612229155898092
1772697814263838200,3.434838134765625,-0.5974902384616434,-0.01775309883356094,0.07678980969190598
1772697814273887500,3.444887451171875,-0.702021895429492,-0.018568506869673727,0.03471650859415531
1772697814283935200,3.454935302734375,-0.7849806030146778,0.07847060238569975,-0.022616320955753326
1772697814293984500,3.464984619140625,-0.8488543786406516,0.16155366700291632,-0.05653787977993488
1772697814304033300,3.475033203125,-0.848872498819232,0.19304332250505685,-0.06089022977054119
1772697814314081500,3.48508154296875,-0.7719787903614341,0.16186901656240224,-0.0988654478996992
1772697814324130300,3.49513037109375,-0.6602665742397308,0.014319909514486789,-0.15105156221091745
1772697814334178300,3.50517822265625,-0.551255726031214,-0.16180618045926093,-0.20299276185035706
1772697814344227300,3.515227294921875,-0.4369039551861584,-0.3082096246033907,-0.22974457517564295
1772697814354276400,3.5252763671875,-0.37704350685477256,-0.39258682068437334,-0.22510405589342117
1772697814364324400,3.535324462890625,-0.3256372908748686,-0.42000235861539836,-0.16433716024160383
1772697814374373400,3.545373291015625,-0.34240649323761463,-0.39773441270589827,-0.0416840095192194
1772697814384421400,3.55542138671875,-0.2882419184602797,-0.43363983882367607,0.0899292772501707
1772697814394470100,3.56547021484375,-0.12574687895402312,-0.5355892242133617,0.18653613256812093
1772697814404519400,3.57551953125,-0.028435674759000537,-0.6309697526067495,0.19695757333934305
1772697814414567200,3.585567138671875,-0.035521395236253736,-0.7562205186069011,0.12880875074267387
1772697814424616400,3.595616455078125,-0.1198275719076395,-0.8639835587114095,0.07968319304585457
1772697814434664200,3.605664306640625,-0.30388825427293775,-0.9366849300459027,0.04015373121201992
1772697814444713500,3.61571337890625,-0.4596469712615013,-0.9786185304120183,0.041492870861291886
1772697814454762200,3.62576220703125,-0.5810835858009755,-0.9613537996172904,0.03335048093795776
1772697814464810500,3.635810546875,-0.7360263102315365,-0.9059478464767337,0.05599602798819542
1772697814474859300,3.645859375,-0.9444593634396791,-0.8231719481125473,0.03936521118283272
1772697814484908300,3.655908203125,-1.233770226305723,-0.7365174547493457,0.07135434063971043
1772697814494956300,3.665956298828125,-1.5290806218475101,-0.6304767083927989,0.12351298242211341
1772697814505005300,3.67600537109375,-1.8189245686769484,-0.5372843376934529,0.0625152006238699
1772697814515053300,3.68605322265625,-1.9555653282195329,-0.5321569116771221,-0.05150631535351276
1772697814525102300,3.696102294921875,-1.9055242631129918,-0.5331687190681695,-0.12369418420791625
1772697814535151400,3.7061513671875,-1.6597475676774978,-0.5840308912992477,-0.05773322704434394
1772697814545199400,3.716199462890625,-1.3305312492720782,-0.5989557809695601,-0.004990063372254372
1772697814555248400,3.726248291015625,-1.05677305258587,-0.6697390437230467,0.14557400758266448
1772697814565296400,3.73629638671875,-0.9103343909978866,-0.7110241170525551,0.2786503526419401
1772697814575345200,3.74634521484375,-0.7302114864729344,-0.6245604700863361,0.5227151295930147
1772697814585394400,3.75639453125,-0.3845375158719718,-0.29098581034094095,1.2779361157685518
1772697814595442200,3.766442138671875,0.06694719172194599,0.3418777931883931,2.515437929818034
1772697814605491500,3.776491455078125,0.41253567599654195,0.7928893303126097,3.7149563424319028
1772697814615539200,3.786539306640625,0.7047510281324386,0.8527335581615567,4.251194970464706
1772697814625588500,3.79658837890625,0.9242312527947127,0.5947638822376727,3.8988936906784772
1772697814635637200,3.80663720703125,1.1039636966973543,0.10670914713740348,2.808185781395435
1772697814645685500,3.816685546875,1.3637934674046932,-0.5527218530610204,1.5035796853661536
1772697814655734300,3.826734375,1.716173949906975,-1.2256129310742019,0.3515396477639675
1772697814665783300,3.836783203125,1.9373114402569829,-1.5642089261129497,-0.7688958757847547
1772697814675831300,3.846831298828125,1.72515395969823,-1.4980369565472005,-1.6439175458610056
1772697814685880300,3.85688037109375,1.19504462820068,-1.2804045517086982,-1.8028724285423754
1772697814695928300,3.86692822265625,0.6201742178261279,-0.9012591041386127,-1.5679565882086752
1772697814705977300,3.876977294921875,0.12258169292137026,-0.2530693366616964,-1.2083119599223135
1772697814716026400,3.8870263671875,-0.17780454457998274,0.42720396055728194,-0.815632492518425
1772697814726074000,3.89707421875,-0.27056173873245715,0.9372218134015798,-0.4898170685976743
1772697814736123400,3.907123291015625,-0.22901786833629012,1.0474813464969397,-0.22330898917019365
1772697814746171100,3.917171142578125,-0.37639585660099983,0.8288906180202961,-0.12942016063928605
1772697814756220400,3.927220458984375,-0.6862859816372394,0.5231815780609845,0.011319266393780707
1772697814766269200,3.937269287109375,-0.8447158175311982,0.13991583569049834,0.10533376713097095
1772697814776317400,3.9473173828125,-0.7090056168369948,-0.11189853247404098,-0.0211795661509037
1772697814786366200,3.9573662109375,-0.2902221324920654,-0.2283656880378723,-0.14951719225049018
1772697814796414500,3.96741455078125,0.41087490317746994,-0.3612494331344962,-0.2471142276495695
1772697814806463200,3.977463134765625,1.049850267585367,-0.4695771213844418,-0.3796154031693935
1772697814816512300,3.98751220703125,1.531213396092504,-0.5968482872962951,-0.39465456686913963
1772697814826560300,3.997560302734375,1.777426290988177,-0.7417597393169999,-0.49415714362859725
1772697814836609300,4.007609375,1.86558402852118,-0.8423962885424494,-0.6543266627967357
1772697814846658300,4.017658203125,1.7818116664655506,-0.7275117259949445,-0.8143880454152822
1772697814856706300,4.027706298828125,1.602504462237656,-0.41561201470196246,-0.7559329338371753
1772697814866755300,4.03775537109375,1.3707939938165246,-0.05121989962756633,-0.5056336464107036
1772697814876803300,4.04780322265625,1.1305518438935278,0.3023953853666782,-0.0865741216033697
1772697814886852400,4.057852294921875,0.9069389033406973,0.6053571724444627,0.2964022824317217
1772697814896901400,4.0679013671875,0.739850544694811,0.6614481852397323,0.677879387819767
1772697814906949400,4.077949462890625,0.7104314118564129,0.5280474305316806,0.9337012380599975
1772697814916998400,4.087998291015625,0.700037443614006,0.3844339093670249,1.0666945810109376
1772697814927046400,4.09804638671875,0.6120571084745228,0.21027239746451376,1.3707394871503114
1772697814937095400,4.108095458984375,0.26333558687120673,0.06840630448907613,1.5290835444569586
1772697814947144200,4.118144287109375,-0.12996829604133964,-0.031852935856580736,1.4055465966373681
1772697814957192400,4.1281923828125,-0.4889142745390534,-0.09568184942752123,1.2202800456136464
1772697814967241200,4.1382412109375,-0.695904581592977,-0.08510872522592544,0.9824784207105636
1772697814977289500,4.14828955078125,-0.7091289509557187,0.031553076127171516,0.7143424478203058
1772697814987338200,4.158338134765625,-0.4703162493139505,0.21879268078953026,0.39135201819241044
1772697814997387500,4.168387451171875,-0.16682488540410995,0.43801293934136626,-0.01563186889588833
1772697815007435300,4.178435302734375,0.09911620779037475,0.5960071602970362,-0.3625508711218834
1772697815017484500,4.188484619140625,0.32140725208967924,0.6828133370906114,-0.6322264746695756
1772697815027532300,4.1985322265625,0.4588645887121558,0.7967150260806083,-0.8136018634736537
1772697815037581600,4.20858154296875,0.5085483648136258,0.8193029977247118,-0.8072732449740171
1772697815047630300,4.21863037109375,0.5599260853514075,0.7403396433860063,-0.6345996335417032
1772697815057678300,4.22867822265625,0.6859151024982333,0.6363283570304512,-0.5921762038320303
1772697815067727400,4.238727294921875,0.7429127087444066,0.5620441004186868,-0.6504997979849576
1772697815077776400,4.2487763671875,0.7070388468086719,0.4610270274430513,-0.6357569868832826
1772697815087824400,4.258824462890625,0.6804451466545463,0.375261591874063,-0.6333534328728914
1772697815097873200,4.268873046875,0.6372150767371058,0.32208442069888116,-0.5428805502653121
1772697815107921400,4.27892138671875,0.4867418989360332,0.2699827698007226,-0.5519605132997035
1772697815117970200,4.28897021484375,0.2670908477514982,0.1880973905354738,-0.6169745450019836
1772697815128019500,4.29901953125,0.16528174761533737,0.09000321926921606,-0.532535681861639
1772697815138067200,4.309067138671875,0.13528788362890481,0.07281973701715469,-0.46792789287269115
1772697815148116200,4.3191162109375,0.1693602491006255,-0.008535188633203506,-0.36251229267716406
1772697815158164200,4.329164306640625,0.20567104114890097,0.0014674422040581703,-0.31551439465880393
1772697815168213200,4.339213134765625,0.24544600217640397,0.02301964105963707,-0.2327139463752508
1772697815178262300,4.34926220703125,0.21775749252289534,-0.014141338077187537,-0.11151567063629626
1772697815188310300,4.359310302734375,0.19636340683847664,0.002463759765028953,-0.07061784305870533
1772697815198359300,4.369359375,0.12969371688365935,-0.010087971033155918,-0.007823240971565245
1772697815208407300,4.3794072265625,0.10463643251657485,0.02330108834952116,-0.04850070379674434
1772697815218456300,4.389456298828125,0.012457038252055644,0.22088000845760106,-0.1744166557073593
1772697815228505300,4.39950537109375,-0.08614449801445007,0.3356704629808664,-0.3358843979924917
1772697815238553300,4.40955322265625,-0.10142185438424348,0.4557569780856371,-0.5059580560594796
1772697815248602400,4.419602294921875,-0.15244681596159934,0.35205899546295405,-0.6749748985499143
1772697815258651100,4.429651123046875,-0.20483166771531103,0.04172141892015934,-0.855996651610732
1772697815268699400,4.439699462890625,-0.2949564675375819,-0.1742763704538345,-0.9640314943939446
1772697815278748200,4.449748046875,-0.44915304977595805,-0.2736994522362947,-0.9378940135747194
1772697815288796400,4.45979638671875,-0.6253764626443385,-0.3187073454812169,-0.8745914619654417
1772697815298845200,4.46984521484375,-0.8521662796676158,-0.33742958160787817,-0.8747253174781798
1772697815308894500,4.47989453125,-1.0568754900470376,-0.3212944393649697,-0.8103776407301425
1772697815318942200,4.489942138671875,-1.3077134143948554,-0.26503070035129783,-0.7407745276719331
1772697815328991500,4.499991455078125,-1.5735007783323525,-0.2651297768115997,-0.7364128253310919
1772697815339039200,4.510039306640625,-1.8232424318760632,-0.26498832251429555,-0.6942769803911447
1772697815349088500,4.520088623046875,-2.1109566732004286,-0.26322160510271786,-0.6368716701269149
1772697815359137300,4.53013720703125,-2.4075892572566864,-0.23264818766266107,-0.6047989540398121
1772697815369185300,4.540185302734375,-2.6759210449799893,-0.19522183558791875,-0.5921966620981693
1772697815379234300,4.550234375,-2.8586913952738047,-0.10999240659177302,-0.584009848511219
1772697815389282300,4.5602822265625,-2.845110029166937,0.028961013807356356,-0.6055103171795606
1772697815399331300,4.570331298828125,-2.570157069738209,0.02707067001610994,-0.5117044907569885
1772697815409380400,4.58038037109375,-2.1127251441776753,0.02023877816945314,-0.5066764334619045
1772697815419428400,4.590428466796875,-1.5194517927587032,0.018648001846671102,-0.4297790717422962
1772697815429477000,4.60047705078125,-0.9138038206741214,0.07933189539015292,-0.3582289162695408
1772697815439526400,4.6105263671875,-0.3995727340489626,0.03780541452020406,-0.33358138174712654
1772697815449574100,4.62057421875,-0.10931085406839847,-0.0802633310213685,-0.3094195849150419
1772697815459623400,4.63062353515625,-0.00936287162899971,-0.13570318643152712,-0.27503976092934607
1772697815469671200,4.640671142578125,-0.04165741377323866,-0.0913888284087181,-0.15089432582259177
1772697815479720400,4.650720458984375,-0.09215981278121471,0.18802052590698,0.09776946935653685
1772697815489769200,4.660769287109375,-0.33003830231279135,0.8133791606336832,0.795315096154809
1772697815499817500,4.6708173828125,-0.8861667489469051,1.5570155074775218,2.1810206817686555
1772697815509866200,4.6808662109375,-1.4645917830631137,2.1898425783887503,3.300763546878099
1772697815519914500,4.69091455078125,-1.6642925176307557,2.5377073370322583,3.5687060430228708
1772697815529963300,4.70096337890625,-1.4416785249873996,2.486340430149436,3.0704853032171724
1772697815540012300,4.71101220703125,-0.8203253265097736,1.9033584633812308,2.0715917542785407
1772697815550060300,4.721060302734375,-0.016899112352728844,1.229081776228547,1.0978016669362782
1772697815560109300,4.731109375,0.6039946519196033,0.5371326542630791,0.35823417696654797
1772697815570157300,4.7411572265625,0.9048588821962475,-0.2339832356587052,-0.29174656558036804
1772697815580206300,4.751206298828125,0.9574962474063038,-0.6435317125380039,-1.4499720138192176
1772697815590255400,4.76125537109375,1.1291411003127694,-0.2901709868267178,-2.26575882011652
1772697815600303400,4.771303466796875,1.4974290537819266,0.4415945972204208,-1.9445213716357945
1772697815610352400,4.781352294921875,1.7111960153639316,1.1482438601896165,-1.059803067931533
1772697815620401400,4.7914013671875,1.6057468051597474,1.6423562878936528,-0.24174364052712916
1772697815630449400,4.801449462890625,1.3223685472130775,1.8711893011823295,0.24511808539628982
1772697815640498400,4.81149853515625,0.9888359730437397,1.5343158921524882,0.40699323943853377
1772697815650546400,4.82154638671875,0.7365642165005206,0.7472416778594255,0.45074002670645713
1772697815660595500,4.831595458984375,0.6198761116623878,-0.029850656123459336,0.40853170105218883
1772697815670644200,4.841644287109375,0.6822413824215531,-0.5428910716593265,0.11030395675897597
1772697815680692500,4.8516923828125,1.0550056045219303,-0.6403554205894469,-0.32877135111689565
1772697815690741200,4.8617412109375,1.6211606473907827,-0.4652478600084781,-0.6222761585414409
1772697815700789200,4.871789306640625,2.085690422257781,-0.27817542860656974,-0.7347352475076914
1772697815710838300,4.88183837890625,2.3210662813186644,-0.16142361088246107,-0.7288608025163412
1772697815720887300,4.89188720703125,2.2991823662906885,-0.218873344810307,-0.5930670151919126
1772697815730935300,4.901935302734375,2.1975150127127767,-0.33401743507683274,-0.35981998485326766
1772697815740984300,4.911984375,1.9673989738762379,-0.39172465089708564,-0.20500994689166543
1772697815751032300,4.9220322265625,1.6257736941441892,-0.39250761796832084,-0.076457801258564
1772697815761081300,4.932081298828125,1.3277429337278008,-0.36252164502739903,0.11494622960686683
1772697815771130400,4.94213037109375,1.1904691369786857,-0.23679712403565645,0.15709493402838706
1772697815781178000,4.95217822265625,1.0970035022959113,-0.02560059746354818,0.20292904896438121
1772697815791227400,4.962227294921875,0.9923635626479983,0.25015111112743615,0.3533955047637224
1772697815801276200,4.972276123046875,0.8546431911751627,0.3943643517509103,0.6697066027581692
1772697815811324400,4.982324462890625,0.6910334684252738,0.409544092965126,0.8368255026727914
1772697815821373200,4.992373291015625,0.5165650825306772,0.38180209955871103,0.7860778967320918
1772697815831421400,5.00242138671875,0.47606765244752164,0.3402709425136447,0.7263841832697391
1772697815841470200,5.01247021484375,0.3242582576066255,0.32958383654356,0.7904232324600219
1772697815851519200,5.022519287109375,-0.004572130221128463,0.28870325236171485,0.6021855566710234
1772697815861567200,5.032567138671875,-0.23468290836066005,0.25879092917889357,0.38533845699131486
1772697815871616300,5.0426162109375,-0.21623539752215146,0.1586222897261381,0.1755272472977638
1772697815881664300,5.052664306640625,-0.11636661779880524,0.011271627859771252,-0.1020376481950283
1772697815891713300,5.06271337890625,0.0027799861073493958,0.035467326961457726,-0.16482231341004372
1772697815901762300,5.07276220703125,0.21003888096958398,0.18044219960719346,-0.26185470066368577
1772697815911810300,5.082810302734375,0.5032072960466146,0.33363515776097774,-0.3454395773231983
1772697815921859300,5.092859375,0.8147063175842165,0.4462877234727144,-0.3499018174290657
1772697815931906300,5.10290625,1.148655655860901,0.49233255854994057,-0.1678723486304283
1772697815941955300,5.112955322265625,1.4007450415745377,0.4417132551640272,-0.19450491949021814
1772697815952004000,5.123004150390625,1.4619780934333801,0.29825375551730393,-0.21185878987312315
1772697815962052400,5.13305224609375,1.3986916161760687,0.1893225484162569,-0.14872984126508235
1772697815972101000,5.14310107421875,1.4032307209104298,0.15522300267666578,-0.05958791500031948
1772697815982150400,5.153150390625,1.4371294833809136,0.16898294022083282,-0.01661035853922367
1772697815992198100,5.1631982421875,1.5312737479776144,0.14108312590420247,0.023159341791272162
1772697816002247400,5.173247314453125,1.576611749959737,0.06442015746235848,-0.04921557406783104
1772697816012295200,5.183295166015625,1.4514393098928033,-0.07560176895111799,-0.16241583679020405
1772697816022344400,5.193344482421875,1.172407264456898,-0.14776187301576138,-0.25547815136909485
1772697816032393200,5.203393310546875,0.8543287183985113,-0.13311784611344338,-0.2655494635283947
1772697816042441200,5.213441162109375,0.4968944596379995,-0.10601765774190425,-0.18736323104202746
1772697816052490200,5.223490234375,0.15181787040829658,-0.056740416614711284,-0.09837211142480373
1772697816062538200,5.233538330078125,-0.15044468235895037,-0.0041112347111105915,0.08345803540945053
1772697816072587300,5.243587158203125,-0.2809812798075378,-0.005675707548856735,0.19992460645139215
1772697816082636300,5.25363623046875,-0.2583691966354847,0.05901186867803335,0.16811024903953076
1772697816092684300,5.263684326171875,-0.23790844627842306,0.12276479440331459,0.27991993418633937
1772697816102733000,5.273733154296875,-0.20084405938386915,0.19168898528665304,0.27860943610966205
1772697816112781300,5.28378125,-0.1580827760219574,0.23238427602946757,0.22315759800076485
1772697816122830000,5.293830078125,-0.15520575928092,0.23725509693622587,0.16876783616542815
1772697816132879400,5.30387939453125,-0.13767068711221217,0.20893471911996603,0.17113281173110007
1772697816142927000,5.313927001953125,-0.16366671363413332,0.1659118622124195,0.16956512402296064
1772697816152976400,5.323976318359375,-0.21305559844225644,0.16788082419782877,0.05110884046852588
1772697816163024100,5.334024169921875,-0.2851407375745475,0.24790450124442576,-0.051448447686433786
1772697816173073400,5.344073486328125,-0.37079365267977116,0.3011594138309359,-0.11693418855369091
1772697816183122200,5.3541220703125,-0.42766310250163075,0.3037196197077632,-0.18183365396559237
1772697816193170400,5.36417041015625,-0.46784372172057626,0.26965514528155327,-0.29410335783958436
1772697816203219200,5.37421923828125,-0.4735886951133609,0.15901333487033842,-0.432884636542201
1772697816213267200,5.38426708984375,-0.45802316945195193,-0.008715513636171818,-0.5328530772477388
1772697816223316200,5.394316162109375,-0.46790845751985904,-0.24474895982295272,-0.46030222029983997
1772697816233365200,5.404365234375,-0.597101239144057,-0.48496729047894477,-0.41789515720307824
1772697816243413200,5.414413330078125,-0.6289150120340288,-0.5942930498555302,-0.45027708536982536
1772697816253462300,5.424462158203125,-0.5522818542085588,-0.5364587005242705,-0.47367958826720713
1772697816263510300,5.43451025390625,-0.48956806227266786,-0.35919746904075145,-0.4722609536409378
1772697816273559300,5.444559326171875,-0.29202406734749675,-0.08868950632214545,-0.3957704191565513
1772697816283608300,5.4546083984375,-0.12639847473055124,0.09199673117399215,-0.27799919525682926
1772697816293656300,5.46465625,-0.17666648046076297,0.23189269312024116,-0.2848801869422197
1772697816303705000,5.474705078125,-0.4929553666234016,0.29472324330359695,-0.3665852412045002
1772697816313754400,5.48475439453125,-0.8513951491646468,0.13326339206397533,-0.41123628383576866
1772697816323802000,5.494802001953125,-1.0632634375184773,-0.14004501502811909,-0.42776773191988465
1772697816333851400,5.504851318359375,-1.1994210897192359,-0.4083721265763044,-0.3445587028354406
1772697816343899100,5.514899169921875,-1.3645317185513675,-0.5385322919279336,-0.24043255792856216
1772697816353948400,5.524948486328125,-1.4531953597798943,-0.4467927503854036,-0.06193477038741112
1772697816363997200,5.5349970703125,-1.3209912675105036,-0.3924743002206087,0.2814823611974716
1772697816374045200,5.545045166015625,-1.0467230754755437,-0.3658820613712072,0.41023967401385303
1772697816384094200,5.55509423828125,-0.786335086363554,-0.4119116988793015,0.47511634307205675
1772697816394142200,5.56514208984375,-0.4646509170286357,-0.4263955667838454,0.6063771631419659
1772697816404191200,5.575191162109375,-0.19478490547537802,-0.44811844603121276,0.9237298791438341
1772697816414240300,5.585240234375,0.3182099173530936,-0.026786884638667106,1.2204004571229219
1772697816424288300,5.595288330078125,0.9724123692482709,0.7055451011195778,1.5913170055299997
1772697816434337000,5.6053369140625,1.6696587208390234,1.0231015230000018,1.917733317953348
1772697816444386300,5.61538623046875,1.984521081329882,0.597808949021995,1.6450632087647914
1772697816454434000,5.62543408203125,2.049878081250936,0.1498722892984748,0.9470505489766597
1772697816464483300,5.6354833984375,2.139377588781714,-0.03476940782517195,0.6470645628392696
1772697816474531000,5.645531005859375,2.467666124817729,0.10400134948343039,0.6379261476159095
1772697816484580400,5.655580322265625,2.8388065451085565,0.49787294928133485,0.6134539696604013
1772697816494629000,5.665629150390625,2.817657958617806,0.7463973359897732,0.3484732459306717
1772697816504677400,5.675677490234375,2.4230501534998417,0.7073603338479996,-0.15321429320275784
1772697816514726100,5.68572607421875,1.8256543153233824,0.545297840540111,-0.666650137796998
1772697816524774400,5.6957744140625,1.2654859456487,0.40472003380954263,-0.8976409136414527
1772697816534823200,5.7058232421875,0.8945857638545334,0.22296850516945121,-0.822599993443489
1772697816544872200,5.7158720703125,0.7323598966784775,0.13578414271324873,-0.5616074625670909
1772697816554920200,5.725920166015625,0.6363404858596623,-0.0006488192975521087,-0.24619594376087187
1772697816564969200,5.73596923828125,0.35593978241905566,-0.1882113723039627,-0.022009002712368962
1772697816575018200,5.746018310546875,-0.017836100941896436,-0.3796215406492352,0.10898176824450492
1772697816585066200,5.756066162109375,-0.37124782618805763,-0.4103954490974545,0.04692658634781837
1772697816595115300,5.766115234375,-0.8107546573489904,-0.28628450078219175,-0.009727028766274452
1772697816605163300,5.776163330078125,-1.0895870885595678,-0.1932522890806198,0.11128712257742882
1772697816615212300,5.78621240234375,-0.9296353037953377,0.0029290391892194748,0.08792612073421478
1772697816625261300,5.79626123046875,-0.4310070061020553,0.12194529471397399,-0.01198269873857498
1772697816635309300,5.806309326171875,0.1491609261587262,0.08088233970254659,-0.07437164263427257
1772697816645358300,5.8163583984375,0.6981188966415822,-0.013218085752427578,-0.07074760691821574
1772697816655406300,5.82640625,1.1156699165821076,-0.08958382481336594,0.04365793994069099
1772697816665455400,5.836455322265625,1.3757675444453954,-0.14411971712112426,0.058014382073283195
1772697816675504000,5.846504150390625,1.4693174964107572,-0.16738427285254,0.0465811339110136
1772697816685552400,5.856552490234375,1.4412221595220267,-0.1575616747573018,0.08295476206243038
1772697816695601200,5.86660107421875,1.3076648990780115,-0.08520663264244795,0.054801849767565726
1772697816705650400,5.876650390625,1.131734331676364,0.0276759424328804,-0.19954992792010307
1772697816715698200,5.8866982421875,1.0582669444054364,0.16677987721860407,-0.21793314135074615
1772697816725747500,5.89674755859375,1.0404935334362089,0.3392199721559882,-0.20851298657655715
1772697816735795200,5.906795166015625,0.8274236142076551,0.5075950096115469,-0.24447218870818613
1772697816745844200,5.91684423828125,0.46367900325655936,0.6521817597225308,-0.3129372376471758
1772697816755893200,5.926893310546875,0.1426017137736082,0.8028224030449986,-0.386837755638361
1772697816765941200,5.936941162109375,-0.11282251545116305,0.8621461141511797,-0.4013321449369192
1772697816775990300,5.946990234375,-0.35673677801564335,0.8261749293208122,-0.36130525497496124
1772697816786038300,5.957038330078125,-0.6026666181862353,0.7837287032574415,-0.2851753704965114
1772697816796087300,5.96708740234375,-0.7858300594508647,0.7440317759022116,-0.2586450909674167
1772697816806136000,5.977135986328125,-0.8110467721633613,0.5278790882274508,-0.18545009089708328
1772697816816184300,5.987184326171875,-0.6644083502195776,0.35086218689382076,-0.25390169583261013
1772697816826233000,5.997233154296875,-0.4709865497909486,0.21192688667327164,-0.32251345976591106
1772697816836281300,6.00728125,-0.24315102310702202,0.12925561772733926,-0.3407482046365738
1772697816846330000,6.017330078125,-0.024859423707425592,0.2258531206950545,-0.17190905680060387
1772697816856379400,6.02737939453125,0.12517653172016144,0.40542964338362214,0.0868967776864767
1772697816866427100,6.03742724609375,0.3531618421383202,0.34085663344711065,0.037839024528861044
1772697816876476200,6.04747607421875,1.6480794878460465,-0.06695669020265341,-0.28670389523804185
1772697816886525200,6.057525146484375,2.8354963976472614,0.49737932054549455,0.460382299798727
1772697816896573200,6.0675732421875,2.9217122073322535,0.5673533127427101,1.0820587388813494
1772697816906622200,6.077622314453125,1.644127681480348,0.37385786255598064,0.9389461529761552
1772697816916670200,6.087670166015625,-0.1896175858400762,0.3366203110516071,0.33675825821757316
1772697816926719200,6.09771923828125,-2.0501976685941217,0.047943069913983345,-0.2466518708348274
1772697816936768800,6.107768798828125,-3.3911019894510503,-0.38096974038779735,-0.8135282137155533
1772697816946817000,6.117817138671875,-3.3373183768153187,-0.483155857142806,-0.6779448542714118
1772697816956865800,6.12786572265625,-1.98184835498929,-0.33171324978768824,-0.15935703374147414
1772697816966914000,6.1379140625,-0.9060656276375055,-0.2343091066122055,-0.0901169087767601
1772697816976962800,6.147962890625,-0.39109833569228647,-0.0672442749723792,-0.16050854186415672
1772697816987011800,6.15801171875,-0.16973814250230787,0.16342326026707887,-0.053413610279560084
1772697816997059800,6.168059814453125,-0.010421733032166957,0.1905667032584548,0.16038053157031534
