time,seconds_elapsed,z,y,x
1772697810886248700,0.057248779296875,0.0924881249666214,0.11050494015216827,0.02227175049483776
1772697810896297700,0.067297607421875,0.0949893593788147,0.12699922919273376,0.027961593121290207
1772697810906345700,0.077345703125,0.09544556587934494,0.1376127302646637,0.021519407629966736
1772697810916394500,0.08739453125,0.09747275710105896,0.13514184951782227,0.012204734608530998
1772697810926442500,0.0974423828125,0.09143297374248505,0.11763928085565567,-0.000985103310085833
1772697810936491300,0.1074912109375,0.08423152565956116,0.10123421251773834,-0.017122261226177216
1772697810946540300,0.117540283203125,0.08019949495792389,0.08182988315820694,-0.016654077917337418
1772697810956588300,0.12758837890625,0.07064300775527954,0.06940330564975739,-0.007859254255890846
1772697810966637000,0.137636962890625,0.06628474593162537,0.06545330584049225,0.011472897604107857
1772697810976685300,0.147685302734375,0.05627712234854698,0.05982871353626251,0.022313294932246208
1772697810986734000,0.157734130859375,0.05559215694665909,0.0523444302380085,0.025840917602181435
1772697810996783400,0.167783447265625,0.05997172370553017,0.053643520921468735,0.024112259969115257
1772697811006831000,0.1778310546875,0.06367325037717819,0.05416097119450569,0.023994814604520798
1772697811016880400,0.18788037109375,0.06602908670902252,0.057612430304288864,0.022547386586666107
1772697811026928000,0.19792822265625,0.06663495302200317,0.04976995289325714,0.016021044924855232
1772697811036977400,0.207977294921875,0.06809250265359879,0.03869812563061714,0.006923686247318983
1772697811047026200,0.218026123046875,0.07489021867513657,0.030918501317501068,0.0013526194961741567
1772697811057074400,0.228074462890625,0.07157272100448608,0.027901405468583107,-0.0007667240570299327
1772697811067123200,0.238123291015625,0.0746377557516098,0.05254470184445381,0.00848616287112236
1772697811077171200,0.248171142578125,0.08131536096334457,0.08632423728704453,0.0300870630890131
1772697811087220200,0.25822021484375,0.08573008328676224,0.09097091853618622,0.04412991181015968
1772697811097269200,0.268269287109375,0.08851069211959839,0.08538919687271118,0.042457446455955505
1772697811107317200,0.278317138671875,0.09696223586797714,0.0893423929810524,0.03226685896515846
1772697811117366300,0.2883662109375,0.1074308529496193,0.09425219893455505,0.023977238684892654
1772697811127415300,0.298415283203125,0.11793675273656845,0.1013689637184143,0.020559070631861687
1772697811137463300,0.30846337890625,0.12426389753818512,0.12376482039690018,0.023065637797117233
1772697811147512300,0.31851220703125,0.12585699558258057,0.14545626938343048,0.030411435291171074
1772697811157560300,0.328560302734375,0.13120035827159882,0.1475772112607956,0.038718633353710175
1772697811167609000,0.338609130859375,0.13292555510997772,0.14312972128391266,0.030134201049804688
1772697811177658400,0.348658447265625,0.13326723873615265,0.13090474903583527,0.01410649809986353
1772697811187706000,0.3587060546875,0.14187085628509521,0.11340059340000153,-0.01480397954583168
1772697811197755400,0.36875537109375,0.14969122409820557,0.12435790151357651,-0.03893567994236946
1772697811207803100,0.37880322265625,0.15729667246341705,0.14249002933502197,-0.06442106515169144
1772697811217852400,0.388852294921875,0.15833663940429688,0.14701475203037262,-0.08911469578742981
1772697811227901200,0.398901123046875,0.1672166883945465,0.13172553479671478,-0.10478686541318893
1772697811237949200,0.40894921875,0.1676987260580063,0.08528880029916763,-0.12403619289398193
1772697811247998200,0.418998291015625,0.16748008131980896,0.011386877857148647,-0.16160008311271667
1772697811258046200,0.429046142578125,0.15564365684986115,-0.060148559510707855,-0.2082059383392334
1772697811268095200,0.43909521484375,0.15169444680213928,-0.10785163193941116,-0.25026363134384155
1772697811278144300,0.449144287109375,0.1584801822900772,-0.1304597407579422,-0.27438414096832275
1772697811288192300,0.459192138671875,0.16572052240371704,-0.1324017196893692,-0.295210599899292
1772697811298241000,0.469240966796875,0.1744021624326706,-0.12073946744203568,-0.31709086894989014
1772697811308290300,0.479290283203125,0.19164399802684784,-0.0910034105181694,-0.3287946581840515
1772697811318338000,0.489338134765625,0.21973368525505066,-0.0124822361394763,-0.32351014018058777
1772697811328387300,0.49938720703125,0.24004855751991272,0.09443303197622299,-0.2981017231941223
1772697811338435000,0.50943505859375,0.24443930387496948,0.19372126460075378,-0.26622289419174194
1772697811348484400,0.519484375,0.23801389336585999,0.2183736115694046,-0.2681252062320709
1772697811358533000,0.529533203125,0.24011006951332092,0.1870604306459427,-0.2954164743423462
1772697811368581400,0.539581298828125,0.25118643045425415,0.15940697491168976,-0.3148897588253021
1772697811378630100,0.549630126953125,0.26295706629753113,0.15282763540744781,-0.3090795576572418
1772697811388678400,0.559678466796875,0.26631611585617065,0.14900173246860504,-0.29215994477272034
1772697811398727200,0.56972705078125,0.26555365324020386,0.13895389437675476,-0.2749905586242676
1772697811408776200,0.579776123046875,0.27492663264274597,0.08249408006668091,-0.29913344979286194
1772697811418824200,0.58982421875,0.286319375038147,0.001928128651343286,-0.34100791811943054
1772697811428873200,0.599873291015625,0.2879082262516022,0.056830793619155884,-0.3234933614730835
1772697811438921200,0.609921142578125,0.2601066827774048,0.1647561937570572,-0.2471589297056198
1772697811448970200,0.61997021484375,0.2593942880630493,0.17601603269577026,-0.1695709228515625
1772697811459019300,0.630019287109375,0.2663973271846771,0.2307562530040741,-0.11344773322343826
1772697811469067300,0.6400673828125,0.267679899930954,0.2856551706790924,-0.09965015947818756
1772697811479116300,0.6501162109375,0.27776476740837097,0.32877787947654724,-0.10635626316070557
1772697811489165300,0.660165283203125,0.30003440380096436,0.3825681507587433,-0.08333510160446167
1772697811499213300,0.67021337890625,0.29501351714134216,0.3799832761287689,-0.08226877450942993
1772697811509262300,0.680262451171875,0.2754741907119751,0.29994356632232666,-0.13739833235740662
1772697811519310300,0.690310302734375,0.2696423828601837,0.1851610690355301,-0.21812833845615387
1772697811529359400,0.700359375,0.28222689032554626,0.10658343136310577,-0.27355432510375977
1772697811539408100,0.710408203125,0.285420298576355,0.0697133019566536,-0.3063521981239319
1772697811549456400,0.720456298828125,0.28013497591018677,0.055330101400613785,-0.32746362686157227
1772697811559505200,0.730505126953125,0.2672916352748871,0.03743232786655426,-0.3527332842350006
1772697811569553200,0.74055322265625,0.2472665160894394,-0.006573746912181377,-0.3661186099052429
1772697811579602200,0.750602294921875,0.23285162448883057,-0.041612692177295685,-0.3815454840660095
1772697811589651500,0.7606513671875,0.20914523303508759,-0.0780298188328743,-0.38840553164482117
1772697811599699200,0.77069921875,0.18517304956912994,-0.10104379057884216,-0.39851221442222595
1772697811609748200,0.780748291015625,0.14900891482830048,-0.12166304886341095,-0.4269518554210663
1772697811619797200,0.79079736328125,0.13042032718658447,-0.1710529774427414,-0.48814091086387634
1772697811629845200,0.80084521484375,0.13400307297706604,-0.21818585693836212,-0.5620609521865845
1772697811639894300,0.810894287109375,0.14305995404720306,-0.23732493817806244,-0.6209197044372559
1772697811649942300,0.8209423828125,0.1577877700328827,-0.23581039905548096,-0.6694502234458923
1772697811659991300,0.8309912109375,0.1741212010383606,-0.22417931258678436,-0.7197688221931458
1772697811670040000,0.8410400390625,0.20825360715389252,-0.18964503705501556,-0.7655341625213623
1772697811680088300,0.85108837890625,0.2550533413887024,-0.10674748569726944,-0.7811187505722046
1772697811690137000,0.86113720703125,0.3010975122451782,-0.013660152442753315,-0.7652995586395264
1772697811700185300,0.871185302734375,0.33066633343696594,0.07296102494001389,-0.7121905088424683
1772697811710234000,0.881234130859375,0.33746564388275146,0.10687211900949478,-0.6365785598754883
1772697811720283400,0.891283447265625,0.3412891626358032,0.10375409573316574,-0.5482569932937622
1772697811730331100,0.9013310546875,0.3475894033908844,0.11637694388628006,-0.4517024755477905
1772697811740380200,0.911380126953125,0.34976571798324585,0.132118359208107,-0.3503233790397644
1772697811750428200,0.92142822265625,0.33854636549949646,0.13983939588069916,-0.24337297677993774
1772697811760477200,0.931477294921875,0.3245868682861328,0.14604082703590393,-0.13363049924373627
1772697811770526200,0.941526123046875,0.3064262568950653,0.12529747188091278,-0.027344806119799614
1772697811780574200,0.95157421875,0.2968393862247467,0.08266425132751465,0.05985188111662865
1772697811790623200,0.961623291015625,0.2981722950935364,0.07349259406328201,0.1264474242925644
1772697811800671200,0.971671142578125,0.285460501909256,0.12434618920087814,0.18004806339740753
1772697811810720300,0.98172021484375,0.27133217453956604,0.1796904057264328,0.19779537618160248
1772697811820769300,0.991769287109375,0.25537556409835815,0.2153373509645462,0.1816246509552002
1772697811830817300,1.0018173828125,0.24692216515541077,0.22911468148231506,0.1470823884010315
1772697811840866300,1.0118662109375,0.23503302037715912,0.23619681596755981,0.11557799577713013
1772697811850915000,1.0219150390625,0.22660250961780548,0.2389499992132187,0.0806993767619133
1772697811860963300,1.03196337890625,0.20753800868988037,0.20502957701683044,0.02116973325610161
1772697811871012000,1.04201220703125,0.1940578818321228,0.14760170876979828,-0.0356658510863781
1772697811881060000,1.05206005859375,0.16248318552970886,0.13485422730445862,-0.07413308322429657
1772697811891109000,1.062109130859375,0.1371285617351532,0.15209685266017914,-0.08347491919994354
1772697811901158400,1.072158447265625,0.12403299659490585,0.17672337591648102,-0.06700699776411057
1772697811911206100,1.0822060546875,0.11160216480493546,0.19275560975074768,-0.04586043208837509
1772697811921255400,1.09225537109375,0.10774990171194077,0.18404972553253174,-0.04355360195040703
1772697811931303400,1.102303466796875,0.09578671306371689,0.12976838648319244,-0.03864406421780586
1772697811941352700,1.112352783203125,0.08555484563112259,0.09383168816566467,-0.024759940803050995
1772697811951401500,1.1224013671875,0.07465000450611115,0.10159506648778915,-0.012047608382999897
1772697811961449500,1.132449462890625,0.054313838481903076,0.14338698983192444,-0.013218866661190987
1772697811971498500,1.14249853515625,0.02779674343764782,0.14557130634784698,-0.03334197774529457
1772697811981547500,1.152547607421875,0.004738828632980585,0.11037711054086685,-0.04097166657447815
1772697811991595500,1.162595458984375,-0.01888980157673359,0.05030578002333641,-0.028239361941814423
1772697812001644300,1.172644287109375,-0.032346222549676895,0.046836480498313904,0.004233627114444971
1772697812011692500,1.182692626953125,-0.04879496991634369,0.06615345180034637,0.04333256185054779
1772697812021741300,1.1927412109375,-0.07882610708475113,0.12230434268712997,0.08539372682571411
1772697812031790600,1.20279052734375,-0.10137589275836945,0.178703173995018,0.1284370720386505
1772697812041838300,1.21283837890625,-0.10550405830144882,0.1754770129919052,0.1479918658733368
1772697812051887600,1.2228876953125,-0.11183305829763412,0.1685197651386261,0.16180594265460968
1772697812061935400,1.232935302734375,-0.11637694388628006,0.15609079599380493,0.18033088743686676
1772697812071984600,1.242984619140625,-0.12880884110927582,0.18065926432609558,0.2176247388124466
1772697812082033400,1.253033447265625,-0.14580780267715454,0.23679150640964508,0.26334455609321594
1772697812092081700,1.26308154296875,-0.16088822484016418,0.2569100856781006,0.30076169967651367
1772697812102130400,1.27313037109375,-0.1728530079126358,0.2729676067829132,0.34682294726371765
1772697812112178700,1.2831787109375,-0.20125508308410645,0.3034419119358063,0.40039509534835815
1772697812122227500,1.2932275390625,-0.20438775420188904,0.31476593017578125,0.46224167943000793
1772697812132276500,1.3032763671875,-0.206573948264122,0.30534473061561584,0.5274118781089783
1772697812142324500,1.313324462890625,-0.22085034847259521,0.31097492575645447,0.5775003433227539
1772697812152373500,1.32337353515625,-0.2439226508140564,0.3533053398132324,0.5918483734130859
1772697812162421500,1.33342138671875,-0.25843289494514465,0.4240993559360504,0.5938857197761536
1772697812172470500,1.343470458984375,-0.2740267515182495,0.5119026899337769,0.5791152715682983
1772697812182519600,1.35351953125,-0.279962956905365,0.5612606406211853,0.5798212885856628
1772697812192567600,1.363567626953125,-0.2747149169445038,0.5934670567512512,0.5878638029098511
1772697812202616600,1.373616455078125,-0.2682706117630005,0.5880382061004639,0.6027172803878784
1772697812212665600,1.38366552734375,-0.2661358118057251,0.5694775581359863,0.5927040576934814
1772697812222713300,1.39371337890625,-0.259790301322937,0.5418885350227356,0.5861769318580627
1772697812232762600,1.4037626953125,-0.25361230969429016,0.5220962166786194,0.5770233869552612
1772697812242810400,1.413810302734375,-0.25940465927124023,0.5407314300537109,0.5655451416969299
1772697812252859600,1.423859619140625,-0.2640359103679657,0.5633379220962524,0.5651835203170776
1772697812262908400,1.433908447265625,-0.27402356266975403,0.5517417192459106,0.5902118682861328
1772697812272956700,1.443956787109375,-0.27936241030693054,0.5814905762672424,0.6249954104423523
1772697812283005400,1.45400537109375,-0.29083797335624695,0.5827481150627136,0.6637194156646729
1772697812293053400,1.464053466796875,-0.28604772686958313,0.5914853811264038,0.6788416504859924
1772697812303102500,1.4741025390625,-0.27678367495536804,0.5706384778022766,0.66871178150177
1772697812313151500,1.4841513671875,-0.2778491973876953,0.5409247875213623,0.6402286887168884
1772697812323199500,1.494199462890625,-0.27240994572639465,0.4899321496486664,0.6100718975067139
1772697812333248300,1.504248291015625,-0.2542434632778168,0.4650731384754181,0.5785871744155884
1772697812343296500,1.514296630859375,-0.2256629467010498,0.4289223253726959,0.5555513501167297
1772697812353345300,1.52434521484375,-0.21707159280776978,0.42231184244155884,0.529977560043335
1772697812363394600,1.53439453125,-0.19211271405220032,0.37730708718299866,0.5199797749519348
1772697812373442300,1.5444423828125,-0.18117697536945343,0.42127159237861633,0.5165017247200012
1772697812383491600,1.55449169921875,-0.17226125299930573,0.5131322741508484,0.5248342156410217
1772697812393540400,1.564540283203125,-0.16321422159671783,0.570019543170929,0.5520232319831848
1772697812403588600,1.574588623046875,-0.14690423011779785,0.5822064280509949,0.5869495272636414
1772697812413637400,1.584637451171875,-0.10888786613941193,0.6022395491600037,0.638298749923706
1772697812423685600,1.594685546875,-0.030044184997677803,0.619485080242157,0.6946765184402466
1772697812433734400,1.604734375,0.07462656497955322,0.682698667049408,0.7264951467514038
1772697812443783400,1.614783447265625,0.21068985760211945,0.755683958530426,0.7090058922767639
1772697812453831400,1.62483154296875,0.3324972689151764,0.8755506873130798,0.6355985403060913
1772697812463880400,1.63488037109375,0.3571719825267792,1.0183874368667603,0.49456286430358887
1772697812473928400,1.644928466796875,0.269806444644928,1.139153003692627,0.31343701481819153
1772697812483977500,1.6549775390625,0.13621403276920319,1.1911907196044922,0.11277847737073898
1772697812494026500,1.665026611328125,0.009078449569642544,1.103368878364563,-0.07345690578222275
1772697812504074500,1.675074462890625,-0.14883288741111755,0.8629933595657349,-0.17515024542808533
1772697812514123500,1.68512353515625,-0.26936808228492737,0.5200250744819641,-0.14408287405967712
1772697812524171500,1.695171630859375,-0.3143584728240967,0.1455199122428894,-0.012807408347725868
1772697812534220500,1.705220458984375,-0.3242981731891632,-0.2355070561170578,0.15086567401885986
1772697812544269600,1.71526953125,-0.3019513189792633,-0.5856986045837402,0.2993512749671936
1772697812554317600,1.725317626953125,-0.24898159503936768,-0.7289303541183472,0.3961750268936157
1772697812564366600,1.73536669921875,-0.18201375007629395,-0.7192841172218323,0.4278578758239746
1772697812574414600,1.74541455078125,-0.13145603239536285,-0.6497151851654053,0.39494597911834717
1772697812584463600,1.755463623046875,-0.09147265553474426,-0.49494102597236633,0.3481268286705017
1772697812594512400,1.765512451171875,-0.05782574787735939,-0.35628941655158997,0.3143123984336853
1772697812604560400,1.775560302734375,-0.04788736626505852,-0.2550338804721832,0.2962963879108429
1772697812614609400,1.785609375,-0.03682006523013115,-0.21952329576015472,0.27005064487457275
1772697812624658700,1.79565869140625,-0.030129672959446907,-0.1981295943260193,0.2236245721578598
1772697812634706400,1.80570654296875,-0.05258890986442566,-0.17445889115333557,0.12795449793338776
1772697812644755700,1.815755615234375,-0.09070619940757751,-0.09647300839424133,0.011313107796013355
1772697812654803500,1.825803466796875,-0.12163588404655457,-0.04786073416471481,-0.0975012555718422
1772697812664852500,1.8358525390625,-0.13472957909107208,-0.08411753922700882,-0.1798720359802246
1772697812674901500,1.845901611328125,-0.14552603662014008,-0.16644836962223053,-0.21013672649860382
1772697812684949500,1.855949462890625,-0.14104419946670532,-0.2846114933490753,-0.18565082550048828
1772697812694998500,1.86599853515625,-0.13117240369319916,-0.4345645010471344,-0.1262812316417694
1772697812705046500,1.876046630859375,-0.11203066259622574,-0.6101075410842896,-0.06084577366709709
1772697812715095600,1.886095458984375,-0.09883470088243484,-0.8367766737937927,-0.06421840190887451
1772697812725144300,1.896144287109375,-0.09438535571098328,-1.0289788246154785,-0.1405869424343109
1772697812735192600,1.906192626953125,-0.07318446785211563,-1.092981219291687,-0.27178144454956055
1772697812745241300,1.916241455078125,-0.03202531114220619,-1.0964486598968506,-0.43069198727607727
1772697812755289600,1.92628955078125,0.006370014976710081,-1.1178487539291382,-0.6081426739692688
1772697812765338400,1.93633837890625,0.06132381036877632,-1.118587613105774,-0.7401334643363953
1772697812775387600,1.9463876953125,0.10733817517757416,-1.1062954664230347,-0.8142948150634766
1772697812785435400,1.956435302734375,0.12181245535612106,-1.1143949031829834,-0.8451057076454163
1772697812795484400,1.966484375,0.1273965686559677,-1.1210530996322632,-0.8137128949165344
1772697812805533400,1.976533447265625,0.1253185123205185,-1.1198112964630127,-0.7247252464294434
1772697812815581400,1.98658154296875,0.10597623139619827,-1.1014890670776367,-0.6063128113746643
1772697812825630500,1.99663037109375,0.07477384060621262,-1.1000686883926392,-0.48142069578170776
1772697812835678500,2.006678466796875,0.05910060554742813,-1.1567813158035278,-0.3867059051990509
1772697812845727500,2.0167275390625,0.044128045439720154,-1.243674874305725,-0.33411407470703125
1772697812855776500,2.026776611328125,0.04145742952823639,-1.331221580505371,-0.2983930706977844
1772697812865824500,2.036824462890625,0.03539101406931877,-1.3708126544952393,-0.27466991543769836
1772697812875873500,2.04687353515625,0.02437378279864788,-1.3655147552490234,-0.264349102973938
1772697812885921500,2.056921630859375,0.016384832561016083,-1.3162598609924316,-0.2958846390247345
1772697812895970600,2.066970458984375,0.019934026524424553,-1.2218891382217407,-0.3653436303138733
1772697812906019300,2.077019287109375,0.021644042804837227,-1.1045771837234497,-0.4466629922389984
1772697812916067600,2.087067626953125,0.03664110228419304,-0.9928144812583923,-0.5396549701690674
1772697812926116400,2.097116455078125,0.04880695417523384,-0.8818323016166687,-0.6270367503166199
1772697812936164600,2.10716455078125,0.06783950328826904,-0.8582161664962769,-0.6759377121925354
1772697812946213600,2.117213623046875,0.09272248297929764,-0.9010166525840759,-0.6630277633666992
1772697812956262700,2.1272626953125,0.11333827674388885,-0.9231043457984924,-0.6378962993621826
1772697812966310400,2.137310302734375,0.17238694429397583,-0.9634624123573303,-0.6275789737701416
1772697812976359700,2.147359619140625,0.20781844854354858,-0.9908021688461304,-0.6438612937927246
1772697812986408700,2.15740869140625,0.21085071563720703,-0.9808318614959717,-0.689347505569458
1772697812996456700,2.167456787109375,0.22584538161754608,-0.9211714267730713,-0.7494513392448425
1772697813006505700,2.177505615234375,0.22072358429431915,-0.8597429394721985,-0.8260140419006348
1772697813016553700,2.1875537109375,0.2320401519536972,-0.8099690079689026,-0.8982959389686584
1772697813026602500,2.1976025390625,0.22828777134418488,-0.7665853500366211,-0.9476402997970581
1772697813036651500,2.207651611328125,0.22194145619869232,-0.758011519908905,-0.951902449131012
1772697813046699500,2.217699462890625,0.21251891553401947,-0.7740570902824402,-0.9388207197189331
1772697813056748500,2.22774853515625,0.21160012483596802,-0.7903713583946228,-0.9060526490211487
1772697813066796500,2.237796630859375,0.2162441462278366,-0.8077396750450134,-0.8651036620140076
1772697813076845600,2.247845458984375,0.23772014677524567,-0.7879390716552734,-0.8211734890937805
1772697813086894600,2.25789453125,0.26122042536735535,-0.7545286417007446,-0.789020836353302
1772697813096942600,2.267942626953125,0.285457581281662,-0.7055941224098206,-0.766293466091156
1772697813106991600,2.27799169921875,0.3027343153953552,-0.6437826752662659,-0.7664098143577576
1772697813117039600,2.28803955078125,0.3182847797870636,-0.5639962553977966,-0.7853081226348877
1772697813127088600,2.298088623046875,0.31280478835105896,-0.48941415548324585,-0.8038560152053833
1772697813137137700,2.3081376953125,0.3104284405708313,-0.4034489393234253,-0.8210858702659607
1772697813147185700,2.318185546875,0.30303019285202026,-0.32458925247192383,-0.8204498887062073
1772697813157234700,2.328234619140625,0.30445602536201477,-0.2517741918563843,-0.8088294267654419
1772697813167282700,2.33828271484375,0.29379114508628845,-0.1809692531824112,-0.7897074222564697
1772697813177331700,2.348331787109375,0.2882794737815857,-0.11401817947626114,-0.7538490295410156
1772697813187380500,2.35838037109375,0.28562188148498535,-0.05751841887831688,-0.7199288606643677
1772697813197428700,2.3684287109375,0.2831491529941559,0.0013797837309539318,-0.6836726069450378
1772697813207477500,2.3784775390625,0.2873430848121643,0.054483216255903244,-0.6486884951591492
1772697813217526800,2.38852685546875,0.2883215546607971,0.09280797094106674,-0.6313513517379761
1772697813227574500,2.398574462890625,0.2878413796424866,0.11307276040315628,-0.6253967881202698
1772697813237623800,2.408623779296875,0.27675411105155945,0.12069046497344971,-0.6331015825271606
1772697813247671600,2.418671630859375,0.2733689546585083,0.14307300746440887,-0.6427896022796631
1772697813257720800,2.428720947265625,0.26466628909111023,0.17025348544120789,-0.6500675082206726
1772697813267769600,2.43876953125,0.2521536946296692,0.18679066002368927,-0.660057544708252
1772697813277817600,2.448817626953125,0.24055641889572144,0.15453578531742096,-0.6936900615692139
1772697813287866600,2.45886669921875,0.23749351501464844,0.09026651084423065,-0.7331663966178894
1772697813297914600,2.46891455078125,0.24228720366954803,0.02219398505985737,-0.781010091304779
1772697813307963600,2.478963623046875,0.26185718178749084,-0.04957154765725136,-0.8284345865249634
1772697813318012700,2.4890126953125,0.2800135314464569,-0.08806727081537247,-0.8754713535308838
1772697813328060700,2.499060791015625,0.28893032670021057,-0.10466116666793823,-0.913202166557312
1772697813338109700,2.509109619140625,0.3009539842605591,-0.11988033354282379,-0.9489657878875732
1772697813348158700,2.51915869140625,0.3127102255821228,-0.1368398666381836,-0.9822790026664734
1772697813358206500,2.52920654296875,0.32905539870262146,-0.1549120843410492,-1.0179190635681152
1772697813368255500,2.53925537109375,0.345757395029068,-0.17849411070346832,-1.0466188192367554
1772697813378303500,2.549303466796875,0.35998934507369995,-0.1955181062221527,-1.059733271598816
1772697813388352500,2.5593525390625,0.3695721924304962,-0.22790266573429108,-1.061823844909668
1772697813398401500,2.569401611328125,0.38016757369041443,-0.2735103666782379,-1.0566669702529907
1772697813408449500,2.579449462890625,0.3894074261188507,-0.34689271450042725,-1.0218024253845215
1772697813418498600,2.58949853515625,0.4033280313014984,-0.4269827604293823,-0.9822518229484558
1772697813428546600,2.599546630859375,0.42926642298698425,-0.4596043527126312,-0.9418655037879944
1772697813438595600,2.609595703125,0.44534632563591003,-0.4358697235584259,-0.924176812171936
1772697813448644600,2.61964453125,0.43604975938796997,-0.36576440930366516,-0.9233139753341675
1772697813458692600,2.629692626953125,0.4204108715057373,-0.2816636264324188,-0.9317596554756165
1772697813468741600,2.63974169921875,0.41111618280410767,-0.19038033485412598,-0.9356641173362732
1772697813478789600,2.64978955078125,0.4028119146823883,-0.1082545667886734,-0.9162882566452026
1772697813488838700,2.659838623046875,0.39222103357315063,-0.047390151768922806,-0.8754950165748596
1772697813498887400,2.669887451171875,0.3778354525566101,-0.022174810990691185,-0.8373436331748962
1772697813508935700,2.679935791015625,0.35580578446388245,0.011713380925357342,-0.7926166653633118
1772697813518984400,2.689984375,0.34086090326309204,0.016513995826244354,-0.737600564956665
1772697813529033700,2.70003369140625,0.3449789583683014,-0.04496241360902786,-0.6789982318878174
1772697813539081500,2.71008154296875,0.348777174949646,-0.20190009474754333,-0.644363522529602
1772697813549130800,2.720130859375,0.3536052107810974,-0.41382965445518494,-0.6235485672950745
1772697813559178500,2.730178466796875,0.37983202934265137,-0.5561069250106812,-0.5799558162689209
1772697813569227800,2.740227783203125,0.39639395475387573,-0.5721641778945923,-0.5022061467170715
1772697813579276500,2.750276611328125,0.3297552764415741,-0.537961483001709,-0.44256436824798584
1772697813589324800,2.76032470703125,0.18746815621852875,-0.5354533195495605,-0.45455071330070496
1772697813599373600,2.77037353515625,0.08284828066825867,-0.5662863254547119,-0.4907902181148529
1772697813609421800,2.780421875,0.06879743933677673,-0.5865564346313477,-0.4667820930480957
1772697813619470600,2.790470703125,0.08438385277986526,-0.5601322650909424,-0.3646458685398102
1772697813629519600,2.80051953125,0.06349481642246246,-0.4440126121044159,-0.2573348581790924
1772697813639567600,2.810567626953125,-0.007157777901738882,-0.2724629342556,-0.2472526729106903
1772697813649616600,2.82061669921875,-0.041655033826828,-0.04903864860534668,-0.32529741525650024
1772697813659664600,2.83066455078125,-0.02694985829293728,0.15887805819511414,-0.43542975187301636
1772697813669713700,2.840713623046875,0.02737676352262497,0.29752862453460693,-0.47396278381347656
1772697813679762700,2.8507626953125,0.08926703035831451,0.3401695489883423,-0.3881149888038635
1772697813689810400,2.860810546875,0.14462749660015106,0.2896672487258911,-0.1913401335477829
1772697813699859700,2.870859619140625,0.1686531901359558,0.18615229427814484,0.01925145834684372
1772697813709907500,2.880907470703125,0.1659141331911087,0.14806456863880157,0.15431687235832214
1772697813719956700,2.890956787109375,0.17366740107536316,0.1886652559041977,0.19805262982845306
1772697813730005500,2.901005615234375,0.19841481745243073,0.3453613817691803,0.20145322382450104
1772697813740053800,2.9110537109375,0.21941198408603668,0.5196666121482849,0.20252887904644012
1772697813750102500,2.9211025390625,0.23881390690803528,0.6309241652488708,0.2045949548482895
1772697813760151600,2.931151611328125,0.25506770610809326,0.6247562766075134,0.19050709903240204
1772697813770199600,2.941199462890625,0.23948556184768677,0.5441559553146362,0.15540370345115662
1772697813780248600,2.95124853515625,0.24340732395648956,0.4735342860221863,0.1173977330327034
1772697813790296600,2.961296630859375,0.26401248574256897,0.47067058086395264,0.09936679899692535
1772697813800345600,2.971345703125,0.2522117495536804,0.49678659439086914,0.09543943405151367
1772697813810394600,2.98139453125,0.23669935762882233,0.5102933645248413,0.08524086326360703
1772697813820442600,2.991442626953125,0.2110680341720581,0.4753611981868744,0.05495353043079376
1772697813830491600,3.00149169921875,0.18918350338935852,0.40537306666374207,0.019512714818120003
1772697813840539600,3.01153955078125,0.17623548209667206,0.34114399552345276,-0.029108883813023567
1772697813850588700,3.021588623046875,0.16439320147037506,0.3262084722518921,-0.07682394236326218
1772697813860637700,3.0316376953125,0.1412961483001709,0.3518613576889038,-0.10542256385087967
1772697813870685700,3.041685791015625,0.1124328002333641,0.3493252396583557,-0.12341860681772232
1772697813880734700,3.051734619140625,0.10465504229068756,0.31145188212394714,-0.08859457820653915
1772697813890783500,3.061783447265625,0.10032926499843597,0.2589295506477356,-0.0029995182994753122
1772697813900831700,3.071831787109375,0.10040916502475739,0.2208426296710968,0.12924639880657196
1772697813910880500,3.081880615234375,0.10752539336681366,0.18328726291656494,0.29379698634147644
1772697813920928800,3.0919287109375,0.12027980387210846,0.14674070477485657,0.45258423686027527
1772697813930978300,3.101978271484375,0.12468493729829788,0.15542981028556824,0.5860227346420288
1772697813941027300,3.11202734375,0.11018376052379608,0.2059827297925949,0.6719951629638672
1772697813951075300,3.122075439453125,0.09197679162025452,0.3461550176143646,0.7346369624137878
1772697813961124400,3.132124267578125,0.08653195947408676,0.47467437386512756,0.7531768083572388
1772697813971172400,3.14217236328125,0.06451747566461563,0.5960497856140137,0.7676101326942444
1772697813981221400,3.152221435546875,0.034206707030534744,0.679328203201294,0.7781892418861389
1772697813991270400,3.1622705078125,0.014253504574298859,0.7265180349349976,0.8131123185157776
1772697814001318100,3.172318115234375,0.011423096992075443,0.7457268834114075,0.8643057346343994
1772697814011367400,3.182367431640625,0.015282017178833485,0.6994670033454895,0.8844573497772217
1772697814021415200,3.192415283203125,0.025739984586834908,0.6383272409439087,0.8771469593048096
1772697814031464400,3.20246435546875,0.02706863544881344,0.5917096734046936,0.843862771987915
1772697814041513500,3.212513427734375,0.015596536919474602,0.5337249040603638,0.7900818586349487
1772697814051561500,3.2225615234375,-0.010104299522936344,0.49267229437828064,0.7163447737693787
1772697814061610200,3.2326103515625,-0.042163167148828506,0.4585462808609009,0.6459934115409851
1772697814071659300,3.2426591796875,-0.06217256188392639,0.42742085456848145,0.6039711236953735
1772697814081707300,3.252707275390625,-0.06759315729141235,0.3891861140727997,0.5869529843330383
1772697814091756300,3.26275634765625,-0.08015768975019455,0.35890862345695496,0.5746718049049377
1772697814101804300,3.27280419921875,-0.08842147141695023,0.3392864465713501,0.5638607144355774
1772697814111853300,3.282853271484375,-0.08762385696172714,0.35277217626571655,0.5432044267654419
1772697814121902300,3.29290234375,-0.08753517270088196,0.3714052438735962,0.5315768122673035
1772697814131950300,3.302950439453125,-0.08393803983926773,0.395177960395813,0.5285621285438538
1772697814141999400,3.312999267578125,-0.06807998567819595,0.38760125637054443,0.5505877733230591
1772697814152047400,3.32304736328125,-0.05271860584616661,0.3564278781414032,0.576073408126831
1772697814162096400,3.333096435546875,-0.05729950964450836,0.32532963156700134,0.588464081287384
1772697814172145400,3.3431455078125,-0.06022712215781212,0.33683714270591736,0.6000195145606995
1772697814182193200,3.353193115234375,-0.057553041726350784,0.3362235426902771,0.6097996830940247
1772697814192242400,3.363242431640625,-0.07254477590322495,0.3347465693950653,0.624940812587738
1772697814202290200,3.373290283203125,-0.08989047259092331,0.3406238853931427,0.6327657103538513
1772697814212339500,3.38333935546875,-0.11221016198396683,0.33521369099617004,0.6423177123069763
1772697814222388200,3.39338818359375,-0.14351987838745117,0.3292625844478607,0.6359889507293701
1772697814232436500,3.4034365234375,-0.16941778361797333,0.30659374594688416,0.6229027509689331
1772697814242485200,3.4134853515625,-0.1730881631374359,0.2845859229564667,0.6048606038093567
1772697814252533500,3.423533447265625,-0.16337187588214874,0.29145076870918274,0.5958287715911865
1772697814262582300,3.433582275390625,-0.167591392993927,0.35103872418403625,0.597892701625824
1772697814272631300,3.44363134765625,-0.17850129306316376,0.4034518599510193,0.6119318008422852
1772697814282679300,3.45367919921875,-0.1850028783082962,0.43983569741249084,0.6358832120895386
1772697814292728300,3.463728271484375,-0.18126432597637177,0.4640864431858063,0.6801822781562805
1772697814302777300,3.47377734375,-0.17457713186740875,0.46976563334465027,0.7148363590240479
1772697814312825300,3.483825439453125,-0.16658392548561096,0.46651551127433777,0.7377867102622986
1772697814322874400,3.493874267578125,-0.17723816633224487,0.4529581665992737,0.7518535256385803
1772697814332922000,3.503922119140625,-0.1889219880104065,0.43200787901878357,0.7494524121284485
1772697814342971400,3.513971435546875,-0.21227657794952393,0.40190589427948,0.7386714220046997
1772697814353020400,3.5240205078125,-0.2352932095527649,0.36553138494491577,0.7156933546066284
1772697814363068400,3.534068359375,-0.24615278840065002,0.3407690227031708,0.7052655220031738
1772697814373117200,3.5441171875,-0.24903565645217896,0.32202383875846863,0.686051070690155
1772697814383165400,3.55416552734375,-0.233286514878273,0.32935258746147156,0.6513761878013611
1772697814393214200,3.564214111328125,-0.20801497995853424,0.344633549451828,0.5987632870674133
1772697814403263200,3.57426318359375,-0.1873837411403656,0.34705597162246704,0.5306247472763062
1772697814413311200,3.584311279296875,-0.1739470213651657,0.3268372416496277,0.4710226356983185
1772697814423360300,3.5943603515625,-0.17247110605239868,0.305184930562973,0.42259731888771057
1772697814433408300,3.604408203125,-0.1796099692583084,0.28574520349502563,0.39899638295173645
1772697814443457300,3.614457275390625,-0.19068633019924164,0.24980583786964417,0.37155836820602417
1772697814453506300,3.62450634765625,-0.2150404006242752,0.21661779284477234,0.33903637528419495
1772697814463554300,3.63455419921875,-0.2272893488407135,0.17802806198596954,0.30379265546798706
1772697814473603300,3.644603271484375,-0.23974281549453735,0.12730975449085236,0.2734203636646271
1772697814483652400,3.65465234375,-0.2486574798822403,0.05911365523934364,0.2536522448062897
1772697814493700400,3.664700439453125,-0.2474880963563919,0.012278237380087376,0.2684764564037323
1772697814503749400,3.674749267578125,-0.24338948726654053,-0.021027520298957825,0.32133781909942627
1772697814513797400,3.68479736328125,-0.2486548274755478,-0.05536472052335739,0.39422959089279175
1772697814523846400,3.694846435546875,-0.2528535723686218,-0.05410877615213394,0.4507639706134796
1772697814533895200,3.704895263671875,-0.2609109580516815,-0.02678873762488365,0.48070722818374634
1772697814543943400,3.714943359375,-0.2560024857521057,-0.035586755722761154,0.4602174162864685
1772697814553992200,3.7249921875,-0.23558056354522705,-0.07075326889753342,0.43218177556991577
1772697814564040400,3.73504052734375,-0.22089402377605438,-0.07967352122068405,0.4219389855861664
1772697814574089200,3.745089111328125,-0.18710064888000488,-0.02562999539077282,0.4524995684623718
1772697814584138500,3.755138427734375,-0.10830517113208771,0.08463285863399506,0.4729350507259369
1772697814594186200,3.765186279296875,0.028483573347330093,0.19527362287044525,0.46053245663642883
1772697814604235500,3.775235595703125,0.20430226624011993,0.25963422656059265,0.42655104398727417
1772697814614283300,3.785283203125,0.34876543283462524,0.31951647996902466,0.39519524574279785
1772697814624332500,3.79533251953125,0.40469875931739807,0.41061097383499146,0.39420297741889954
1772697814634381300,3.80538134765625,0.3431091606616974,0.4585143029689789,0.3992275595664978
1772697814644429300,3.81542919921875,0.20938518643379211,0.44378143548965454,0.3767707049846649
1772697814654478300,3.825478271484375,0.03773672506213188,0.3821665346622467,0.30509066581726074
1772697814664527400,3.83552734375,-0.17135098576545715,0.23377548158168793,0.2177395224571228
1772697814674575400,3.845575439453125,-0.3587277829647064,0.060447096824645996,0.16620947420597076
1772697814684624400,3.855624267578125,-0.45891350507736206,-0.07037589699029922,0.15052293241024017
1772697814694672400,3.86567236328125,-0.47708478569984436,-0.16212765872478485,0.15588387846946716
1772697814704721200,3.87572119140625,-0.42008623480796814,-0.2051776498556137,0.17274434864521027
1772697814714770400,3.8857705078125,-0.31477710604667664,-0.23257918655872345,0.1838475912809372
1772697814724818200,3.895818115234375,-0.19446615874767303,-0.2359781712293625,0.17699368298053741
1772697814734867500,3.905867431640625,-0.0981031283736229,-0.20330998301506042,0.16735251247882843
1772697814744915200,3.915915283203125,-0.04888045787811279,-0.18215036392211914,0.20071658492088318
1772697814754964200,3.925964111328125,-0.018990734592080116,-0.21705535054206848,0.30344775319099426
1772697814765013200,3.93601318359375,-0.021931663155555725,-0.2514628469944,0.421964555978775
1772697814775061200,3.946061279296875,-0.058157045394182205,-0.2638721168041229,0.5052916407585144
1772697814785110300,3.9561103515625,-0.09571081399917603,-0.2084679901599884,0.5056511759757996
1772697814795158300,3.966158203125,-0.14190547168254852,-0.07019293308258057,0.4347322881221771
1772697814805207300,3.976207275390625,-0.17444424331188202,0.05336468666791916,0.31705546379089355
1772697814815256300,3.98625634765625,-0.19315721094608307,0.1219879537820816,0.18356503546237946
1772697814825304300,3.99630419921875,-0.19384217262268066,0.16360224783420563,0.056585513055324554
1772697814835353300,4.006353271484375,-0.20918038487434387,0.14838387072086334,-0.0537487156689167
1772697814845402400,4.01640234375,-0.22628213465213776,0.10050583630800247,-0.1195431724190712
1772697814855450400,4.026450439453125,-0.23878221213817596,0.02593412809073925,-0.15864290297031403
1772697814865499100,4.0364990234375,-0.23499147593975067,-0.05746249482035637,-0.16551120579242706
1772697814875547400,4.04654736328125,-0.2200346291065216,-0.16811524331569672,-0.16506218910217285
1772697814885596200,4.05659619140625,-0.19243095815181732,-0.2749865651130676,-0.1590631604194641
1772697814895645400,4.0666455078125,-0.14408047497272491,-0.35128054022789,-0.16412769258022308
1772697814905693200,4.076693115234375,-0.09102418273687363,-0.5167733430862427,-0.21828146278858185
1772697814915742500,4.086742431640625,-0.033782199025154114,-0.7637509107589722,-0.3338163197040558
1772697814925790200,4.096790283203125,0.04019029811024666,-1.0025477409362793,-0.4755582809448242
1772697814935839500,4.106839599609375,0.08928034454584122,-1.1650629043579102,-0.5880603194236755
1772697814945888300,4.11688818359375,0.1010560467839241,-1.2239837646484375,-0.6590237021446228
1772697814955936500,4.1269365234375,0.07186673581600189,-1.1857389211654663,-0.6654946804046631
1772697814965985300,4.1369853515625,0.01384231261909008,-1.0931594371795654,-0.62359619140625
1772697814976033300,4.147033203125,-0.04462791979312897,-1.0048810243606567,-0.5708930492401123
1772697814986082300,4.157082275390625,-0.09861685335636139,-0.9478267431259155,-0.5420837998390198
1772697814996131300,4.16713134765625,-0.13251863420009613,-0.8969420194625854,-0.5282350778579712
1772697815006179300,4.177179443359375,-0.1482057124376297,-0.870827317237854,-0.5283831357955933
1772697815016228400,4.187228271484375,-0.15513205528259277,-0.890035092830658,-0.5457554459571838
1772697815026276400,4.1972763671875,-0.16010046005249023,-0.9342288970947266,-0.5632513761520386
1772697815036325000,4.2073251953125,-0.14279896020889282,-0.9848606586456299,-0.5790156722068787
1772697815046374400,4.21737451171875,-0.1122482419013977,-1.0156526565551758,-0.5917602777481079
1772697815056422100,4.227422119140625,-0.09636595100164413,-1.0217031240463257,-0.6215306520462036
1772697815066471400,4.237471435546875,-0.09272967278957367,-1.0086253881454468,-0.6470251083374023
1772697815076520400,4.2475205078125,-0.08922068774700165,-0.9771342873573303,-0.6674643158912659
1772697815086568400,4.257568359375,-0.0687582939863205,-0.9508441090583801,-0.6917651295661926
1772697815096617200,4.2676171875,-0.05411596596240997,-0.9398218393325806,-0.7165690064430237
1772697815106665500,4.27766552734375,-0.055079229176044464,-0.9076817035675049,-0.711763858795166
1772697815116714200,4.28771435546875,-0.058462776243686676,-0.8695482015609741,-0.6903288960456848
1772697815126763300,4.29776318359375,-0.06273555010557175,-0.8197633028030396,-0.6619659662246704
1772697815136811300,4.307811279296875,-0.06477553397417068,-0.7360361814498901,-0.6352863907814026
1772697815146860300,4.3178603515625,-0.06689327955245972,-0.6461406946182251,-0.6207295656204224
1772697815156908300,4.327908203125,-0.07406596839427948,-0.53392493724823,-0.6117400527000427
1772697815166957300,4.337957275390625,-0.0797925665974617,-0.4101177453994751,-0.6174051761627197
1772697815177006300,4.34800634765625,-0.08928274363279343,-0.3297518193721771,-0.6235901117324829
1772697815187054300,4.358054443359375,-0.08405788242816925,-0.24222435057163239,-0.6286306381225586
1772697815197103400,4.368103271484375,-0.07020705193281174,-0.2223193496465683,-0.630397379398346
1772697815207151400,4.3781513671875,-0.05386083573102951,-0.22790640592575073,-0.6283499598503113
1772697815217200400,4.388200439453125,-0.024461667984724045,-0.2198639214038849,-0.6044377088546753
1772697815227249400,4.39824951171875,0.01233256608247757,-0.20726211369037628,-0.5760105848312378
1772697815237297400,4.40829736328125,0.06626024842262268,-0.16597965359687805,-0.5443264245986938
1772697815247346400,4.418346435546875,0.11032330989837646,-0.1114298552274704,-0.510848343372345
1772697815257395200,4.428395263671875,0.14319124817848206,-0.05048741027712822,-0.48624980449676514
1772697815267443500,4.438443359375,0.15940004587173462,0.01769670471549034,-0.4602714776992798
1772697815277492200,4.4484921875,0.18120041489601135,0.08493992686271667,-0.43483373522758484
1772697815287540500,4.45854052734375,0.2036854773759842,0.13800953328609467,-0.4127494990825653
1772697815297589200,4.46858935546875,0.23022547364234924,0.17026068270206451,-0.3887786269187927
1772697815307638500,4.478638427734375,0.2527395784854889,0.17856255173683167,-0.3836488723754883
1772697815317686300,4.488686279296875,0.2741239666938782,0.19265121221542358,-0.37452781200408936
1772697815327735600,4.498735595703125,0.2806737422943115,0.2080400139093399,-0.3788945972919464
1772697815337783300,4.508783203125,0.2718307077884674,0.23188382387161255,-0.3827172815799713
1772697815347832300,4.518832275390625,0.2678871154785156,0.24386166036128998,-0.371979683637619
1772697815357881300,4.52888134765625,0.26561596989631653,0.21195407211780548,-0.3376976251602173
1772697815367929300,4.538929443359375,0.249799445271492,0.17778117954730988,-0.2843209505081177
1772697815377978400,4.548978271484375,0.23569853603839874,0.16592425107955933,-0.20745305716991425
1772697815388026000,4.559026123046875,0.22650663554668427,0.15387611091136932,-0.1323484480381012
1772697815398075400,4.569075439453125,0.22251322865486145,0.11048762500286102,-0.06873591989278793
1772697815408124200,4.579124267578125,0.21359030902385712,0.03784724697470665,-0.025292839854955673
1772697815418172400,4.58917236328125,0.21980851888656616,-0.05205520987510681,-0.023431556299328804
1772697815428221200,4.59922119140625,0.243224635720253,-0.14286313951015472,-0.05655435472726822
1772697815438270200,4.609270263671875,0.2842104136943817,-0.2188093066215515,-0.1315566897392273
1772697815448318200,4.619318115234375,0.34334829449653625,-0.28547248244285583,-0.22447837889194489
1772697815458367200,4.6293671875,0.3956916630268097,-0.3283137083053589,-0.3259996771812439
1772697815468415200,4.639415283203125,0.41800016164779663,-0.3590377867221832,-0.4456064999103546
1772697815478464300,4.64946435546875,0.35940688848495483,-0.42439815402030945,-0.5896204113960266
1772697815488513300,4.65951318359375,0.2721492350101471,-0.5339318513870239,-0.7104669213294983
1772697815498561300,4.669561279296875,0.25867682695388794,-0.5308617353439331,-0.6999711394309998
1772697815508610300,4.6796103515625,0.30238649249076843,-0.510841429233551,-0.5573229193687439
1772697815518658300,4.689658203125,0.3508477807044983,-0.5166982412338257,-0.3292679190635681
1772697815528707300,4.699707275390625,0.31611377000808716,-0.5092549920082092,-0.10619674623012543
1772697815538756400,4.70975634765625,0.2079915553331375,-0.4978875517845154,0.04882320016622543
1772697815548804400,4.719804443359375,0.11151454597711563,-0.44251617789268494,0.10564706474542618
1772697815558853400,4.729853271484375,0.08678815513849258,-0.3258657157421112,0.10062887519598007
1772697815568901400,4.7399013671875,0.146204873919487,-0.20312514901161194,0.09742429107427597
1772697815578950400,4.749950439453125,0.1270064115524292,-0.038546327501535416,0.11795246601104736
1772697815588999200,4.759999267578125,0.03609568625688553,0.1551048904657364,0.07470885664224625
1772697815599047400,4.77004736328125,-0.015090269967913628,0.27453887462615967,-0.06119624525308609
1772697815609096200,4.78009619140625,0.024708542972803116,0.32366248965263367,-0.22350046038627625
1772697815619145500,4.7901455078125,0.1393059641122818,0.3386286497116089,-0.31543996930122375
1772697815629193200,4.800193115234375,0.2307056486606598,0.35792991518974304,-0.2971493899822235
1772697815639242500,4.810242431640625,0.2753077447414398,0.3654190003871918,-0.16920633614063263
1772697815649290200,4.820290283203125,0.3092438578605652,0.2934558391571045,0.017190970480442047
1772697815659339500,4.830339599609375,0.33186689019203186,0.17597316205501556,0.2188899964094162
1772697815669388300,4.84038818359375,0.3104124665260315,0.08392259478569031,0.36057549715042114
1772697815679436300,4.850436279296875,0.2551279067993164,0.06912314146757126,0.4195948839187622
1772697815689485300,4.8604853515625,0.195106640458107,0.10601058602333069,0.35885509848594666
1772697815699533300,4.870533203125,0.14310522377490997,0.16516472399234772,0.21731100976467133
1772697815709582300,4.880582275390625,0.11663100868463516,0.22338488698005676,0.059603940695524216
1772697815719631400,4.89063134765625,0.10704629123210907,0.25836682319641113,-0.09109661728143692
1772697815729679400,4.900679443359375,0.10565132647752762,0.23364923894405365,-0.21688278019428253
1772697815739728100,4.91072802734375,0.1045362651348114,0.152683824300766,-0.29377755522727966
1772697815749776400,4.9207763671875,0.11476066708564758,0.08820202946662903,-0.3216345012187958
1772697815759825200,4.9308251953125,0.13638927042484283,0.049425605684518814,-0.30712825059890747
1772697815769874400,4.94087451171875,0.14647811651229858,0.03183383122086525,-0.2803395092487335
1772697815779922200,4.950922119140625,0.14889679849147797,-0.013014068827033043,-0.26133227348327637
1772697815789971500,4.960971435546875,0.15212614834308624,-0.08318064361810684,-0.24747584760189056
1772697815800020200,4.971020263671875,0.17291532456874847,-0.10824844241142273,-0.23359251022338867
1772697815810068500,4.981068359375,0.19379077851772308,-0.018019480630755424,-0.16737034916877747
1772697815820117200,4.9911171875,0.20154856145381927,0.06861528009176254,-0.09008621424436569
1772697815830165500,5.00116552734375,0.20662401616573334,0.06958547234535217,-0.021685320883989334
1772697815840214300,5.01121435546875,0.2201520800590515,0.03447382152080536,0.06193473935127258
1772697815850263300,5.02126318359375,0.22204211354255676,0.02954084798693657,0.1816648691892624
1772697815860311300,5.031311279296875,0.21013513207435608,0.049734801054000854,0.3009076416492462
1772697815870360300,5.0413603515625,0.1658899039030075,0.1257787048816681,0.39360907673835754
1772697815880408300,5.051408203125,0.11208765208721161,0.23357734084129333,0.45512276887893677
1772697815890457300,5.061457275390625,0.06588926911354065,0.34903600811958313,0.4863089323043823
1772697815900506400,5.07150634765625,0.032591499388217926,0.4326336979866028,0.4912261962890625
1772697815910554400,5.081554443359375,0.001365668955259025,0.46079957485198975,0.4823935329914093
1772697815920603400,5.091603271484375,0.004773716442286968,0.47009506821632385,0.4539799988269806
1772697815930650000,5.101650146484375,0.018554775044322014,0.4561310410499573,0.39478567242622375
1772697815940699400,5.111699462890625,0.014030864462256432,0.4180909991264343,0.3207330107688904
1772697815950748200,5.121748046875,0.01618562825024128,0.36554816365242004,0.2720296382904053
1772697815960796400,5.13179638671875,0.02249838411808014,0.31951087713241577,0.24507127702236176
1772697815970845200,5.14184521484375,0.029575468972325325,0.2835334539413452,0.22523924708366394
1772697815980894200,5.151894287109375,0.037811294198036194,0.23476563394069672,0.1843051314353943
1772697815990942200,5.161942138671875,0.04219911992549896,0.18488383293151855,0.11028123646974564
1772697816000991200,5.1719912109375,0.05468827858567238,0.13739487528800964,0.029337381944060326
1772697816011039200,5.182039306640625,0.06112007796764374,0.12139061093330383,-0.04098311811685562
1772697816021088000,5.192087890625,0.058701928704977036,0.13608700037002563,-0.0908670574426651
1772697816031137300,5.20213720703125,0.05226666480302811,0.15350326895713806,-0.11283547431230545
1772697816041185000,5.21218505859375,0.038114361464977264,0.16199129819869995,-0.11070680618286133
1772697816051234300,5.222234375,0.010261425748467445,0.17099012434482574,-0.0746244341135025
1772697816061282000,5.232281982421875,-0.010972223244607449,0.2010747790336609,-0.0193736981600523
1772697816071331300,5.242331298828125,-0.03996898606419563,0.22544138133525848,0.028321120887994766
1772697816081380000,5.252380126953125,-0.0691353976726532,0.2509712278842926,0.06449856609106064
1772697816091428400,5.262428466796875,-0.07502550631761551,0.27409252524375916,0.10225393623113632
1772697816101477000,5.27247705078125,-0.07906286418437958,0.2776164412498474,0.1404860019683838
1772697816111525400,5.282525390625,-0.07874780893325806,0.2797924876213074,0.18035326898097992
1772697816121574100,5.29257421875,-0.09019940346479416,0.2837955057621002,0.2173301875591278
1772697816131623200,5.302623046875,-0.10593894869089127,0.30001282691955566,0.2455005794763565
1772697816141671200,5.312671142578125,-0.12603223323822021,0.3200645446777344,0.2714610695838928
1772697816151720200,5.32272021484375,-0.14383412897586823,0.34476351737976074,0.29050347208976746
1772697816161768200,5.332768310546875,-0.15675446391105652,0.3660237789154053,0.3304985463619232
1772697816171817200,5.342817138671875,-0.17014190554618835,0.3929305076599121,0.37329474091529846
1772697816181865200,5.352865234375,-0.18931293487548828,0.3830030560493469,0.41579800844192505
1772697816191914200,5.362914306640625,-0.20723946392536163,0.36439579725265503,0.46241024136543274
1772697816201963300,5.37296337890625,-0.23151764273643494,0.3320663571357727,0.49264058470726013
1772697816212011300,5.38301123046875,-0.2541782259941101,0.2765069603919983,0.503286600112915
1772697816222060300,5.393060302734375,-0.28912821412086487,0.22280165553092957,0.5019150376319885
1772697816232109300,5.403109375,-0.3323372006416321,0.2159309685230255,0.5244230031967163
1772697816242157300,5.4131572265625,-0.36006948351860046,0.2152089774608612,0.5521497130393982
1772697816252206300,5.423206298828125,-0.37953346967697144,0.24137933552265167,0.5738195776939392
1772697816262254300,5.43325439453125,-0.3876158893108368,0.30971285700798035,0.5943073034286499
1772697816272303400,5.443303466796875,-0.41870298981666565,0.3304458260536194,0.5725910663604736
1772697816282352000,5.45335205078125,-0.43126538395881653,0.28554677963256836,0.5245985388755798
1772697816292400400,5.463400390625,-0.41806861758232117,0.19432127475738525,0.4875752627849579
1772697816302449200,5.47344921875,-0.38740870356559753,0.12504632771015167,0.5011547207832336
1772697816312497200,5.4834970703125,-0.3616926968097687,0.07244277745485306,0.5490125417709351
1772697816322546200,5.493546142578125,-0.3482106924057007,0.008706139400601387,0.5832716822624207
1772697816332595500,5.503595458984375,-0.3561519980430603,-0.024948226287961006,0.5878749489784241
1772697816342643200,5.513643310546875,-0.37352752685546875,-0.02100568264722824,0.5819867253303528
1772697816352692200,5.523692138671875,-0.4037432074546814,0.04794488847255707,0.5632332563400269
1772697816362741200,5.5337412109375,-0.41373592615127563,0.11127699166536331,0.5193278789520264
1772697816372789200,5.543789306640625,-0.4093211889266968,0.13191062211990356,0.4544929265975952
1772697816382838300,5.55383837890625,-0.38579484820365906,0.10635600239038467,0.3879440128803253
1772697816392886300,5.56388623046875,-0.34099674224853516,0.12458107620477676,0.3455800414085388
1772697816402935300,5.573935302734375,-0.21560978889465332,0.2232906073331833,0.3676310181617737
1772697816412984000,5.583984130859375,-0.08133213967084885,0.42878997325897217,0.400937557220459
1772697816423032300,5.5940322265625,0.011699266731739044,0.6522278785705566,0.38212206959724426
1772697816433081000,5.6040810546875,0.06394676119089127,0.8361601233482361,0.31489428877830505
1772697816443129300,5.61412939453125,0.10536424070596695,0.919542670249939,0.26572275161743164
1772697816453178000,5.62417822265625,0.10674215853214264,0.968792736530304,0.2573375403881073
1772697816463227400,5.634227294921875,0.10043232887983322,1.0256943702697754,0.2347152978181839
1772697816473275100,5.644275146484375,0.09436485171318054,1.0815973281860352,0.15315812826156616
1772697816483324400,5.654324462890625,0.09374966472387314,1.12360417842865,0.029833529144525528
1772697816493372200,5.6643720703125,0.08506961911916733,1.0604568719863892,-0.06329881399869919
1772697816503421200,5.674421142578125,0.05247039720416069,0.8663510680198669,-0.07135540246963501
1772697816513470200,5.68447021484375,0.0003400856803636998,0.5460268259048462,0.023022761568427086
1772697816523518200,5.694518310546875,-0.04758110269904137,0.15231311321258545,0.18831132352352142
1772697816533567200,5.704567138671875,-0.096722811460495,-0.2328028827905655,0.3441097140312195
1772697816543616300,5.7146162109375,-0.13328535854816437,-0.5545217990875244,0.4395454227924347
1772697816553664300,5.724664306640625,-0.14180666208267212,-0.8066571354866028,0.4715765714645386
1772697816563713300,5.73471337890625,-0.11914157122373581,-0.8968629240989685,0.46385154128074646
1772697816573762300,5.74476220703125,-0.10664068907499313,-0.7967495918273926,0.40862902998924255
1772697816583810300,5.754810302734375,-0.11149350553750992,-0.5623906254768372,0.31522586941719055
1772697816593859000,5.764859130859375,-0.10936031490564346,-0.19533221423625946,0.2478284388780594
1772697816603907300,5.7749072265625,-0.0959550216794014,0.17745521664619446,0.19067513942718506
1772697816613956000,5.7849560546875,-0.0827002078294754,0.376910537481308,0.1676316112279892
1772697816624005400,5.79500537109375,-0.07101532071828842,0.42105376720428467,0.17367617785930634
1772697816634053000,5.80505322265625,-0.06388204544782639,0.4189565181732178,0.16771629452705383
1772697816644102400,5.815102294921875,-0.05305948853492737,0.39728450775146484,0.12329290807247162
1772697816654150100,5.825150146484375,-0.05246507376432419,0.3682731091976166,0.04127579927444458
1772697816664199400,5.835199462890625,-0.06070782244205475,0.3442915976047516,-0.06141755357384682
1772697816674248200,5.845248291015625,-0.07155247777700424,0.3270052969455719,-0.1528121829032898
1772697816684296200,5.855296142578125,-0.06868185847997665,0.30182963609695435,-0.22094915807247162
1772697816694345200,5.86534521484375,-0.08959592878818512,0.26231417059898376,-0.25041037797927856
1772697816704394200,5.875394287109375,-0.11162373423576355,0.1904357224702835,-0.2481112778186798
1772697816714442200,5.885442138671875,-0.12090058624744415,0.08153826743364334,-0.2633136510848999
1772697816724491300,5.8954912109375,-0.1243499144911766,-0.041795648634433746,-0.2940255105495453
1772697816734539300,5.905539306640625,-0.11782170832157135,-0.15111787617206573,-0.30777671933174133
1772697816744588000,5.915588134765625,-0.10895924270153046,-0.22083517909049988,-0.29190534353256226
1772697816754637300,5.92563720703125,-0.11097205430269241,-0.2366037517786026,-0.259940505027771
1772697816764685000,5.93568505859375,-0.11047617346048355,-0.2096291184425354,-0.22710825502872467
1772697816774734300,5.945734375,-0.1098008006811142,-0.1469670832157135,-0.18407529592514038
1772697816784782000,5.955781982421875,-0.12012188136577606,-0.08200272172689438,-0.12899979948997498
1772697816794831400,5.965831298828125,-0.12637685239315033,0.008386027999222279,-0.05065492168068886
1772697816804880100,5.975880126953125,-0.13147227466106415,0.0860307514667511,0.007261641323566437
1772697816814928400,5.985928466796875,-0.12123508006334305,0.14436569809913635,0.05166985094547272
1772697816824977200,5.99597705078125,-0.09600082784891129,0.1949487179517746,0.08382299542427063
1772697816835025400,6.006025390625,-0.09215202927589417,0.22931334376335144,0.08570744842290878
1772697816845074200,6.01607421875,-0.109918512403965,0.28565067052841187,0.07291974872350693
1772697816855123200,6.026123291015625,-0.11369700729846954,0.34872522950172424,0.0806993767619133
1772697816865171200,6.036171142578125,-0.051776111125946045,-0.3335265815258026,0.7593258023262024
1772697816875220200,6.04622021484375,-0.11848989129066467,-1.0309048891067505,0.890042781829834
1772697816885269200,6.056269287109375,-0.1467582881450653,-1.8210852146148682,0.6498320698738098
1772697816895317200,6.066317138671875,-0.07696375995874405,-2.1473209857940674,0.2702977955341339
1772697816905366300,6.0763662109375,-0.015728363767266273,-1.8100110292434692,0.01914280094206333
1772697816915414300,6.086414306640625,0.009679258801043034,-1.0984923839569092,-0.20398108661174774
1772697816925463300,6.09646337890625,0.004568386357277632,-0.2999899089336395,-0.33472979068756104
1772697816935512800,6.106512939453125,-0.03512363135814667,0.21951477229595184,-0.2949408292770386
1772697816945560800,6.116560791015625,-0.06026893109083176,0.40404707193374634,-0.2011863738298416
1772697816955609900,6.12660986328125,-0.05963936075568199,0.5563892126083374,-0.18513470888137817
1772697816965657600,6.13665771484375,-0.0399458184838295,0.7487642168998718,-0.21314795315265656
1772697816975707000,6.146706787109375,-0.02840554155409336,0.8684296607971191,-0.23506870865821838
1772697816985756000,6.156755859375,-0.032824791967868805,0.8181803226470947,-0.20972633361816406
1772697816995804000,6.166803955078125,-0.034519094973802567,0.599158525466919,-0.17363916337490082
