time,seconds_elapsed,z,y,x
1772697810897553700,0.0685537109375,0.09659337252378464,0.11911310255527496,0.025157315656542778
1772697810907601700,0.0786015625,0.1002243235707283,0.12975482642650604,0.022606540471315384
1772697810917650400,0.088650390625,0.09710677713155746,0.12618006765842438,0.0077414363622665405
1772697810927698200,0.0986982421875,0.09219910204410553,0.10913290083408356,-0.005178090650588274
1772697810937747200,0.108747314453125,0.0854259729385376,0.09027856588363647,-0.016858113929629326
1772697810947796200,0.118796142578125,0.07788123935461044,0.07319705188274384,-0.016808845102787018
1772697810957844200,0.12884423828125,0.07356613874435425,0.06155817210674286,-0.0024800829123705626
1772697810967893200,0.138893310546875,0.06228205934166908,0.05811763554811478,0.013724186457693577
1772697810977941200,0.148941162109375,0.05712581053376198,0.05163417011499405,0.022745901718735695
1772697810987990000,0.158989990234375,0.056507691740989685,0.044452156871557236,0.024544866755604744
1772697810998039300,0.169039306640625,0.06160476431250572,0.04611131548881531,0.026601921766996384
1772697811008087000,0.179087158203125,0.06654492765665054,0.04804210737347603,0.02537314034998417
1772697811018136300,0.18913623046875,0.06462015956640244,0.050992876291275024,0.022951092571020126
1772697811028184000,0.19918408203125,0.06893447786569595,0.04134637489914894,0.017267907038331032
1772697811038233300,0.2092333984375,0.07143198698759079,0.03226874768733978,0.006784157827496529
1772697811048282000,0.2192822265625,0.07424694299697876,0.021984949707984924,0.0006959050078876317
1772697811058330400,0.229330322265625,0.0734616369009018,0.02167336270213127,0.000002556538674980402
1772697811068379100,0.239379150390625,0.07895094156265259,0.04905891418457031,0.011175049468874931
1772697811078427400,0.249427490234375,0.08133996278047562,0.07979416102170944,0.030792633071541786
1772697811088476200,0.25947607421875,0.08795605599880219,0.08348023891448975,0.04659343510866165
1772697811098525200,0.269525146484375,0.09268896281719208,0.07685726135969162,0.04376043379306793
1772697811108573200,0.2795732421875,0.09856761991977692,0.08293459564447403,0.03190989792346954
1772697811118622200,0.289622314453125,0.10687696188688278,0.08812640607357025,0.0234249085187912
1772697811128671200,0.299671142578125,0.11893974989652634,0.0952192097902298,0.0228925421833992
1772697811138719200,0.30971923828125,0.12384987622499466,0.11887791007757187,0.02534939907491207
1772697811148768300,0.319768310546875,0.12488477677106857,0.1363152265548706,0.029772110283374786
1772697811158816300,0.329816162109375,0.12905453145503998,0.14122426509857178,0.03793850913643837
1772697811168865300,0.339865234375,0.13339202105998993,0.1382945328950882,0.03151682764291763
1772697811178914300,0.349914306640625,0.13369223475456238,0.12240500003099442,0.01263867225497961
1772697811188962300,0.35996240234375,0.14304497838020325,0.10802526772022247,-0.016837194561958313
1772697811199011300,0.37001123046875,0.15125465393066406,0.11818388849496841,-0.04025215283036232
1772697811209059300,0.380059326171875,0.1578819304704666,0.1345687359571457,-0.06647070497274399
1772697811219108400,0.3901083984375,0.15962037444114685,0.13907773792743683,-0.0915449932217598
1772697811229157000,0.4001572265625,0.1672535389661789,0.12123561650514603,-0.10740146040916443
1772697811239205400,0.410205322265625,0.1679244339466095,0.0731533095240593,-0.12614022195339203
1772697811249254100,0.420254150390625,0.1699436455965042,-0.005008065141737461,-0.16589589416980743
1772697811259302100,0.43030224609375,0.1561916172504425,-0.07395278662443161,-0.21186567842960358
1772697811269351200,0.44035107421875,0.1542520374059677,-0.12010297179222107,-0.252310574054718
1772697811279400400,0.450400390625,0.16103670001029968,-0.13850060105323792,-0.2737653851509094
1772697811289448200,0.4604482421875,0.16514596343040466,-0.136679008603096,-0.2984049618244171
1772697811299497200,0.470497314453125,0.17768806219100952,-0.12603753805160522,-0.32011207938194275
1772697811309546200,0.480546142578125,0.19455252587795258,-0.08986461907625198,-0.3298187553882599
1772697811319594200,0.49059423828125,0.22213391959667206,-0.008269870653748512,-0.32109516859054565
1772697811329643300,0.500643310546875,0.24088098108768463,0.10041613131761551,-0.2906680107116699
1772697811339691300,0.510691162109375,0.24059805274009705,0.19563715159893036,-0.26664942502975464
1772697811349740300,0.520740234375,0.2364930659532547,0.20872364938259125,-0.2681618332862854
1772697811359789000,0.5307890625,0.24133837223052979,0.17643655836582184,-0.29756274819374084
1772697811369837300,0.54083740234375,0.252536416053772,0.1483612358570099,-0.3144993782043457
1772697811379886000,0.550885986328125,0.2666650116443634,0.14818283915519714,-0.30807989835739136
1772697811389934300,0.560934326171875,0.2681683897972107,0.1458943784236908,-0.28809261322021484
1772697811399983000,0.570983154296875,0.2645270526409149,0.12565115094184875,-0.2727073132991791
1772697811410032400,0.581032470703125,0.280588299036026,0.06914231926202774,-0.30231791734695435
1772697811420080000,0.591080078125,0.28537601232528687,-0.010601486079394817,-0.34585604071617126
1772697811430129400,0.60112939453125,0.28659895062446594,0.064903125166893,-0.31455352902412415
1772697811440177200,0.61117724609375,0.26171496510505676,0.1603151112794876,-0.2359643429517746
1772697811450226400,0.621226318359375,0.26096367835998535,0.17498433589935303,-0.16070261597633362
1772697811460275200,0.631275146484375,0.26609334349632263,0.235723614692688,-0.10730283707380295
1772697811470323200,0.6413232421875,0.27125534415245056,0.28686535358428955,-0.10226227343082428
1772697811480372200,0.651372314453125,0.28298327326774597,0.32659199833869934,-0.10516102612018585
1772697811490421200,0.661421142578125,0.30309122800827026,0.38135188817977905,-0.07747480273246765
1772697811500469200,0.67146923828125,0.29093068838119507,0.36353641748428345,-0.08646287024021149
1772697811510518300,0.681518310546875,0.27566438913345337,0.2751927077770233,-0.14676934480667114
1772697811520566300,0.691566162109375,0.27216941118240356,0.16664305329322815,-0.22483032941818237
1772697811530615300,0.701615234375,0.2819024622440338,0.09439707547426224,-0.28023073077201843
1772697811540664300,0.711664306640625,0.2873924970626831,0.05997469276189804,-0.30793339014053345
1772697811550712300,0.72171240234375,0.28097614645957947,0.04461091756820679,-0.3304283320903778
1772697811560761000,0.731760986328125,0.2658255994319916,0.02536793425679207,-0.34984153509140015
1772697811570809000,0.74180908203125,0.245267853140831,-0.018235202878713608,-0.36526790261268616
1772697811580858000,0.751858154296875,0.2298411726951599,-0.05449570342898369,-0.3850365877151489
1772697811590907400,0.761907470703125,0.20798780024051666,-0.08922625333070755,-0.39031922817230225
1772697811600955100,0.771955078125,0.18049094080924988,-0.11173182725906372,-0.40097934007644653
1772697811611004400,0.78200439453125,0.14967815577983856,-0.13529974222183228,-0.43296071887016296
1772697811621053200,0.79205322265625,0.13493740558624268,-0.18329522013664246,-0.4949132800102234
1772697811631101200,0.80210107421875,0.1344068944454193,-0.23031626641750336,-0.5666007995605469
1772697811641150200,0.812150146484375,0.1455032378435135,-0.24213646352291107,-0.6269078254699707
1772697811651198200,0.8221982421875,0.16070829331874847,-0.2437274307012558,-0.6742998361587524
1772697811661247200,0.832247314453125,0.18226519227027893,-0.22914478182792664,-0.7269271016120911
1772697811671296300,0.842296142578125,0.21180523931980133,-0.18671183288097382,-0.7731992602348328
1772697811681344300,0.85234423828125,0.26099932193756104,-0.10263609886169434,-0.7813113927841187
1772697811691393000,0.86239306640625,0.3058408200740814,-0.004702075384557247,-0.758040189743042
1772697811701441300,0.872441162109375,0.33506959676742554,0.07351629436016083,-0.7038572430610657
1772697811711490000,0.882489990234375,0.3363306224346161,0.09855853021144867,-0.6283033490180969
1772697811721539300,0.892539306640625,0.34091717004776,0.09664559364318848,-0.5388908982276917
1772697811731587000,0.902587158203125,0.3493809401988983,0.11090922355651855,-0.44000452756881714
1772697811741636400,0.91263623046875,0.34745723009109497,0.12664447724819183,-0.33538296818733215
1772697811751684000,0.92268408203125,0.3396341800689697,0.1354731321334839,-0.2265840768814087
1772697811761733400,0.9327333984375,0.32357773184776306,0.13802769780158997,-0.11646636575460434
1772697811771782100,0.9427822265625,0.30753085017204285,0.11294949799776077,-0.015647616237401962
1772697811781830400,0.952830322265625,0.29547950625419617,0.07352881878614426,0.0719492956995964
1772697811791879200,0.962879150390625,0.29793813824653625,0.07161826640367508,0.13923858106136322
1772697811801927400,0.972927490234375,0.28549155592918396,0.12478134036064148,0.18846745789051056
1772697811811976200,0.98297607421875,0.26950594782829285,0.1793564409017563,0.19772008061408997
1772697811822025200,0.993025146484375,0.25139299035072327,0.21229441463947296,0.1781620979309082
1772697811832073200,1.0030732421875,0.24666719138622284,0.2226754128932953,0.14438335597515106
1772697811842122200,1.013122314453125,0.23534975945949554,0.23269318044185638,0.11031520366668701
1772697811852171300,1.023171142578125,0.2255549281835556,0.22956717014312744,0.0767764151096344
1772697811862219300,1.03321923828125,0.2061503827571869,0.19104427099227905,0.013079977594316006
1772697811872268300,1.043268310546875,0.19530358910560608,0.13615359365940094,-0.044590242207050323
1772697811882316300,1.05331640625,0.15664157271385193,0.12856997549533844,-0.07529047876596451
1772697811892365300,1.063365234375,0.1321202516555786,0.14985103905200958,-0.08218700438737869
1772697811902414300,1.073414306640625,0.12411554902791977,0.17183542251586914,-0.0627981498837471
1772697811912462300,1.08346240234375,0.11150947958230972,0.18945862352848053,-0.04540851339697838
1772697811922511400,1.093511474609375,0.10370460152626038,0.17268842458724976,-0.04702054336667061
1772697811932559600,1.1035595703125,0.09531724452972412,0.11985290050506592,-0.03392950817942619
1772697811942608600,1.113608642578125,0.08593646436929703,0.08750803768634796,-0.024447787553071976
1772697811952657400,1.123657470703125,0.0707567110657692,0.09877001494169235,-0.011245165951550007
1772697811962705400,1.133705322265625,0.05015317723155022,0.1399291455745697,-0.01682879962027073
1772697811972754400,1.14375439453125,0.027623897418379784,0.13662229478359222,-0.03577479347586632
1772697811982803500,1.153803466796875,0.002381338505074382,0.09619444608688354,-0.03817443922162056
1772697811992851500,1.1638515625,-0.021046489477157593,0.040171124041080475,-0.02240719646215439
1772697812002900500,1.173900390625,-0.03426041081547737,0.04107449948787689,0.010223918594419956
1772697812012948500,1.183948486328125,-0.052947014570236206,0.06508928537368774,0.04770205169916153
1772697812022997500,1.19399755859375,-0.0827476754784584,0.12421702593564987,0.09283550828695297
1772697812033046500,1.204046630859375,-0.10396134853363037,0.17437021434307098,0.13123562932014465
1772697812043094300,1.21409423828125,-0.10459071397781372,0.16713762283325195,0.1484556943178177
1772697812053143600,1.2241435546875,-0.11008081585168839,0.16065628826618195,0.1644892543554306
1772697812063191300,1.23419140625,-0.11597438901662827,0.14820677042007446,0.18217147886753082
1772697812073240600,1.244240478515625,-0.1292979121208191,0.17885123193264008,0.2240864485502243
1772697812083289300,1.254289306640625,-0.14475251734256744,0.23262900114059448,0.26970723271369934
1772697812093337600,1.264337646484375,-0.15877991914749146,0.25365757942199707,0.30839070677757263
1772697812103386400,1.274386474609375,-0.17558759450912476,0.2664559483528137,0.35321131348609924
1772697812113434600,1.2844345703125,-0.2023550271987915,0.3004181683063507,0.4075765609741211
1772697812123483400,1.2944833984375,-0.20558209717273712,0.3095397353172302,0.47139161825180054
1772697812133532400,1.304532470703125,-0.20830917358398438,0.2992072105407715,0.5355716347694397
1772697812143580400,1.314580322265625,-0.22456499934196472,0.3049069344997406,0.5783202052116394
1772697812153629400,1.32462939453125,-0.24559944868087769,0.3559038043022156,0.5925332307815552
1772697812163677400,1.334677490234375,-0.25999072194099426,0.42607277631759644,0.5910322666168213
1772697812173726500,1.3447265625,-0.2733059823513031,0.5135493278503418,0.5771702527999878
1772697812183775500,1.354775390625,-0.2793090343475342,0.5580563545227051,0.5800737142562866
1772697812193823500,1.364823486328125,-0.2717459201812744,0.5902941823005676,0.588182806968689
1772697812203872500,1.37487255859375,-0.26637396216392517,0.583257257938385,0.6018484234809875
1772697812213921500,1.384921630859375,-0.2622585594654083,0.5570390224456787,0.5907808542251587
1772697812223969500,1.394969482421875,-0.25997576117515564,0.5388578772544861,0.5851673483848572
1772697812234018600,1.4050185546875,-0.25267791748046875,0.5123969912528992,0.5755681991577148
1772697812244066600,1.415066650390625,-0.26091766357421875,0.5413976907730103,0.5659045577049255
1772697812254115600,1.425115478515625,-0.2665151059627533,0.5520666241645813,0.5653404593467712
1772697812264164400,1.435164306640625,-0.2757442891597748,0.5550222396850586,0.5920078754425049
1772697812274212600,1.445212646484375,-0.2783890664577484,0.5749123096466064,0.6308271884918213
1772697812284261400,1.455261474609375,-0.29036617279052734,0.5855617523193359,0.6651879549026489
1772697812294309400,1.465309326171875,-0.2858571708202362,0.5796468257904053,0.6798974275588989
1772697812304358400,1.4753583984375,-0.27748167514801025,0.5653371810913086,0.6623035669326782
1772697812314407700,1.48540771484375,-0.27381396293640137,0.5259487628936768,0.6392421722412109
1772697812324455400,1.495455322265625,-0.2705689072608948,0.4827623963356018,0.6018828749656677
1772697812334504700,1.505504638671875,-0.24786494672298431,0.4509245753288269,0.5758318305015564
1772697812344552400,1.515552490234375,-0.2237502783536911,0.4213366210460663,0.5530762672424316
1772697812354601500,1.5256015625,-0.21442095935344696,0.41005706787109375,0.5273120403289795
1772697812364650500,1.535650390625,-0.19220267236232758,0.3774231970310211,0.5157495737075806
1772697812374698500,1.545698486328125,-0.1785888671875,0.41650959849357605,0.5181970596313477
1772697812384747500,1.55574755859375,-0.1737121045589447,0.5181789994239807,0.5308247208595276
1772697812394796500,1.565796630859375,-0.16138193011283875,0.5606452226638794,0.5581130981445312
1772697812404844500,1.575844482421875,-0.13990119099617004,0.5757892727851868,0.5922635793685913
1772697812414893300,1.585893310546875,-0.09851006418466568,0.5967496633529663,0.6471518278121948
1772697812424941600,1.595941650390625,-0.0186842679977417,0.6234870553016663,0.6993106603622437
1772697812434990300,1.605990234375,0.09452777355909348,0.6827660799026489,0.7295145988464355
1772697812445039600,1.61603955078125,0.2272750735282898,0.7599993348121643,0.7017935514450073
1772697812455087400,1.62608740234375,0.34223997592926025,0.8839865326881409,0.6223029494285583
1772697812465136600,1.63613671875,0.3507116734981537,1.0294800996780396,0.4746417701244354
1772697812475184400,1.646184326171875,0.2529446482658386,1.147136926651001,0.2869243323802948
1772697812485233700,1.656233642578125,0.11896377056837082,1.1773768663406372,0.08689223229885101
1772697812495282400,1.666282470703125,-0.007328120060265064,1.0720027685165405,-0.090449258685112
1772697812505330700,1.67633056640625,-0.1660231649875641,0.8147773742675781,-0.1795949786901474
1772697812515379500,1.68637939453125,-0.27608975768089294,0.46858930587768555,-0.13129030168056488
1772697812525427500,1.696427490234375,-0.3141181170940399,0.08996691554784775,0.008650075644254684
1772697812535476500,1.7064765625,-0.32591137290000916,-0.2930174767971039,0.1706078201532364
1772697812545525500,1.716525390625,-0.2963158190250397,-0.6253690719604492,0.31548067927360535
1772697812555573500,1.726573486328125,-0.23809432983398438,-0.7374199628829956,0.40718159079551697
1772697812565622500,1.73662255859375,-0.1749258041381836,-0.7214534878730774,0.42858171463012695
1772697812575670500,1.74667041015625,-0.12640593945980072,-0.6404553055763245,0.3878883421421051
1772697812585719600,1.756719482421875,-0.08721901476383209,-0.48112162947654724,0.3443472385406494
1772697812595768600,1.7667685546875,-0.05383548513054848,-0.3457246422767639,0.31091761589050293
1772697812605816600,1.776816650390625,-0.04476311057806015,-0.25291746854782104,0.29425784945487976
1772697812615865300,1.786865234375,-0.0351397804915905,-0.22671543061733246,0.2670171558856964
1772697812625914600,1.79691455078125,-0.027060121297836304,-0.20189103484153748,0.2146611511707306
1772697812635962400,1.80696240234375,-0.05422063544392586,-0.17551667988300323,0.11426370590925217
1772697812646011600,1.81701171875,-0.0919681191444397,-0.09396137297153473,0.0024808631278574467
1772697812656059400,1.827059326171875,-0.12563420832157135,-0.05481130629777908,-0.11088217794895172
1772697812666108700,1.837108642578125,-0.13579332828521729,-0.10299424827098846,-0.1856963038444519
1772697812676157400,1.847157470703125,-0.14610375463962555,-0.18850195407867432,-0.2051112800836563
1772697812686205400,1.857205322265625,-0.14073768258094788,-0.306755393743515,-0.17988376319408417
1772697812696254500,1.86725439453125,-0.12901312112808228,-0.4611087441444397,-0.11723289638757706
1772697812706302500,1.877302490234375,-0.10456061363220215,-0.6425848007202148,-0.05310969427227974
1772697812716351500,1.8873515625,-0.09857328981161118,-0.8710188269615173,-0.0689171552658081
1772697812726400300,1.897400146484375,-0.09168470650911331,-1.0509891510009766,-0.15322284400463104
1772697812736448500,1.907448486328125,-0.06810081750154495,-1.101554274559021,-0.2915570139884949
1772697812746497300,1.917497314453125,-0.027420924976468086,-1.1067618131637573,-0.4520484507083893
1772697812756545500,1.927545654296875,0.013210657984018326,-1.1280487775802612,-0.6268873810768127
1772697812766594300,1.93759423828125,0.06977294385433197,-1.124733567237854,-0.7510963678359985
1772697812776643600,1.9476435546875,0.11248552054166794,-1.113059401512146,-0.8216562867164612
1772697812786691300,1.95769140625,0.12726008892059326,-1.1226952075958252,-0.8445343375205994
1772697812796740600,1.96774072265625,0.12906359136104584,-1.1295462846755981,-0.8048012852668762
1772697812806789400,1.977789306640625,0.12654249370098114,-1.1224573850631714,-0.7109546661376953
1772697812816837600,1.987837646484375,0.10242009907960892,-1.1040940284729004,-0.5869104862213135
1772697812826886400,1.997886474609375,0.07340922206640244,-1.1148407459259033,-0.4657825827598572
1772697812836934700,2.0079345703125,0.06030833348631859,-1.1770199537277222,-0.379836767911911
1772697812846983400,2.0179833984375,0.04559905081987381,-1.2607539892196655,-0.3261134624481201
1772697812857032400,2.028032470703125,0.0432400219142437,-1.345908284187317,-0.29592788219451904
1772697812867080400,2.03808056640625,0.034781355410814285,-1.3820871114730835,-0.2711280584335327
1772697812877129500,2.04812939453125,0.025224070996046066,-1.369054913520813,-0.26688164472579956
1772697812887177500,2.058177490234375,0.014081298373639584,-1.3112353086471558,-0.30516353249549866
1772697812897226500,2.0682265625,0.020025206729769707,-1.214766502380371,-0.37495991587638855
1772697812907275500,2.078275634765625,0.024601580575108528,-1.0970500707626343,-0.45690417289733887
1772697812917323500,2.088323486328125,0.0392412431538105,-0.9833090901374817,-0.551334023475647
1772697812927372500,2.09837255859375,0.05440475046634674,-0.8815004229545593,-0.6347082257270813
1772697812937420500,2.108420654296875,0.07261598110198975,-0.8680930137634277,-0.6759132146835327
1772697812947469800,2.1184697265625,0.09897088259458542,-0.914313018321991,-0.6580365896224976
1772697812957518600,2.1285185546875,0.12059255689382553,-0.9316655993461609,-0.632972002029419
1772697812967566800,2.13856689453125,0.17647041380405426,-0.9795383214950562,-0.6279824376106262
1772697812977615600,2.14861572265625,0.2108507603406906,-1.0012433528900146,-0.6495508551597595
1772697812987664600,2.15866455078125,0.21275517344474792,-0.9826939105987549,-0.6945201754570007
1772697812997712600,2.168712646484375,0.2240632325410843,-0.917243242263794,-0.7561995387077332
1772697813007761700,2.17876171875,0.22314758598804474,-0.8590793013572693,-0.8364230394363403
1772697813017809700,2.1888095703125,0.23089765012264252,-0.8066033124923706,-0.9040364027023315
1772697813027858700,2.198858642578125,0.2294846773147583,-0.7705308198928833,-0.9493177533149719
1772697813037907700,2.20890771484375,0.22469951212406158,-0.7658575177192688,-0.950431764125824
1772697813047955500,2.21895556640625,0.21036547422409058,-0.7853693962097168,-0.9338321089744568
1772697813058004700,2.229004638671875,0.21373890340328217,-0.7970142960548401,-0.8980259299278259
1772697813068052500,2.239052490234375,0.2171173244714737,-0.8152849674224854,-0.861078143119812
1772697813078101800,2.249101806640625,0.2453569620847702,-0.795962929725647,-0.8124788999557495
1772697813088150500,2.259150634765625,0.2663138508796692,-0.7550727128982544,-0.7821104526519775
1772697813098198500,2.269198486328125,0.28913554549217224,-0.7067043781280518,-0.7629444599151611
1772697813108247600,2.27924755859375,0.304156631231308,-0.6380451917648315,-0.766887366771698
1772697813118295600,2.289295654296875,0.31853345036506653,-0.5647869110107422,-0.7870493531227112
1772697813128344600,2.299344482421875,0.314020037651062,-0.48579463362693787,-0.8080704212188721
1772697813138393600,2.3093935546875,0.30950143933296204,-0.40061476826667786,-0.8202301859855652
1772697813148441600,2.319441650390625,0.30578023195266724,-0.3226163983345032,-0.8195220232009888
1772697813158490600,2.32949072265625,0.3045216500759125,-0.2493450939655304,-0.8078020215034485
1772697813168538600,2.33953857421875,0.2922579050064087,-0.17980064451694489,-0.7838800549507141
1772697813178587600,2.349587646484375,0.28753557801246643,-0.11444375663995743,-0.7492828965187073
1772697813188636400,2.359636474609375,0.28811216354370117,-0.05996666103601456,-0.711719810962677
1772697813198684700,2.3696845703125,0.2853192985057831,0.0015667392872273922,-0.6774427890777588
1772697813208733400,2.3797333984375,0.2891254723072052,0.056110963225364685,-0.6435319185256958
1772697813218782700,2.38978271484375,0.28904399275779724,0.08994962275028229,-0.6280075907707214
1772697813228830500,2.39983056640625,0.28770601749420166,0.10648038238286972,-0.626870334148407
1772697813238879700,2.409879638671875,0.2785889506340027,0.1184781864285469,-0.6360329389572144
1772697813248927500,2.419927490234375,0.2744206190109253,0.1400308758020401,-0.6428022980690002
1772697813258976800,2.429976806640625,0.2632182836532593,0.1690944880247116,-0.6483954787254333
1772697813269025500,2.440025634765625,0.2506529688835144,0.1774919629096985,-0.6634311079978943
1772697813279073800,2.45007373046875,0.23931719362735748,0.14258192479610443,-0.6973829865455627
1772697813289122600,2.46012255859375,0.2389971762895584,0.07207128405570984,-0.7371137142181396
1772697813299170800,2.4701708984375,0.24655255675315857,0.005617155693471432,-0.7882347106933594
1772697813309219600,2.480219482421875,0.2662948668003082,-0.06318028271198273,-0.8339835405349731
1772697813319268600,2.4902685546875,0.2813827395439148,-0.09834893047809601,-0.8786503076553345
1772697813329316600,2.500316650390625,0.29224416613578796,-0.1101778894662857,-0.9177972078323364
1772697813339365600,2.51036572265625,0.3035029470920563,-0.12558533251285553,-0.9533288478851318
1772697813349414700,2.52041455078125,0.3139854073524475,-0.14515982568264008,-0.9881321787834167
1772697813359462400,2.53046240234375,0.3331732153892517,-0.16696658730506897,-1.020450472831726
1772697813369511700,2.54051171875,0.34655606746673584,-0.18605932593345642,-1.046797275543213
1772697813379559400,2.550559326171875,0.36045271158218384,-0.2029309868812561,-1.0595349073410034
1772697813389608700,2.560608642578125,0.37175050377845764,-0.23957125842571259,-1.0604336261749268
1772697813399657700,2.57065771484375,0.3820497393608093,-0.28970232605934143,-1.0534545183181763
1772697813409705700,2.580705810546875,0.39357805252075195,-0.36792632937431335,-1.017427682876587
1772697813419754500,2.59075439453125,0.40593990683555603,-0.4392518997192383,-0.9743714928627014
1772697813429802800,2.600802734375,0.4325898289680481,-0.4717422127723694,-0.9378682374954224
1772697813439851500,2.6108515625,0.4456885755062103,-0.4358244240283966,-0.9217821955680847
1772697813449900500,2.620900634765625,0.43629464507102966,-0.3639957904815674,-0.9248664379119873
1772697813459948500,2.630948486328125,0.42087307572364807,-0.27707791328430176,-0.9337581992149353
1772697813469997600,2.64099755859375,0.4103502333164215,-0.18683376908302307,-0.9363756775856018
1772697813480045600,2.651045654296875,0.4025208055973053,-0.10492932051420212,-0.9117960333824158
1772697813490094600,2.661094482421875,0.39067021012306213,-0.05108872428536415,-0.8708093166351318
1772697813500143600,2.6711435546875,0.3765527904033661,-0.022232042625546455,-0.8308922648429871
1772697813510191600,2.681191650390625,0.3532208502292633,0.002858382649719715,-0.7872427105903625
1772697813520240600,2.69124072265625,0.34315383434295654,0.00896873977035284,-0.727966845035553
1772697813530289700,2.70128955078125,0.3445766866207123,-0.06577125191688538,-0.6735193729400635
1772697813540337700,2.711337646484375,0.34708884358406067,-0.23328275978565216,-0.6422999501228333
1772697813550386700,2.72138671875,0.35718607902526855,-0.44216805696487427,-0.6231711506843567
1772697813560434700,2.7314345703125,0.38604703545570374,-0.5745418071746826,-0.5715013146400452
1772697813570483700,2.741483642578125,0.39582598209381104,-0.5742518305778503,-0.49008065462112427
1772697813580532500,2.751532470703125,0.31371620297431946,-0.5395596623420715,-0.43862277269363403
1772697813590580700,2.761580810546875,0.1668306291103363,-0.5460407137870789,-0.46119505167007446
1772697813600629500,2.77162939453125,0.08040465414524078,-0.5758667588233948,-0.4953945577144623
1772697813610677800,2.781677734375,0.07519226521253586,-0.5921895503997803,-0.45722639560699463
1772697813620726500,2.7917265625,0.08947266638278961,-0.5574312806129456,-0.3488847613334656
1772697813630775800,2.80177587890625,0.05413289740681648,-0.43566757440567017,-0.24809515476226807
1772697813640823600,2.811823486328125,-0.012992613017559052,-0.2547212243080139,-0.2475084662437439
1772697813650872800,2.821872802734375,-0.04213835299015045,-0.027508318424224854,-0.33981257677078247
1772697813660920600,2.831920654296875,-0.01969003491103649,0.17425702512264252,-0.44431713223457336
1772697813670969600,2.841969482421875,0.03668557107448578,0.3018975257873535,-0.47079527378082275
1772697813681018600,2.8520185546875,0.09997479617595673,0.32705774903297424,-0.36771735548973083
1772697813691066600,2.862066650390625,0.15059934556484222,0.2701587975025177,-0.16237187385559082
1772697813701115600,2.87211572265625,0.16905665397644043,0.1721387505531311,0.040780965238809586
1772697813711163600,2.88216357421875,0.17002588510513306,0.142237588763237,0.16489243507385254
1772697813721212700,2.892212646484375,0.17476844787597656,0.19280436635017395,0.19752760231494904
1772697813731261700,2.90226171875,0.20247559249401093,0.3590889275074005,0.20172005891799927
1772697813741309700,2.912309814453125,0.22240722179412842,0.530337393283844,0.20333872735500336
1772697813751358500,2.9223583984375,0.24283137917518616,0.6346712112426758,0.20481695234775543
1772697813761407500,2.932407470703125,0.2524541914463043,0.6114862561225891,0.1889658123254776
1772697813771455500,2.94245556640625,0.24126560986042023,0.5255846977233887,0.15564778447151184
1772697813781504500,2.95250439453125,0.24684147536754608,0.46437540650367737,0.1156468391418457
1772697813791552500,2.962552490234375,0.26483020186424255,0.4642007052898407,0.10016630589962006
1772697813801601500,2.9726015625,0.25472936034202576,0.4935559630393982,0.09433610737323761
1772697813811650600,2.982650634765625,0.23645901679992676,0.5040791034698486,0.08494484424591064
1772697813821698600,2.992698486328125,0.2082766443490982,0.4598347246646881,0.053367212414741516
1772697813831747600,3.00274755859375,0.18771055340766907,0.3880939781665802,0.014562868513166904
1772697813841795600,3.012795654296875,0.17572766542434692,0.330357164144516,-0.032707978039979935
1772697813851844600,3.0228447265625,0.16326572000980377,0.32316553592681885,-0.08047012984752655
1772697813861893600,3.0328935546875,0.13782374560832977,0.3450931906700134,-0.10879577696323395
1772697813871941600,3.042941650390625,0.11077625304460526,0.3363098204135895,-0.1235482394695282
1772697813881990700,3.05299072265625,0.10622597485780716,0.2990204989910126,-0.07983564585447311
1772697813892039400,3.063039306640625,0.09990772604942322,0.24977976083755493,0.012751651927828789
1772697813902087700,3.073087646484375,0.10263986140489578,0.20987363159656525,0.15088582038879395
1772697813912136400,3.083136474609375,0.10899396240711212,0.17125776410102844,0.3139396607875824
1772697813922184700,3.093184814453125,0.1254672110080719,0.13782072067260742,0.4721871018409729
1772697813932234200,3.103234130859375,0.127108633518219,0.1542700082063675,0.5995264053344727
1772697813942283300,3.113283203125,0.10648376494646072,0.21070584654808044,0.6832013130187988
1772697813952331300,3.123331298828125,0.09013313055038452,0.3554483950138092,0.7384049892425537
1772697813962380300,3.13338037109375,0.083475761115551,0.48333898186683655,0.7576838731765747
1772697813972428300,3.14342822265625,0.05967509374022484,0.6036105155944824,0.7675391435623169
1772697813982477300,3.153477294921875,0.03176303580403328,0.6779595613479614,0.7813191413879395
1772697813992526300,3.1635263671875,0.01400049775838852,0.7261723875999451,0.8232266902923584
1772697814002574300,3.17357421875,0.011426552198827267,0.7365411520004272,0.8664993047714233
1772697814012623400,3.183623291015625,0.0181503314524889,0.6849685311317444,0.8864113688468933
1772697814022671000,3.193671142578125,0.027498027309775352,0.6271704435348511,0.8771483302116394
1772697814032720400,3.203720458984375,0.02916138991713524,0.5772806406021118,0.8385891914367676
1772697814042769400,3.213769287109375,0.013688157312572002,0.519808292388916,0.7851957678794861
1772697814052817400,3.2238173828125,-0.010512358509004116,0.4807911515235901,0.7083702087402344
1772697814062866200,3.2338662109375,-0.04403756186366081,0.44601505994796753,0.6379407644271851
1772697814072915200,3.243915283203125,-0.06652987003326416,0.41734424233436584,0.6000449061393738
1772697814082963200,3.253963134765625,-0.06810832768678665,0.3783494234085083,0.58269864320755
1772697814093012200,3.26401220703125,-0.07997515797615051,0.34779712557792664,0.572534441947937
1772697814103060200,3.274060302734375,-0.08609110862016678,0.33340221643447876,0.56245356798172
1772697814113109200,3.284109130859375,-0.08485326915979385,0.3501929044723511,0.5394585132598877
1772697814123158300,3.294158203125,-0.08406524360179901,0.36666321754455566,0.531887948513031
1772697814133206300,3.304206298828125,-0.0812150239944458,0.3886342942714691,0.5304708480834961
1772697814143255300,3.31425537109375,-0.06479450315237045,0.378782719373703,0.553935170173645
1772697814153303300,3.32430322265625,-0.053650349378585815,0.3428916037082672,0.5760104656219482
1772697814163352300,3.334352294921875,-0.05746452882885933,0.32032689452171326,0.5905217528343201
1772697814173401300,3.3444013671875,-0.05674195662140846,0.32923221588134766,0.5999787449836731
1772697814183449300,3.354449462890625,-0.05588921159505844,0.3307076096534729,0.61373370885849
1772697814193498400,3.364498291015625,-0.07279576361179352,0.3305204212665558,0.6281335949897766
1772697814203546400,3.37454638671875,-0.0926392450928688,0.3303028345108032,0.6356969475746155
1772697814213595400,3.384595458984375,-0.11498257517814636,0.32937073707580566,0.6420391201972961
1772697814223644200,3.39464404296875,-0.1491866111755371,0.32296982407569885,0.6369932293891907
1772697814233692400,3.4046923828125,-0.16865810751914978,0.2946140766143799,0.6222618222236633
1772697814243741200,3.4147412109375,-0.17051060497760773,0.2740834951400757,0.6068980693817139
1772697814253789400,3.42478955078125,-0.16411294043064117,0.28687170147895813,0.5951352119445801
1772697814263838200,3.434838134765625,-0.16560404002666473,0.3535117208957672,0.5996530055999756
1772697814273887500,3.444887451171875,-0.17811845242977142,0.40183186531066895,0.615005373954773
1772697814283935200,3.454935302734375,-0.18407247960567474,0.43920984864234924,0.6435068249702454
1772697814293984500,3.464984619140625,-0.18246698379516602,0.4600733518600464,0.6824123859405518
1772697814304033300,3.475033203125,-0.1698656976222992,0.4632646143436432,0.7205305099487305
1772697814314081500,3.48508154296875,-0.16780473291873932,0.4556106626987457,0.7399821877479553
1772697814324130300,3.49513037109375,-0.173040509223938,0.44516921043395996,0.7526138424873352
1772697814334178300,3.50517822265625,-0.1909608542919159,0.4240434169769287,0.7509745359420776
1772697814344227300,3.515227294921875,-0.21616874635219574,0.39233821630477905,0.7364411354064941
1772697814354276400,3.5252763671875,-0.23462790250778198,0.35377752780914307,0.713859498500824
1772697814364324400,3.535324462890625,-0.24705927073955536,0.33168578147888184,0.7034550309181213
1772697814374373400,3.545373291015625,-0.2456333041191101,0.3152037560939789,0.6852215528488159
1772697814384421400,3.55542138671875,-0.2312208116054535,0.32518234848976135,0.6455838680267334
1772697814394470100,3.56547021484375,-0.20187075436115265,0.337539941072464,0.589304506778717
1772697814404519400,3.57551953125,-0.18330451846122742,0.33790189027786255,0.5260648131370544
1772697814414567200,3.585567138671875,-0.17290011048316956,0.3170815706253052,0.46675947308540344
1772697814424616400,3.595616455078125,-0.17216506600379944,0.29590678215026855,0.41852056980133057
1772697814434664200,3.605664306640625,-0.1799890547990799,0.2755484879016876,0.39650869369506836
1772697814444713500,3.61571337890625,-0.19008482992649078,0.23896092176437378,0.3687417805194855
1772697814454762200,3.62576220703125,-0.21421824395656586,0.20331184566020966,0.3365858495235443
1772697814464810500,3.635810546875,-0.2286168932914734,0.16318386793136597,0.3008260130882263
1772697814474859300,3.645859375,-0.24094673991203308,0.11284773051738739,0.2696647644042969
1772697814484908300,3.655908203125,-0.24655161798000336,0.04427878558635712,0.2514095902442932
1772697814494956300,3.665956298828125,-0.24654939770698547,-0.00026655709370970726,0.27602294087409973
1772697814505005300,3.67600537109375,-0.23922143876552582,-0.03037332557141781,0.3327259123325348
1772697814515053300,3.68605322265625,-0.2456994652748108,-0.06648847460746765,0.40567678213119507
1772697814525102300,3.696102294921875,-0.252416729927063,-0.05808141082525253,0.45667630434036255
1772697814535151400,3.7061513671875,-0.2636938691139221,-0.03171052038669586,0.4794861674308777
1772697814545199400,3.716199462890625,-0.25202175974845886,-0.045513153076171875,0.4572583734989166
1772697814555248400,3.726248291015625,-0.23320215940475464,-0.08204852044582367,0.4287537634372711
1772697814565296400,3.73629638671875,-0.2178245335817337,-0.0864427387714386,0.4250972270965576
1772697814575345200,3.74634521484375,-0.18085868656635284,-0.021610215306282043,0.45671308040618896
1772697814585394400,3.75639453125,-0.09372245520353317,0.09355871379375458,0.4720587432384491
1772697814595442200,3.766442138671875,0.05315396934747696,0.19550959765911102,0.45875638723373413
1772697814605491500,3.776491455078125,0.22499656677246094,0.256796658039093,0.4225192964076996
1772697814615539200,3.786539306640625,0.36484065651893616,0.32314449548721313,0.3943772614002228
1772697814625588500,3.79658837890625,0.40622803568840027,0.4115917980670929,0.3960302770137787
1772697814635637200,3.80663720703125,0.3317396342754364,0.452595978975296,0.399323970079422
1772697814645685500,3.816685546875,0.19131620228290558,0.4312904477119446,0.3716811537742615
1772697814655734300,3.826734375,0.01629534363746643,0.36223649978637695,0.29389041662216187
1772697814665783300,3.836783203125,-0.19533754885196686,0.20247240364551544,0.21140459179878235
1772697814675831300,3.846831298828125,-0.37466496229171753,0.03359764441847801,0.16528214514255524
1772697814685880300,3.85688037109375,-0.46521589159965515,-0.09156187623739243,0.1460147202014923
1772697814695928300,3.86692822265625,-0.4739595949649811,-0.1774357706308365,0.15787069499492645
1772697814705977300,3.876977294921875,-0.40821120142936707,-0.21716268360614777,0.17682893574237823
1772697814716026400,3.8870263671875,-0.3005281984806061,-0.2435457855463028,0.18775886297225952
1772697814726074000,3.89707421875,-0.17686539888381958,-0.2377946972846985,0.17508116364479065
1772697814736123400,3.907123291015625,-0.09099265933036804,-0.20288650691509247,0.16735319793224335
1772697814746171100,3.917171142578125,-0.043903980404138565,-0.19190630316734314,0.2125246673822403
1772697814756220400,3.927220458984375,-0.016044385731220245,-0.22929814457893372,0.3164635896682739
1772697814766269200,3.937269287109375,-0.0206412672996521,-0.26209789514541626,0.4354517459869385
1772697814776317400,3.9473173828125,-0.06015719473361969,-0.2695302665233612,0.5075169801712036
1772697814786366200,3.9573662109375,-0.09999009221792221,-0.19982682168483734,0.49742627143859863
1772697814796414500,3.96741455078125,-0.1425935924053192,-0.06003401055932045,0.42406541109085083
1772697814806463200,3.977463134765625,-0.1744828075170517,0.05564092472195625,0.2993261516094208
1772697814816512300,3.98751220703125,-0.19244982302188873,0.12067528814077377,0.16719363629817963
1772697814826560300,3.997560302734375,-0.19628557562828064,0.1557680368423462,0.04228046536445618
1772697814836609300,4.007609375,-0.21201366186141968,0.1373426765203476,-0.0629422515630722
1772697814846658300,4.017658203125,-0.22759102284908295,0.08608853816986084,-0.12809142470359802
1772697814856706300,4.027706298828125,-0.23813603818416595,0.009815873578190804,-0.16088934242725372
1772697814866755300,4.03775537109375,-0.23033855855464935,-0.0758790597319603,-0.16564787924289703
1772697814876803300,4.04780322265625,-0.21414101123809814,-0.19229485094547272,-0.16386492550373077
1772697814886852400,4.057852294921875,-0.18743695318698883,-0.29027625918388367,-0.15671220421791077
1772697814896901400,4.0679013671875,-0.13605105876922607,-0.3718012571334839,-0.16575463116168976
1772697814906949400,4.077949462890625,-0.08369064331054688,-0.5516948699951172,-0.22807978093624115
1772697814916998400,4.087998291015625,-0.02566143125295639,-0.8038525581359863,-0.35206255316734314
1772697814927046400,4.09804638671875,0.048802416771650314,-1.037557601928711,-0.49108487367630005
1772697814937095400,4.108095458984375,0.09302222728729248,-1.186597466468811,-0.5995021462440491
1772697814947144200,4.118144287109375,0.10362480580806732,-1.2271573543548584,-0.6602720618247986
1772697814957192400,4.1281923828125,0.0656365230679512,-1.1821303367614746,-0.6589463353157043
1772697814967241200,4.1382412109375,0.007320487406104803,-1.086470365524292,-0.6147290468215942
1772697814977289500,4.14828955078125,-0.05059090629220009,-1.0078836679458618,-0.5629578232765198
1772697814987338200,4.158338134765625,-0.10290204733610153,-0.9458518028259277,-0.535606324672699
1772697814997387500,4.168387451171875,-0.13575100898742676,-0.9014160633087158,-0.524612545967102
1772697815007435300,4.178435302734375,-0.14971290528774261,-0.8781182765960693,-0.5310837626457214
1772697815017484500,4.188484619140625,-0.15555088222026825,-0.9004826545715332,-0.5484771132469177
1772697815027532300,4.1985322265625,-0.15980421006679535,-0.9474291205406189,-0.5642424821853638
1772697815037581600,4.20858154296875,-0.13687056303024292,-0.9979580640792847,-0.5762848854064941
1772697815047630300,4.21863037109375,-0.10813824832439423,-1.0234520435333252,-0.5945051908493042
1772697815057678300,4.22867822265625,-0.09467548877000809,-1.0253263711929321,-0.6223635673522949
1772697815067727400,4.238727294921875,-0.09212231636047363,-1.0120561122894287,-0.6506434082984924
1772697815077776400,4.2487763671875,-0.0852232500910759,-0.9800568222999573,-0.6670441627502441
1772697815087824400,4.258824462890625,-0.06447722017765045,-0.9558241367340088,-0.6954494118690491
1772697815097873200,4.268873046875,-0.052786365151405334,-0.942409098148346,-0.7176432013511658
1772697815107921400,4.27892138671875,-0.053634580224752426,-0.9112290740013123,-0.7102643847465515
1772697815117970200,4.28897021484375,-0.059488050639629364,-0.8712190985679626,-0.6878371238708496
1772697815128019500,4.29901953125,-0.06209608167409897,-0.8145310282707214,-0.6586281061172485
1772697815138067200,4.309067138671875,-0.06341142952442169,-0.7335506081581116,-0.6322845816612244
1772697815148116200,4.3191162109375,-0.06598350405693054,-0.6385015845298767,-0.6174249649047852
1772697815158164200,4.329164306640625,-0.07378657162189484,-0.5245625376701355,-0.6107944846153259
1772697815168213200,4.339213134765625,-0.08046231418848038,-0.4044768810272217,-0.6179003119468689
1772697815178262300,4.34926220703125,-0.08623193949460983,-0.3271474838256836,-0.6227236390113831
1772697815188310300,4.359310302734375,-0.08020973205566406,-0.24339479207992554,-0.6262224912643433
1772697815198359300,4.369359375,-0.0667155534029007,-0.23231284320354462,-0.6299054026603699
1772697815208407300,4.3794072265625,-0.049562398344278336,-0.23342524468898773,-0.6262888312339783
1772697815218456300,4.389456298828125,-0.017854228615760803,-0.22668634355068207,-0.5990356802940369
1772697815228505300,4.39950537109375,0.019931498914957047,-0.2101081758737564,-0.5695773959159851
1772697815238553300,4.40955322265625,0.07553000748157501,-0.16860443353652954,-0.5368620157241821
1772697815248602400,4.419602294921875,0.11889425665140152,-0.10860661417245865,-0.5061421394348145
1772697815258651100,4.429651123046875,0.14700530469417572,-0.04857362061738968,-0.4829603433609009
1772697815268699400,4.439699462890625,0.16301329433918,0.021080024540424347,-0.4558466970920563
1772697815278748200,4.449748046875,0.182932049036026,0.08668003976345062,-0.43211960792541504
1772697815288796400,4.45979638671875,0.20807307958602905,0.13765960931777954,-0.40863052010536194
1772697815298845200,4.46984521484375,0.23427288234233856,0.16268400847911835,-0.3836158215999603
1772697815308894500,4.47989453125,0.25621679425239563,0.17159946262836456,-0.3822008967399597
1772697815318942200,4.489942138671875,0.27831220626831055,0.18330805003643036,-0.37382689118385315
1772697815328991500,4.499991455078125,0.2816978693008423,0.20401838421821594,-0.37868767976760864
1772697815339039200,4.510039306640625,0.27281543612480164,0.22551329433918,-0.37906330823898315
1772697815349088500,4.520088623046875,0.2700633108615875,0.23234564065933228,-0.3696269392967224
1772697815359137300,4.53013720703125,0.2624412477016449,0.20119036734104156,-0.3311947286128998
1772697815369185300,4.540185302734375,0.2508698105812073,0.1697232574224472,-0.27741459012031555
1772697815379234300,4.550234375,0.23661381006240845,0.15965145826339722,-0.20033469796180725
1772697815389282300,4.5602822265625,0.22596275806427002,0.14096379280090332,-0.1204712837934494
1772697815399331300,4.570331298828125,0.22436252236366272,0.09593398869037628,-0.06101277470588684
1772697815409380400,4.58038037109375,0.21736213564872742,0.02137906104326248,-0.02218654751777649
1772697815419428400,4.590428466796875,0.22345566749572754,-0.07024326175451279,-0.02455780655145645
1772697815429477000,4.60047705078125,0.2471761703491211,-0.15741756558418274,-0.06381892412900925
1772697815439526400,4.6105263671875,0.29429829120635986,-0.23295333981513977,-0.14170601963996887
1772697815449574100,4.62057421875,0.3514111042022705,-0.29882797598838806,-0.23682454228401184
1772697815459623400,4.63062353515625,0.4014526307582855,-0.3404848575592041,-0.341006875038147
1772697815469671200,4.640671142578125,0.41647738218307495,-0.3662930428981781,-0.46052688360214233
1772697815479720400,4.650720458984375,0.34641483426094055,-0.4473341107368469,-0.6095460653305054
1772697815489769200,4.660769287109375,0.2658661901950836,-0.5474880933761597,-0.7186241149902344
1772697815499817500,4.6708173828125,0.265159547328949,-0.535207211971283,-0.6900694966316223
1772697815509866200,4.6808662109375,0.313164621591568,-0.5166247487068176,-0.5305560231208801
1772697815519914500,4.69091455078125,0.3525426983833313,-0.52728271484375,-0.2996063828468323
1772697815529963300,4.70096337890625,0.30649957060813904,-0.5116643309593201,-0.07805614173412323
1772697815540012300,4.71101220703125,0.19530285894870758,-0.5006124973297119,0.06204818934202194
1772697815550060300,4.721060302734375,0.10282112658023834,-0.44047802686691284,0.10536158084869385
1772697815560109300,4.731109375,0.0919867530465126,-0.31407004594802856,0.10032590478658676
1772697815570157300,4.7411572265625,0.15119494497776031,-0.19437506794929504,0.09851069748401642
1772697815580206300,4.751206298828125,0.12061918526887894,-0.020207513123750687,0.12030871212482452
1772697815590255400,4.76125537109375,0.024682803079485893,0.1680646538734436,0.06216578558087349
1772697815600303400,4.771303466796875,-0.013730417005717754,0.27636635303497314,-0.08167008310556412
1772697815610352400,4.781352294921875,0.03754901885986328,0.3207109272480011,-0.2380911260843277
1772697815620401400,4.7914013671875,0.1512683928012848,0.33525335788726807,-0.3180893361568451
1772697815630449400,4.801449462890625,0.24117085337638855,0.352628618478775,-0.28618118166923523
1772697815640498400,4.81149853515625,0.27910149097442627,0.35277003049850464,-0.1461203545331955
1772697815650546400,4.82154638671875,0.3144877254962921,0.27527177333831787,0.044377949088811874
1772697815660595500,4.831595458984375,0.3320835828781128,0.1562306433916092,0.2389083355665207
1772697815670644200,4.841644287109375,0.30702725052833557,0.07022838294506073,0.3753383457660675
1772697815680692500,4.8516923828125,0.2502365708351135,0.06611456722021103,0.42116492986679077
1772697815690741200,4.8617412109375,0.18754123151302338,0.10544226318597794,0.34564700722694397
1772697815700789200,4.871789306640625,0.1408093124628067,0.16674956679344177,0.19650916755199432
1772697815710838300,4.88183837890625,0.11646775156259537,0.22490821778774261,0.042686834931373596
1772697815720887300,4.89188720703125,0.10595710575580597,0.2525781989097595,-0.10542601346969604
1772697815730935300,4.901935302734375,0.10557068139314651,0.2227097898721695,-0.22957167029380798
1772697815740984300,4.911984375,0.10714087635278702,0.13485103845596313,-0.30127090215682983
1772697815751032300,4.9220322265625,0.11897862702608109,0.07685138285160065,-0.3198206126689911
1772697815761081300,4.932081298828125,0.13748537003993988,0.03991998732089996,-0.30361250042915344
1772697815771130400,4.94213037109375,0.14825040102005005,0.022285332903265953,-0.2787335216999054
1772697815781178000,4.95217822265625,0.1496373414993286,-0.029717106372117996,-0.2576770484447479
1772697815791227400,4.962227294921875,0.1574217677116394,-0.09602688997983932,-0.24400115013122559
1772697815801276200,4.972276123046875,0.17574748396873474,-0.10987510532140732,-0.22778180241584778
1772697815811324400,4.982324462890625,0.1969827264547348,-0.010318949818611145,-0.15698271989822388
1772697815821373200,4.992373291015625,0.20422129333019257,0.06734362244606018,-0.08051776140928268
1772697815831421400,5.00242138671875,0.2138744592666626,0.056555163115262985,-0.012210080400109291
1772697815841470200,5.01247021484375,0.2200292944908142,0.026879554614424706,0.0760396271944046
1772697815851519200,5.022519287109375,0.22356997430324554,0.023213990032672882,0.19862481951713562
1772697815861567200,5.032567138671875,0.2075466811656952,0.045489199459552765,0.31744998693466187
1772697815871616300,5.0426162109375,0.16082897782325745,0.12744958698749542,0.40265384316444397
1772697815881664300,5.052664306640625,0.10741336643695831,0.24053992331027985,0.45934760570526123
1772697815891713300,5.06271337890625,0.06362035870552063,0.3546731472015381,0.4883475601673126
1772697815901762300,5.07276220703125,0.027938896790146828,0.4308648407459259,0.4903658330440521
1772697815911810300,5.082810302734375,0.0008122039726004004,0.4540681838989258,0.4838291108608246
1772697815921859300,5.092859375,0.008335420861840248,0.46275246143341064,0.44789278507232666
1772697815931906300,5.10290625,0.01623355783522129,0.44559693336486816,0.3848525881767273
1772697815941955300,5.112955322265625,0.01635345257818699,0.40407344698905945,0.31558898091316223
1772697815952004000,5.123004150390625,0.01774628646671772,0.35595837235450745,0.27198636531829834
1772697815962052400,5.13305224609375,0.023951612412929535,0.30761560797691345,0.24471372365951538
1772697815972101000,5.14310107421875,0.030987150967121124,0.2695814073085785,0.22200068831443787
1772697815982150400,5.153150390625,0.03800202161073685,0.2210218757390976,0.17558248341083527
1772697815992198100,5.1631982421875,0.04734465479850769,0.17129534482955933,0.0995151475071907
1772697816002247400,5.173247314453125,0.0537603534758091,0.1271151304244995,0.01992598921060562
1772697816012295200,5.183295166015625,0.06412804126739502,0.1145293116569519,-0.0469350665807724
1772697816022344400,5.193344482421875,0.059013403952121735,0.1334208995103836,-0.09293651580810547
1772697816032393200,5.203393310546875,0.053660452365875244,0.15008030831813812,-0.11197438836097717
1772697816042441200,5.213441162109375,0.03346319869160652,0.15188807249069214,-0.10809428244829178
1772697816052490200,5.223490234375,0.0027838493697345257,0.1702319234609604,-0.06717108190059662
1772697816062538200,5.233538330078125,-0.01206444576382637,0.200071319937706,-0.008555029518902302
1772697816072587300,5.243587158203125,-0.04264792054891586,0.22120589017868042,0.03499431163072586
1772697816082636300,5.25363623046875,-0.06768281012773514,0.24747398495674133,0.07036059349775314
1772697816092684300,5.263684326171875,-0.07465443760156631,0.27023977041244507,0.10835804790258408
1772697816102733000,5.273733154296875,-0.07869023829698563,0.2707819640636444,0.14738211035728455
1772697816112781300,5.28378125,-0.07776559144258499,0.27137771248817444,0.18635161221027374
1772697816122830000,5.293830078125,-0.09171683341264725,0.2780359089374542,0.2216832935810089
1772697816132879400,5.30387939453125,-0.10682281851768494,0.2960119843482971,0.2513812482357025
1772697816142927000,5.313927001953125,-0.1261080950498581,0.31467941403388977,0.27652308344841003
1772697816152976400,5.323976318359375,-0.14540748298168182,0.34204205870628357,0.3018558919429779
1772697816163024100,5.334024169921875,-0.15994524955749512,0.3641398847103119,0.33609890937805176
1772697816173073400,5.344073486328125,-0.17026446759700775,0.38688167929649353,0.3809662461280823
1772697816183122200,5.3541220703125,-0.19095425307750702,0.37284255027770996,0.42291074991226196
1772697816193170400,5.36417041015625,-0.20873858034610748,0.3551594316959381,0.4664113521575928
1772697816203219200,5.37421923828125,-0.23329445719718933,0.32131704688072205,0.4945726692676544
1772697816213267200,5.38426708984375,-0.25741899013519287,0.2607170641422272,0.5007871389389038
1772697816223316200,5.394316162109375,-0.29483383893966675,0.21469685435295105,0.5035088062286377
1772697816233365200,5.404365234375,-0.33558204770088196,0.20903711020946503,0.5293079018592834
1772697816243413200,5.414413330078125,-0.3608166575431824,0.21143236756324768,0.5535642504692078
1772697816253462300,5.424462158203125,-0.38019436597824097,0.24256180226802826,0.5761910080909729
1772697816263510300,5.43451025390625,-0.3908540904521942,0.3080289363861084,0.5972921252250671
1772697816273559300,5.444559326171875,-0.41964635252952576,0.32127872109413147,0.569347620010376
1772697816283608300,5.4546083984375,-0.4286292791366577,0.26580479741096497,0.5187556147575378
1772697816293656300,5.46465625,-0.41396138072013855,0.17215658724308014,0.4878121316432953
1772697816303705000,5.474705078125,-0.3808113932609558,0.11217794567346573,0.5079411268234253
1772697816313754400,5.48475439453125,-0.35721391439437866,0.05723639950156212,0.5544489622116089
1772697816323802000,5.494802001953125,-0.34798339009284973,-0.004845626186579466,0.5858039259910583
1772697816333851400,5.504851318359375,-0.3571782112121582,-0.03430365025997162,0.5880811810493469
1772697816343899100,5.514899169921875,-0.3776433765888214,-0.022207029163837433,0.5781015753746033
1772697816353948400,5.524948486328125,-0.4066134989261627,0.04939898103475571,0.5589406490325928
1772697816363997200,5.5349970703125,-0.41109126806259155,0.10904503613710403,0.5123289823532104
1772697816374045200,5.545045166015625,-0.40591782331466675,0.12215710431337357,0.45157191157341003
1772697816384094200,5.55509423828125,-0.38300785422325134,0.09776090830564499,0.3772079348564148
1772697816394142200,5.56514208984375,-0.3288300931453705,0.12616485357284546,0.34778720140457153
1772697816404191200,5.575191162109375,-0.19598963856697083,0.2337009161710739,0.3740047514438629
1772697816414240300,5.585240234375,-0.06586574018001556,0.4512425661087036,0.4066913425922394
1772697816424288300,5.595288330078125,0.02033679559826851,0.67050701379776,0.3698723316192627
1772697816434337000,5.6053369140625,0.07141037285327911,0.8472391963005066,0.3070089519023895
1772697816444386300,5.61538623046875,0.10967978090047836,0.9203360080718994,0.2633177638053894
1772697816454434000,5.62543408203125,0.10699371248483658,0.9691405296325684,0.25784045457839966
1772697816464483300,5.6354833984375,0.10089369118213654,1.024215817451477,0.22647053003311157
1772697816474531000,5.645531005859375,0.09039977192878723,1.085170030593872,0.13895292580127716
1772697816484580400,5.655580322265625,0.09611070901155472,1.1166067123413086,0.0129590705037117
1772697816494629000,5.665629150390625,0.08393872529268265,1.0354244709014893,-0.07075100392103195
1772697816504677400,5.675677490234375,0.04976104944944382,0.8246584534645081,-0.06345474720001221
1772697816514726100,5.68572607421875,-0.006594635080546141,0.49174419045448303,0.03672991320490837
1772697816524774400,5.6957744140625,-0.05428300425410271,0.09657873213291168,0.20900483429431915
1772697816534823200,5.7058232421875,-0.09948323667049408,-0.281573086977005,0.3626042604446411
1772697816544872200,5.7158720703125,-0.13449081778526306,-0.5989713072776794,0.4490050673484802
1772697816554920200,5.725920166015625,-0.13796651363372803,-0.8394308090209961,0.47513654828071594
1772697816564969200,5.73596923828125,-0.11676662415266037,-0.8967134952545166,0.46197307109832764
1772697816575018200,5.746018310546875,-0.10711506754159927,-0.780566394329071,0.39842766523361206
1772697816585066200,5.756066162109375,-0.1123611181974411,-0.5332183837890625,0.3101791441440582
1772697816595115300,5.766115234375,-0.10738393664360046,-0.15310460329055786,0.24033799767494202
1772697816605163300,5.776163330078125,-0.09518714249134064,0.20283249020576477,0.19006898999214172
1772697816615212300,5.78621240234375,-0.07743716239929199,0.38030022382736206,0.16752400994300842
1772697816625261300,5.79626123046875,-0.06826423108577728,0.4185146987438202,0.17113097012043
1772697816635309300,5.806309326171875,-0.05928857624530792,0.41013452410697937,0.16646750271320343
1772697816645358300,5.8163583984375,-0.05321871116757393,0.3866974115371704,0.11915798485279083
1772697816655406300,5.82640625,-0.05344827473163605,0.35792088508605957,0.028339933604002
1772697816665455400,5.836455322265625,-0.06283005326986313,0.3351151645183563,-0.07246539741754532
1772697816675504000,5.846504150390625,-0.06864426285028458,0.3174770474433899,-0.16390663385391235
1772697816685552400,5.856552490234375,-0.06827110052108765,0.28994020819664,-0.22722198069095612
1772697816695601200,5.86660107421875,-0.09405769407749176,0.24730968475341797,-0.24851661920547485
1772697816705650400,5.876650390625,-0.11215349286794662,0.17190943658351898,-0.2502197325229645
1772697816715698200,5.8866982421875,-0.1212678924202919,0.062250055372714996,-0.2704315185546875
1772697816725747500,5.89674755859375,-0.12500852346420288,-0.0641145259141922,-0.2984640300273895
1772697816735795200,5.906795166015625,-0.11585471034049988,-0.1694129854440689,-0.30662769079208374
1772697816745844200,5.91684423828125,-0.10596489906311035,-0.231812983751297,-0.2893243730068207
1772697816755893200,5.926893310546875,-0.11009971797466278,-0.24144616723060608,-0.2526792585849762
1772697816765941200,5.936941162109375,-0.10813914984464645,-0.2111726999282837,-0.22228053212165833
1772697816775990300,5.946990234375,-0.11144013702869415,-0.14334331452846527,-0.17852026224136353
1772697816786038300,5.957038330078125,-0.11935526877641678,-0.08096808195114136,-0.11860747635364532
1772697816796087300,5.96708740234375,-0.12598149478435516,0.014726756140589714,-0.04103891924023628
1772697816806136000,5.977135986328125,-0.13079211115837097,0.08513672649860382,0.014883545227348804
1772697816816184300,5.987184326171875,-0.1208779588341713,0.14789411425590515,0.05705949664115906
1772697816826233000,5.997233154296875,-0.09322486817836761,0.1942022442817688,0.08794474601745605
1772697816836281300,6.00728125,-0.09275747835636139,0.22893811762332916,0.08554017543792725
1772697816846330000,6.017330078125,-0.11204973608255386,0.2879151403903961,0.07292650640010834
1772697816856379400,6.02737939453125,-0.1019398421049118,0.3217162489891052,0.12081386893987656
1772697816866427100,6.03742724609375,-0.05338408052921295,-0.4350888729095459,0.8083159327507019
1772697816876476200,6.04747607421875,-0.12438661605119705,-1.133594036102295,0.8795323371887207
1772697816886525200,6.057525146484375,-0.13925158977508545,-1.911942720413208,0.6014576554298401
1772697816896573200,6.0675732421875,-0.06776222586631775,-2.136781692504883,0.23717588186264038
1772697816906622200,6.077622314453125,-0.012318670749664307,-1.743647813796997,-0.01068863458931446
1772697816916670200,6.087670166015625,0.011924084275960922,-1.0047651529312134,-0.22728006541728973
1772697816926719200,6.09771923828125,0.0025014469865709543,-0.21921490132808685,-0.33998915553092957
1772697816936768800,6.107768798828125,-0.0391240268945694,0.2496820092201233,-0.2809348702430725
1772697816946817000,6.117817138671875,-0.05802316963672638,0.41520339250564575,-0.19277270138263702
1772697816956865800,6.12786572265625,-0.05538051202893257,0.5711618661880493,-0.18494221568107605
1772697816966914000,6.1379140625,-0.03507096320390701,0.7626502513885498,-0.2141171395778656
1772697816976962800,6.147962890625,-0.025211406871676445,0.8661590218544006,-0.23563919961452484
1772697816987011800,6.15801171875,-0.028853069990873337,0.788786768913269,-0.20573784410953522
1772697816997059800,6.168059814453125,-0.03457433730363846,0.5622108578681946,-0.17051461338996887
