time,seconds_elapsed,z,y,x
1772702702229879800,0.0608798828125,-0.23236083984375,0.463348388671875,0.8502197265625
1772702702239929900,0.070929931640625,-0.2417449951171875,0.4639892578125,0.8488311767578125
1772702702249979600,0.080979736328125,-0.2522125244140625,0.4646148681640625,0.845458984375
1772702702260029700,0.09102978515625,-0.254547119140625,0.4645538330078125,0.8493194580078125
1772702702270079700,0.101079833984375,-0.24676513671875,0.464141845703125,0.85205078125
1772702702280129800,0.1111298828125,-0.2460174560546875,0.4706268310546875,0.85137939453125
1772702702290179800,0.121179931640625,-0.251007080078125,0.469268798828125,0.850341796875
1772702702300230000,0.13122998046875,-0.2519683837890625,0.4686431884765625,0.8480377197265625
1772702702310280000,0.141280029296875,-0.24676513671875,0.470062255859375,0.8466033935546875
1772702702320330000,0.151330078125,-0.244232177734375,0.46905517578125,0.8460540771484375
1772702702330379800,0.1613798828125,-0.2452545166015625,0.4669952392578125,0.847015380859375
1772702702340429800,0.171429931640625,-0.2485809326171875,0.46624755859375,0.8494720458984375
1772702702350480000,0.18147998046875,-0.2488250732421875,0.466094970703125,0.8515625
1772702702360530000,0.191530029296875,-0.24615478515625,0.46502685546875,0.8517608642578125
1772702702370579700,0.201579833984375,-0.2466888427734375,0.4659576416015625,0.8498992919921875
1772702702380629800,0.211629638671875,-0.2462615966796875,0.466400146484375,0.852294921875
1772702702390679800,0.2216796875,-0.2465057373046875,0.465972900390625,0.8477020263671875
1772702702400728800,0.231728759765625,-0.2471923828125,0.4675445556640625,0.847412109375
1772702702410779000,0.24177880859375,-0.249664306640625,0.4682159423828125,0.84674072265625
1772702702420829000,0.251828857421875,-0.2525177001953125,0.4650115966796875,0.846710205078125
1772702702430879000,0.26187890625,-0.2512664794921875,0.465728759765625,0.850067138671875
1772702702440929000,0.271928955078125,-0.2476348876953125,0.4657440185546875,0.8550262451171875
1772702702450978800,0.281978759765625,-0.246978759765625,0.46685791015625,0.8545379638671875
1772702702461028900,0.29202880859375,-0.243408203125,0.467498779296875,0.853485107421875
1772702702471079000,0.302078857421875,-0.2433013916015625,0.4680023193359375,0.852874755859375
1772702702481129000,0.31212890625,-0.24725341796875,0.467864990234375,0.8514862060546875
1772702702491178800,0.3221787109375,-0.25201416015625,0.466949462890625,0.8512115478515625
1772702702501228800,0.332228759765625,-0.2547607421875,0.4681854248046875,0.850372314453125
1772702702511278800,0.34227880859375,-0.2556304931640625,0.4657440185546875,0.8470001220703125
1772702702521329000,0.352328857421875,-0.25140380859375,0.464569091796875,0.84417724609375
1772702702531378700,0.362378662109375,-0.2465362548828125,0.4645233154296875,0.8456268310546875
1772702702541428700,0.3724287109375,-0.2451934814453125,0.464019775390625,0.8476409912109375
1772702702551478800,0.382478759765625,-0.247772216796875,0.4635009765625,0.850982666015625
1772702702561528800,0.39252880859375,-0.25006103515625,0.462493896484375,0.8531494140625
1772702702571578600,0.40257861328125,-0.2497406005859375,0.462249755859375,0.8558197021484375
1772702702581628000,0.4126279296875,-0.2511138916015625,0.46417236328125,0.8552093505859375
1772702702591678000,0.422677978515625,-0.2504119873046875,0.4647369384765625,0.8556976318359375
1772702702601727700,0.432727783203125,-0.2511138916015625,0.46746826171875,0.8552703857421875
1772702702611777800,0.44277783203125,-0.25115966796875,0.4682464599609375,0.8517303466796875
1772702702621827800,0.452827880859375,-0.24993896484375,0.46893310546875,0.8483734130859375
1772702702631878000,0.4628779296875,-0.25152587890625,0.467041015625,0.848419189453125
1772702702641927700,0.472927734375,-0.24920654296875,0.466796875,0.8484954833984375
1772702702651977700,0.482977783203125,-0.2465057373046875,0.4642791748046875,0.85028076171875
1772702702662027800,0.49302783203125,-0.2459716796875,0.4648284912109375,0.8510284423828125
1772702702672077800,0.503077880859375,-0.2498016357421875,0.46337890625,0.849639892578125
1772702702682127600,0.513127685546875,-0.2504730224609375,0.46240234375,0.8490753173828125
1772702702692177700,0.523177734375,-0.24737548828125,0.4658355712890625,0.850860595703125
1772702702702227700,0.533227783203125,-0.248931884765625,0.4673309326171875,0.8493804931640625
1772702702712278000,0.543278076171875,-0.2494964599609375,0.466339111328125,0.8492431640625
1772702702722328000,0.553328125,-0.2492218017578125,0.4666290283203125,0.8527984619140625
1772702702732377900,0.5633779296875,-0.24688720703125,0.46759033203125,0.8530426025390625
1772702702742428000,0.573427978515625,-0.24688720703125,0.4665374755859375,0.8501739501953125
1772702702752478000,0.58347802734375,-0.246795654296875,0.4644775390625,0.849761962890625
1772702702762528000,0.593528076171875,-0.2473297119140625,0.464569091796875,0.8511199951171875
1772702702772576800,0.60357666015625,-0.247161865234375,0.4644012451171875,0.851837158203125
1772702702782626800,0.613626708984375,-0.2494354248046875,0.4629974365234375,0.8525390625
1772702702792676900,0.6236767578125,-0.2483673095703125,0.4647674560546875,0.8521575927734375
1772702702802726700,0.6337265625,-0.2458953857421875,0.465057373046875,0.85296630859375
1772702702812776700,0.643776611328125,-0.245025634765625,0.46783447265625,0.852996826171875
1772702702822826800,0.65382666015625,-0.243438720703125,0.4684295654296875,0.8488616943359375
1772702702832876800,0.663876708984375,-0.24603271484375,0.4681243896484375,0.8497314453125
1772702702842926800,0.6739267578125,-0.248504638671875,0.4685516357421875,0.8514404296875
1772702702852977000,0.683976806640625,-0.2482757568359375,0.467498779296875,0.8496246337890625
1772702702863027000,0.69402685546875,-0.247161865234375,0.4668426513671875,0.8494415283203125
1772702702873077000,0.704076904296875,-0.2468719482421875,0.46734619140625,0.85009765625
1772702702883126800,0.714126708984375,-0.2460479736328125,0.4664154052734375,0.8474578857421875
1772702702893176800,0.7241767578125,-0.2457275390625,0.464385986328125,0.8484649658203125
1772702702903227000,0.734226806640625,-0.243377685546875,0.4628448486328125,0.8502349853515625
1772702702913277700,0.744277587890625,-0.243865966796875,0.463897705078125,0.8518524169921875
1772702702923327700,0.75432763671875,-0.2449951171875,0.466827392578125,0.8515625
1772702702933377500,0.76437744140625,-0.2473602294921875,0.4676666259765625,0.84954833984375
1772702702943427600,0.774427490234375,-0.2485504150390625,0.4656829833984375,0.8509063720703125
1772702702953477600,0.7844775390625,-0.24395751953125,0.467376708984375,0.85333251953125
1772702702963526400,0.7945263671875,-0.2443695068359375,0.46722412109375,0.85028076171875
1772702702973576400,0.804576416015625,-0.2464752197265625,0.467132568359375,0.8494873046875
1772702702983626500,0.81462646484375,-0.247589111328125,0.4668121337890625,0.849822998046875
1772702702993676500,0.824676513671875,-0.2469329833984375,0.465911865234375,0.8522796630859375
1772702703003726600,0.8347265625,-0.2449951171875,0.4644622802734375,0.8531036376953125
1772702703013776600,0.844776611328125,-0.244354248046875,0.4647979736328125,0.850616455078125
1772702703023826700,0.85482666015625,-0.2459869384765625,0.4660491943359375,0.850555419921875
1772702703033876700,0.864876708984375,-0.245391845703125,0.4680633544921875,0.851043701171875
1772702703043926500,0.874926513671875,-0.2440032958984375,0.46734619140625,0.8513946533203125
1772702703053976600,0.8849765625,-0.244537353515625,0.467041015625,0.850982666015625
1772702703064026600,0.895026611328125,-0.2452850341796875,0.4667510986328125,0.8495635986328125
1772702703074076700,0.90507666015625,-0.2457733154296875,0.4681243896484375,0.848602294921875
1772702703084126500,0.91512646484375,-0.249114990234375,0.4640655517578125,0.848419189453125
1772702703094176500,0.925176513671875,-0.249664306640625,0.4647369384765625,0.848907470703125
1772702703104226600,0.9352265625,-0.2482757568359375,0.4673614501953125,0.8525238037109375
1772702703114276600,0.945276611328125,-0.245849609375,0.4656982421875,0.852783203125
1772702703124326400,0.955326416015625,-0.2452545166015625,0.4659271240234375,0.8521270751953125
1772702703134376400,0.96537646484375,-0.244842529296875,0.466552734375,0.853515625
1772702703144426500,0.975426513671875,-0.2447967529296875,0.466705322265625,0.852264404296875
1772702703154475800,0.985475830078125,-0.2461090087890625,0.46722412109375,0.84906005859375
1772702703164525600,0.995525634765625,-0.2479705810546875,0.46649169921875,0.852294921875
1772702703174575600,1.00557568359375,-0.24822998046875,0.466827392578125,0.85284423828125
1772702703184625700,1.015625732421875,-0.24896240234375,0.4676513671875,0.848541259765625
1772702703194675700,1.02567578125,-0.2461700439453125,0.468414306640625,0.8465118408203125
1772702703204725500,1.0357255859375,-0.246856689453125,0.4659271240234375,0.849822998046875
1772702703214775600,1.045775634765625,-0.2472381591796875,0.46502685546875,0.8489227294921875
1772702703224825600,1.05582568359375,-0.246978759765625,0.4649200439453125,0.8509368896484375
1772702703234875600,1.065875732421875,-0.248992919921875,0.464141845703125,0.8517608642578125
1772702703244925400,1.075925537109375,-0.2501983642578125,0.4630584716796875,0.8530426025390625
1772702703254975500,1.0859755859375,-0.248809814453125,0.4652557373046875,0.8532867431640625
1772702703265025500,1.096025634765625,-0.247589111328125,0.4653167724609375,0.8529510498046875
1772702703275075600,1.10607568359375,-0.2500457763671875,0.4662322998046875,0.85443115234375
1772702703285125400,1.11612548828125,-0.246246337890625,0.46905517578125,0.853759765625
1772702703295175700,1.12617578125,-0.246551513671875,0.4676971435546875,0.8532867431640625
1772702703305225700,1.136225830078125,-0.2471466064453125,0.46783447265625,0.84979248046875
1772702703315275800,1.14627587890625,-0.247406005859375,0.4680938720703125,0.848480224609375
1772702703325325600,1.15632568359375,-0.247406005859375,0.466400146484375,0.849945068359375
1772702703335375600,1.166375732421875,-0.2454071044921875,0.4653472900390625,0.8520965576171875
1772702703345424600,1.176424560546875,-0.248016357421875,0.4654998779296875,0.8509063720703125
1772702703355474400,1.186474365234375,-0.2488555908203125,0.465240478515625,0.8487701416015625
1772702703365524500,1.1965244140625,-0.2497100830078125,0.46533203125,0.8503875732421875
1772702703375574500,1.206574462890625,-0.2470855712890625,0.4669036865234375,0.8519439697265625
1772702703385624600,1.21662451171875,-0.2458343505859375,0.467926025390625,0.851287841796875
1772702703395674400,1.22667431640625,-0.2456207275390625,0.4677734375,0.8502044677734375
1772702703405724400,1.236724365234375,-0.24560546875,0.4680938720703125,0.8503570556640625
1772702703415774500,1.2467744140625,-0.246429443359375,0.46832275390625,0.8510894775390625
1772702703425824800,1.25682470703125,-0.2475433349609375,0.468170166015625,0.8490753173828125
1772702703435874600,1.26687451171875,-0.2493743896484375,0.466705322265625,0.8488006591796875
1772702703445924600,1.276924560546875,-0.247955322265625,0.4671173095703125,0.8480987548828125
1772702703455974700,1.286974609375,-0.248931884765625,0.467620849609375,0.8489990234375
1772702703466024700,1.297024658203125,-0.2456512451171875,0.467071533203125,0.8506011962890625
1772702703476074800,1.30707470703125,-0.2458953857421875,0.4667816162109375,0.8499298095703125
1772702703486124500,1.31712451171875,-0.2470855712890625,0.46728515625,0.8481292724609375
1772702703496174600,1.327174560546875,-0.247406005859375,0.466156005859375,0.849853515625
1772702703506224600,1.337224609375,-0.2464752197265625,0.4674072265625,0.850555419921875
1772702703516274700,1.347274658203125,-0.247894287109375,0.4664764404296875,0.8528900146484375
1772702703526323500,1.357323486328125,-0.2465667724609375,0.46844482421875,0.8520660400390625
1772702703536373500,1.36737353515625,-0.246337890625,0.467376708984375,0.849853515625
1772702703546423600,1.377423583984375,-0.24462890625,0.4664306640625,0.85113525390625
1772702703556473600,1.3874736328125,-0.2466278076171875,0.4669036865234375,0.8495635986328125
1772702703566523600,1.397523681640625,-0.247222900390625,0.46893310546875,0.848480224609375
1772702703576573700,1.40757373046875,-0.2479400634765625,0.4677581787109375,0.847381591796875
1772702703586623700,1.417623779296875,-0.246246337890625,0.465362548828125,0.848297119140625
1772702703596673500,1.427673583984375,-0.2466888427734375,0.46533203125,0.850494384765625
1772702703606723600,1.4377236328125,-0.246246337890625,0.464630126953125,0.8501434326171875
1772702703616773600,1.447773681640625,-0.2478179931640625,0.465545654296875,0.850250244140625
1772702703626823700,1.45782373046875,-0.248077392578125,0.4664764404296875,0.8502197265625
1772702703636873500,1.46787353515625,-0.247833251953125,0.465789794921875,0.8484039306640625
1772702703646923500,1.477923583984375,-0.248687744140625,0.4660491943359375,0.8487701416015625
1772702703656973600,1.4879736328125,-0.249603271484375,0.467315673828125,0.8495635986328125
1772702703667023600,1.498023681640625,-0.247802734375,0.467742919921875,0.85040283203125
1772702703677073400,1.508073486328125,-0.2468414306640625,0.46539306640625,0.8524169921875
1772702703687123500,1.51812353515625,-0.24639892578125,0.46356201171875,0.8509979248046875
1772702703697173500,1.528173583984375,-0.24456787109375,0.46551513671875,0.850494384765625
1772702703707223600,1.5382236328125,-0.2465362548828125,0.4645233154296875,0.8546295166015625
1772702703717272600,1.5482724609375,-0.248687744140625,0.4647064208984375,0.8536529541015625
1772702703727322600,1.558322509765625,-0.2481842041015625,0.4658203125,0.8550262451171875
1772702703737372700,1.56837255859375,-0.2484130859375,0.466278076171875,0.8521728515625
1772702703747422700,1.578422607421875,-0.2480316162109375,0.465057373046875,0.8497314453125
1772702703757472500,1.588472412109375,-0.248931884765625,0.466461181640625,0.8492584228515625
1772702703767522600,1.5985224609375,-0.2487030029296875,0.466552734375,0.849609375
1772702703777572600,1.608572509765625,-0.251556396484375,0.4667816162109375,0.8499603271484375
1772702703787622700,1.61862255859375,-0.25262451171875,0.46490478515625,0.8516082763671875
1772702703797672400,1.62867236328125,-0.251556396484375,0.4651947021484375,0.85205078125
1772702703807722500,1.638722412109375,-0.2507171630859375,0.4655914306640625,0.8491058349609375
1772702703817772500,1.6487724609375,-0.247344970703125,0.465728759765625,0.850921630859375
1772702703827822600,1.658822509765625,-0.24658203125,0.463958740234375,0.8499603271484375
1772702703837872400,1.668872314453125,-0.2469635009765625,0.466522216796875,0.8499603271484375
1772702703847922700,1.678922607421875,-0.2497711181640625,0.4665069580078125,0.8496246337890625
1772702703857972700,1.68897265625,-0.2494354248046875,0.46527099609375,0.847503662109375
1772702703868022800,1.699022705078125,-0.2512359619140625,0.4652099609375,0.8500823974609375
1772702703878072600,1.709072509765625,-0.2527923583984375,0.4650115966796875,0.8504638671875
1772702703888122600,1.71912255859375,-0.2521209716796875,0.4639434814453125,0.8468170166015625
1772702703898171600,1.729171630859375,-0.250579833984375,0.464080810546875,0.8490447998046875
1772702703908220700,1.739220703125,-0.2481842041015625,0.463104248046875,0.8531646728515625
1772702703918270700,1.749270751953125,-0.24822998046875,0.463470458984375,0.8539276123046875
1772702703928320800,1.75932080078125,-0.2497100830078125,0.4635162353515625,0.8538818359375
1772702703938370800,1.769370849609375,-0.251617431640625,0.4630889892578125,0.853790283203125
1772702703948420900,1.7794208984375,-0.2520904541015625,0.4641876220703125,0.854705810546875
1772702703958471000,1.789470947265625,-0.25146484375,0.466156005859375,0.8539886474609375
1772702703968521000,1.79952099609375,-0.2505035400390625,0.46600341796875,0.851470947265625
1772702703978571000,1.809571044921875,-0.2494659423828125,0.464691162109375,0.85107421875
1772702703988620800,1.819620849609375,-0.247314453125,0.464599609375,0.8515472412109375
1772702703998670800,1.8296708984375,-0.2477569580078125,0.4652862548828125,0.8516998291015625
1772702704008721000,1.839720947265625,-0.2488250732421875,0.4655914306640625,0.8518218994140625
1772702704018771000,1.84977099609375,-0.2470855712890625,0.464019775390625,0.851348876953125
1772702704028820700,1.85982080078125,-0.249053955078125,0.464996337890625,0.8487396240234375
1772702704038870800,1.869870849609375,-0.25103759765625,0.4655303955078125,0.8477630615234375
1772702704048920800,1.8799208984375,-0.252532958984375,0.4666290283203125,0.849945068359375
1772702704058971000,1.889970947265625,-0.25006103515625,0.4664306640625,0.849700927734375
1772702704069020700,1.900020751953125,-0.248779296875,0.46533203125,0.852020263671875
1772702704079070700,1.91007080078125,-0.2482147216796875,0.46673583984375,0.851654052734375
1772702704089120000,1.9201201171875,-0.2471160888671875,0.467926025390625,0.85089111328125
1772702704099169800,1.930169677734375,-0.24627685546875,0.467254638671875,0.84942626953125
1772702704109219800,1.9402197265625,-0.248443603515625,0.4665374755859375,0.8504180908203125
1772702704119270000,1.950269775390625,-0.249176025390625,0.4664154052734375,0.8492279052734375
1772702704129320000,1.96031982421875,-0.2505645751953125,0.4676666259765625,0.848297119140625
1772702704139369700,1.97036962890625,-0.2488861083984375,0.4636688232421875,0.8504638671875
1772702704149419800,1.980419677734375,-0.249359130859375,0.462158203125,0.8528289794921875
1772702704159469800,1.9904697265625,-0.2465362548828125,0.46234130859375,0.8530731201171875
1772702704169519900,2.000519775390625,-0.244354248046875,0.4648895263671875,0.852630615234375
1772702704179569700,2.010569580078125,-0.2448577880859375,0.466949462890625,0.8494873046875
1772702704189619700,2.02061962890625,-0.2480621337890625,0.4671173095703125,0.850433349609375
1772702704199669800,2.030669677734375,-0.24676513671875,0.4675445556640625,0.8506011962890625
1772702704209719800,2.0407197265625,-0.2474212646484375,0.4678955078125,0.850311279296875
1772702704219769600,2.05076953125,-0.248077392578125,0.46826171875,0.84649658203125
1772702704229819600,2.060819580078125,-0.2480926513671875,0.4644317626953125,0.848358154296875
1772702704239870000,2.070869873046875,-0.248138427734375,0.4671630859375,0.8511199951171875
1772702704249920000,2.080919921875,-0.2469024658203125,0.4652557373046875,0.8487548828125
1772702704259969800,2.0909697265625,-0.2479248046875,0.4653778076171875,0.8490753173828125
1772702704270018800,2.101018798828125,-0.2469329833984375,0.464202880859375,0.852630615234375
1772702704280068900,2.11106884765625,-0.245849609375,0.464752197265625,0.8523712158203125
1772702704290119000,2.121118896484375,-0.245635986328125,0.4658966064453125,0.8510589599609375
1772702704300168700,2.131168701171875,-0.2440643310546875,0.4660797119140625,0.847991943359375
1772702704310218800,2.14121875,-0.24835205078125,0.4656829833984375,0.8492889404296875
1772702704320268800,2.151268798828125,-0.250457763671875,0.46533203125,0.8514251708984375
1772702704330318800,2.16131884765625,-0.2502899169921875,0.465362548828125,0.8525848388671875
1772702704340368600,2.17136865234375,-0.2497406005859375,0.463897705078125,0.8515777587890625
1772702704350418700,2.181418701171875,-0.24713134765625,0.4630889892578125,0.8538665771484375
1772702704360469000,2.191468994140625,-0.24603271484375,0.4629974365234375,0.851654052734375
1772702704370519000,2.20151904296875,-0.24578857421875,0.4653472900390625,0.852996826171875
1772702704380568800,2.21156884765625,-0.2468414306640625,0.4651947021484375,0.851470947265625
1772702704390619000,2.221618896484375,-0.2497711181640625,0.466033935546875,0.847564697265625
1772702704400669000,2.2316689453125,-0.2497100830078125,0.4651031494140625,0.8490753173828125
1772702704410719000,2.241718994140625,-0.249481201171875,0.4667816162109375,0.8487396240234375
1772702704420768800,2.251768798828125,-0.246826171875,0.467803955078125,0.851531982421875
1772702704430818800,2.26181884765625,-0.2464447021484375,0.4646453857421875,0.85211181640625
1772702704440868900,2.271868896484375,-0.24774169921875,0.463836669921875,0.85125732421875
1772702704450919000,2.2819189453125,-0.24798583984375,0.46295166015625,0.8506011962890625
1772702704460967700,2.2919677734375,-0.249053955078125,0.4636077880859375,0.849700927734375
1772702704471017700,2.302017822265625,-0.2493896484375,0.46478271484375,0.851043701171875
1772702704481067800,2.31206787109375,-0.2509002685546875,0.4666900634765625,0.8494415283203125
1772702704491117800,2.322117919921875,-0.2518310546875,0.4678497314453125,0.8516387939453125
1772702704501167900,2.33216796875,-0.2530517578125,0.4672088623046875,0.852325439453125
1772702704511218000,2.342218017578125,-0.2483673095703125,0.4666900634765625,0.849945068359375
1772702704521268000,2.35226806640625,-0.24664306640625,0.4647369384765625,0.852020263671875
1772702704531318000,2.362318115234375,-0.24761962890625,0.4664306640625,0.8519287109375
1772702704541367800,2.372367919921875,-0.24725341796875,0.46624755859375,0.8529815673828125
1772702704551417900,2.38241796875,-0.248687744140625,0.4649200439453125,0.8494415283203125
1772702704561468000,2.392468017578125,-0.25250244140625,0.4665679931640625,0.84967041015625
1772702704571518000,2.40251806640625,-0.254302978515625,0.4647369384765625,0.848724365234375
1772702704581567700,2.412567626953125,-0.25433349609375,0.4654693603515625,0.846435546875
1772702704591617800,2.42261767578125,-0.2513885498046875,0.4655303955078125,0.8455810546875
1772702704601667800,2.432667724609375,-0.251312255859375,0.466094970703125,0.8494110107421875
1772702704611718000,2.4427177734375,-0.2505340576171875,0.46502685546875,0.8500518798828125
1772702704621767700,2.452767578125,-0.2520294189453125,0.4636688232421875,0.853118896484375
1772702704631817700,2.462817626953125,-0.250640869140625,0.463623046875,0.8546142578125
1772702704641867000,2.472866943359375,-0.2508392333984375,0.465240478515625,0.853546142578125
1772702704651916800,2.482916748046875,-0.2519073486328125,0.4670562744140625,0.8552093505859375
1772702704661966800,2.492966796875,-0.2516326904296875,0.46722412109375,0.8544921875
1772702704672017000,2.503016845703125,-0.2539215087890625,0.468170166015625,0.8501129150390625
1772702704682067000,2.51306689453125,-0.2541351318359375,0.467254638671875,0.848480224609375
1772702704692116700,2.52311669921875,-0.2519989013671875,0.4692230224609375,0.8497467041015625
1772702704702166800,2.533166748046875,-0.2510986328125,0.4649810791015625,0.850830078125
1772702704712216800,2.543216796875,-0.250213623046875,0.4636688232421875,0.8485870361328125
1772702704722267000,2.553266845703125,-0.251251220703125,0.46380615234375,0.8491668701171875
1772702704732316700,2.563316650390625,-0.2513427734375,0.46368408203125,0.8478851318359375
1772702704742366700,2.57336669921875,-0.2495574951171875,0.467559814453125,0.8487396240234375
1772702704752416800,2.583416748046875,-0.2470245361328125,0.470367431640625,0.8485870361328125
1772702704762466800,2.593466796875,-0.24969482421875,0.468170166015625,0.848663330078125
1772702704772516600,2.6035166015625,-0.25103759765625,0.46759033203125,0.850372314453125
1772702704782567000,2.61356689453125,-0.2512054443359375,0.4684906005859375,0.848358154296875
1772702704792617000,2.623616943359375,-0.2506561279296875,0.470062255859375,0.8493194580078125
1772702704802667000,2.6336669921875,-0.24920654296875,0.46624755859375,0.8505401611328125
1772702704812716800,2.643716796875,-0.24957275390625,0.4661712646484375,0.8506622314453125
1772702704822765800,2.653765869140625,-0.2498321533203125,0.4662017822265625,0.8493194580078125
1772702704832815900,2.66381591796875,-0.24920654296875,0.466064453125,0.8502197265625
1772702704842866000,2.673865966796875,-0.24774169921875,0.465423583984375,0.851654052734375
1772702704852915700,2.683915771484375,-0.2454833984375,0.465179443359375,0.849517822265625
1772702704862965800,2.6939658203125,-0.2479248046875,0.4648895263671875,0.8500823974609375
1772702704873015800,2.704015869140625,-0.2476348876953125,0.465911865234375,0.8505706787109375
1772702704883065900,2.71406591796875,-0.24798583984375,0.4669189453125,0.851043701171875
1772702704893115600,2.72411572265625,-0.2485809326171875,0.4676055908203125,0.85052490234375
1772702704903165700,2.734165771484375,-0.250274658203125,0.46600341796875,0.8505706787109375
1772702704913216000,2.744216064453125,-0.2503204345703125,0.4666900634765625,0.849029541015625
1772702704923266000,2.75426611328125,-0.249359130859375,0.4666748046875,0.8488311767578125
1772702704933316400,2.76431640625,-0.2473907470703125,0.4654541015625,0.84881591796875
1772702704943366400,2.774366455078125,-0.2462310791015625,0.4656524658203125,0.84942626953125
1772702704953416200,2.784416259765625,-0.248046875,0.4629974365234375,0.85052490234375
1772702704963466200,2.79446630859375,-0.2467803955078125,0.4648895263671875,0.8510894775390625
1772702704973516300,2.804516357421875,-0.2451934814453125,0.464447021484375,0.8506011962890625
1772702704983566300,2.81456640625,-0.2474822998046875,0.46539306640625,0.8510284423828125
1772702704993616100,2.8246162109375,-0.2482757568359375,0.466094970703125,0.8492584228515625
1772702705003666200,2.834666259765625,-0.250946044921875,0.465118408203125,0.8489837646484375
1772702705013715200,2.844715087890625,-0.2503814697265625,0.4660797119140625,0.8509063720703125
1772702705023765000,2.854764892578125,-0.248809814453125,0.4657745361328125,0.84869384765625
1772702705033815000,2.86481494140625,-0.2483673095703125,0.4663848876953125,0.849700927734375
1772702705043865000,2.874864990234375,-0.24688720703125,0.463226318359375,0.850921630859375
1772702705053915100,2.8849150390625,-0.247344970703125,0.4644775390625,0.8513031005859375
1772702705063965400,2.89496533203125,-0.2469482421875,0.4630279541015625,0.85223388671875
1772702705074015200,2.90501513671875,-0.245361328125,0.4655914306640625,0.8531494140625
1772702705084065300,2.915065185546875,-0.24615478515625,0.466033935546875,0.8505096435546875
1772702705094115300,2.925115234375,-0.25189208984375,0.46673583984375,0.84881591796875
1772702705104165400,2.935165283203125,-0.2538909912109375,0.46600341796875,0.8494720458984375
1772702705114215200,2.945215087890625,-0.2505645751953125,0.4658660888671875,0.8497772216796875
1772702705124265200,2.95526513671875,-0.24700927734375,0.465728759765625,0.851287841796875
1772702705134315300,2.965315185546875,-0.2440948486328125,0.4629058837890625,0.850433349609375
1772702705144365300,2.975365234375,-0.245361328125,0.463592529296875,0.8491363525390625
1772702705154415000,2.9854150390625,-0.2478790283203125,0.46533203125,0.8492279052734375
1772702705164465200,2.995465087890625,-0.24908447265625,0.4669036865234375,0.84820556640625
1772702705174515200,3.00551513671875,-0.249298095703125,0.467010498046875,0.8500518798828125
1772702705184565200,3.015565185546875,-0.25146484375,0.466888427734375,0.8528594970703125
1772702705194614300,3.0256142578125,-0.2508392333984375,0.4683685302734375,0.855255126953125
1772702705204664300,3.035664306640625,-0.2479705810546875,0.4684600830078125,0.8516845703125
1772702705214714400,3.04571435546875,-0.2481231689453125,0.46661376953125,0.849090576171875
1772702705224764200,3.05576416015625,-0.2467498779296875,0.4642181396484375,0.84930419921875
1772702705234814200,3.065814208984375,-0.2489776611328125,0.4644317626953125,0.85040283203125
1772702705244864300,3.0758642578125,-0.2519683837890625,0.464508056640625,0.8532867431640625
1772702705254914300,3.085914306640625,-0.251617431640625,0.4613494873046875,0.8507232666015625
1772702705264964000,3.095964111328125,-0.248992919921875,0.4632568359375,0.848541259765625
1772702705275014100,3.10601416015625,-0.24822998046875,0.4647979736328125,0.84796142578125
1772702705285064200,3.116064208984375,-0.251007080078125,0.46502685546875,0.846954345703125
1772702705295114200,3.1261142578125,-0.252044677734375,0.4642333984375,0.84759521484375
1772702705305164000,3.1361640625,-0.2537689208984375,0.463653564453125,0.848724365234375
1772702705315214000,3.146214111328125,-0.2523651123046875,0.463043212890625,0.8512115478515625
1772702705325264100,3.15626416015625,-0.2503662109375,0.4642486572265625,0.8518218994140625
1772702705335314200,3.166314208984375,-0.2511444091796875,0.464813232421875,0.85107421875
1772702705345364000,3.176364013671875,-0.2482147216796875,0.466705322265625,0.8558349609375
1772702705355414300,3.186414306640625,-0.2477569580078125,0.4669036865234375,0.8558197021484375
1772702705365464300,3.19646435546875,-0.24951171875,0.467742919921875,0.8525543212890625
1772702705375514400,3.206514404296875,-0.250762939453125,0.4678497314453125,0.8471221923828125
1772702705385563100,3.216563232421875,-0.2522125244140625,0.465362548828125,0.84765625
1772702705395613200,3.22661328125,-0.2548370361328125,0.4668426513671875,0.8501739501953125
1772702705405663200,3.236663330078125,-0.2503509521484375,0.4642486572265625,0.8497467041015625
1772702705415713300,3.24671337890625,-0.2488861083984375,0.4641571044921875,0.8497467041015625
1772702705425763000,3.25676318359375,-0.2460479736328125,0.4628143310546875,0.8488006591796875
1772702705435813000,3.266813232421875,-0.2464447021484375,0.4641876220703125,0.84967041015625
1772702705445863200,3.27686328125,-0.24737548828125,0.46746826171875,0.8502044677734375
1772702705455913200,3.286913330078125,-0.248443603515625,0.4659423828125,0.85211181640625
1772702705465963000,3.296962890625,-0.2504425048828125,0.4652557373046875,0.851837158203125
1772702705476013000,3.307012939453125,-0.2510223388671875,0.46630859375,0.8514251708984375
1772702705486063400,3.3170634765625,-0.2494354248046875,0.468414306640625,0.852203369140625
1772702705496113400,3.327113525390625,-0.2499237060546875,0.466522216796875,0.849639892578125
1772702705506163200,3.3371630859375,-0.2486419677734375,0.46551513671875,0.8509979248046875
1772702705516213200,3.347213134765625,-0.2516632080078125,0.4658203125,0.848785400390625
1772702705526263300,3.35726318359375,-0.250640869140625,0.4640655517578125,0.8485565185546875
1772702705536313300,3.367313232421875,-0.2492828369140625,0.4645233154296875,0.8497772216796875
1772702705546363100,3.377363037109375,-0.249755859375,0.46307373046875,0.852081298828125
1772702705556413200,3.3874130859375,-0.249053955078125,0.463348388671875,0.8523101806640625
1772702705566463200,3.397463134765625,-0.248138427734375,0.4661407470703125,0.852264404296875
1772702705576512000,3.407511962890625,-0.250244140625,0.46533203125,0.85205078125
1772702705586562000,3.41756201171875,-0.252960205078125,0.4652252197265625,0.8507537841796875
1772702705596612000,3.427612060546875,-0.25103759765625,0.4663543701171875,0.851470947265625
1772702705606662400,3.437662353515625,-0.2500152587890625,0.46746826171875,0.8502197265625
1772702705616712200,3.447712158203125,-0.24859619140625,0.4669647216796875,0.84979248046875
1772702705626762200,3.45776220703125,-0.247039794921875,0.4681549072265625,0.8491363525390625
1772702705636812300,3.467812255859375,-0.2480621337890625,0.467987060546875,0.8498687744140625
1772702705646862300,3.4778623046875,-0.2489776611328125,0.465087890625,0.8501129150390625
1772702705656912100,3.487912109375,-0.2492828369140625,0.4657440185546875,0.84979248046875
1772702705666962200,3.497962158203125,-0.24932861328125,0.4641571044921875,0.850799560546875
1772702705677012200,3.50801220703125,-0.25018310546875,0.4658050537109375,0.8502655029296875
1772702705687062300,3.518062255859375,-0.2510528564453125,0.464599609375,0.851898193359375
1772702705697112300,3.5281123046875,-0.2494659423828125,0.464599609375,0.849029541015625
1772702705707162000,3.538162109375,-0.249542236328125,0.4643707275390625,0.85028076171875
1772702705717212200,3.548212158203125,-0.2487335205078125,0.4673614501953125,0.8504791259765625
1772702705727262200,3.55826220703125,-0.2479400634765625,0.466766357421875,0.8518218994140625
1772702705737312300,3.568312255859375,-0.2480316162109375,0.4654998779296875,0.8514862060546875
1772702705747362000,3.578362060546875,-0.2484893798828125,0.4651641845703125,0.850494384765625
1772702705757412000,3.588412109375,-0.24896240234375,0.4648284912109375,0.849151611328125
1772702705767461400,3.59846142578125,-0.2486114501953125,0.46429443359375,0.8516082763671875
1772702705777511200,3.60851123046875,-0.2501678466796875,0.463470458984375,0.8527374267578125
1772702705787561200,3.618561279296875,-0.24713134765625,0.463409423828125,0.853546142578125
1772702705797611300,3.628611328125,-0.2478790283203125,0.463623046875,0.8525543212890625
1772702705807661300,3.638661376953125,-0.248565673828125,0.4645843505859375,0.8513641357421875
1772702705817711000,3.648711181640625,-0.2486724853515625,0.4665069580078125,0.8511199951171875
1772702705827761200,3.65876123046875,-0.24676513671875,0.4669647216796875,0.8473052978515625
1772702705837811200,3.668811279296875,-0.2488861083984375,0.4654998779296875,0.84637451171875
1772702705847861200,3.678861328125,-0.250701904296875,0.46490478515625,0.8478240966796875
1772702705857911000,3.6889111328125,-0.2509918212890625,0.4656982421875,0.85162353515625
1772702705867961000,3.698961181640625,-0.249542236328125,0.4663543701171875,0.8514251708984375
1772702705878011100,3.70901123046875,-0.2459564208984375,0.4669189453125,0.8516082763671875
1772702705888061200,3.719061279296875,-0.2462615966796875,0.4650115966796875,0.8517913818359375
1772702705898111200,3.729111328125,-0.24615478515625,0.4670257568359375,0.8524017333984375
1772702705908160800,3.739160888671875,-0.2462158203125,0.4659576416015625,0.8516693115234375
1772702705918210600,3.74921044921875,-0.24957275390625,0.4665374755859375,0.853515625
1772702705928260600,3.759260498046875,-0.252685546875,0.4657135009765625,0.85198974609375
1772702705938310700,3.769310546875,-0.253570556640625,0.46551513671875,0.849151611328125
1772702705948360700,3.779360595703125,-0.2522125244140625,0.4651336669921875,0.8490753173828125
1772702705958409500,3.789409423828125,-0.2511444091796875,0.4647216796875,0.8481292724609375
1772702705968459500,3.79945947265625,-0.2499542236328125,0.4648895263671875,0.847747802734375
1772702705978509600,3.809509521484375,-0.2473602294921875,0.4647216796875,0.8503875732421875
1772702705988559400,3.819559326171875,-0.246612548828125,0.463714599609375,0.85345458984375
1772702705998609700,3.829609619140625,-0.2488250732421875,0.465087890625,0.8543243408203125
1772702706008659700,3.83965966796875,-0.2496490478515625,0.4654083251953125,0.8543548583984375
1772702706018709800,3.849709716796875,-0.251312255859375,0.464996337890625,0.85406494140625
1772702706028759600,3.859759521484375,-0.249603271484375,0.46673583984375,0.8550567626953125
1772702706038809600,3.8698095703125,-0.248809814453125,0.4672393798828125,0.8516845703125
1772702706048859600,3.879859619140625,-0.2498016357421875,0.4669952392578125,0.8484649658203125
1772702706058909700,3.88990966796875,-0.25091552734375,0.4659881591796875,0.8479461669921875
1772702706068959500,3.89995947265625,-0.250579833984375,0.466400146484375,0.847808837890625
1772702706079009500,3.910009521484375,-0.2483367919921875,0.464599609375,0.84820556640625
1772702706089059600,3.9200595703125,-0.24932861328125,0.462310791015625,0.8491363525390625
1772702706099109600,3.930109619140625,-0.25006103515625,0.4647369384765625,0.8511505126953125
1772702706109159400,3.940159423828125,-0.2521209716796875,0.4645843505859375,0.8478851318359375
1772702706119209500,3.95020947265625,-0.2506256103515625,0.4669647216796875,0.8484344482421875
1772702706129259500,3.960259521484375,-0.250030517578125,0.4678955078125,0.851104736328125
1772702706139309600,3.9703095703125,-0.2493133544921875,0.4669647216796875,0.851776123046875
1772702706149358600,3.980358642578125,-0.2487030029296875,0.4680938720703125,0.8487396240234375
1772702706159408600,3.99040869140625,-0.249603271484375,0.4674530029296875,0.84820556640625
1772702706169458700,4.000458740234375,-0.2523040771484375,0.46661376953125,0.849761962890625
1772702706179508700,4.0105087890625,-0.2515716552734375,0.4680633544921875,0.8491668701171875
1772702706189558500,4.02055859375,-0.2497100830078125,0.467071533203125,0.8489837646484375
1772702706199608600,4.030608642578125,-0.2500762939453125,0.4654083251953125,0.8489532470703125
1772702706209658600,4.04065869140625,-0.2506866455078125,0.46478271484375,0.849334716796875
1772702706219708700,4.050708740234375,-0.25030517578125,0.465240478515625,0.8500823974609375
1772702706229758500,4.060758544921875,-0.249847412109375,0.4664154052734375,0.850341796875
1772702706239808500,4.07080859375,-0.2504730224609375,0.4672088623046875,0.85009765625
1772702706249858600,4.080858642578125,-0.2518310546875,0.465850830078125,0.851409912109375
1772702706259908600,4.09090869140625,-0.2491912841796875,0.46600341796875,0.849822998046875
1772702706269958400,4.10095849609375,-0.249969482421875,0.467864990234375,0.8480224609375
1772702706280008400,4.111008544921875,-0.2506103515625,0.46685791015625,0.84930419921875
1772702706290058500,4.12105859375,-0.2505950927734375,0.4680938720703125,0.8505859375
1772702706300108500,4.131108642578125,-0.249114990234375,0.467803955078125,0.8493194580078125
1772702706310158600,4.14115869140625,-0.249481201171875,0.4653472900390625,0.8504638671875
1772702706320208600,4.151208740234375,-0.2503509521484375,0.4654541015625,0.8494873046875
1772702706330258700,4.1612587890625,-0.25091552734375,0.4658203125,0.8496551513671875
1772702706340307500,4.171307373046875,-0.251251220703125,0.465423583984375,0.8483734130859375
1772702706350357500,4.181357421875,-0.2501068115234375,0.46356201171875,0.8493499755859375
1772702706360407600,4.191407470703125,-0.2479400634765625,0.4657135009765625,0.849578857421875
1772702706370457600,4.20145751953125,-0.2476348876953125,0.46490478515625,0.8499755859375
1772702706380507400,4.21150732421875,-0.246612548828125,0.464752197265625,0.851043701171875
1772702706390557400,4.221557373046875,-0.2486114501953125,0.4649810791015625,0.851654052734375
1772702706400607500,4.231607421875,-0.251861572265625,0.4657440185546875,0.8512420654296875
1772702706410657500,4.241657470703125,-0.2517852783203125,0.4664306640625,0.8490753173828125
1772702706420707600,4.25170751953125,-0.2497406005859375,0.4656219482421875,0.8479461669921875
1772702706430757600,4.261757568359375,-0.25030517578125,0.464599609375,0.8486175537109375
1772702706440807700,4.2718076171875,-0.2482147216796875,0.464385986328125,0.847808837890625
1772702706450857700,4.281857666015625,-0.2484588623046875,0.466583251953125,0.8524627685546875
1772702706460907800,4.29190771484375,-0.2491607666015625,0.465728759765625,0.85430908203125
1772702706470957600,4.30195751953125,-0.247955322265625,0.46435546875,0.854705810546875
1772702706481007600,4.312007568359375,-0.2479095458984375,0.4639739990234375,0.8500823974609375
1772702706491057700,4.3220576171875,-0.2479095458984375,0.463348388671875,0.8481903076171875
1772702706501107700,4.332107666015625,-0.251617431640625,0.464691162109375,0.8495941162109375
1772702706511157500,4.342157470703125,-0.2528228759765625,0.4653472900390625,0.8470611572265625
1772702706521207600,4.35220751953125,-0.251220703125,0.46405029296875,0.84796142578125
1772702706531256600,4.362256591796875,-0.2509307861328125,0.4635162353515625,0.85186767578125
1772702706541306400,4.372306396484375,-0.2491455078125,0.4631195068359375,0.8520660400390625
1772702706551356700,4.382356689453125,-0.246368408203125,0.465301513671875,0.8498382568359375
1772702706561406700,4.39240673828125,-0.246368408203125,0.466949462890625,0.8522491455078125
1772702706571456800,4.402456787109375,-0.24566650390625,0.4678802490234375,0.852508544921875
1772702706581506600,4.412506591796875,-0.2459259033203125,0.4658050537109375,0.8506622314453125
1772702706591556600,4.422556640625,-0.248779296875,0.465576171875,0.8492279052734375
1772702706601606700,4.432606689453125,-0.250152587890625,0.4663543701171875,0.850433349609375
1772702706611656700,4.44265673828125,-0.2507476806640625,0.4665985107421875,0.8506622314453125
1772702706621706500,4.45270654296875,-0.2534027099609375,0.46722412109375,0.8484649658203125
1772702706631756500,4.462756591796875,-0.252716064453125,0.4656219482421875,0.8470611572265625
1772702706641806600,4.472806640625,-0.2525482177734375,0.4631805419921875,0.848663330078125
1772702706651856600,4.482856689453125,-0.2501373291015625,0.46270751953125,0.8476104736328125
1772702706661906400,4.492906494140625,-0.2491455078125,0.463226318359375,0.8500213623046875
1772702706671956500,4.50295654296875,-0.248138427734375,0.4635162353515625,0.8553009033203125
1772702706682006500,4.513006591796875,-0.24981689453125,0.4638214111328125,0.8566131591796875
1772702706692056600,4.523056640625,-0.250518798828125,0.462615966796875,0.8558197021484375
1772702706702106400,4.5331064453125,-0.25030517578125,0.464508056640625,0.8556365966796875
1772702706712156400,4.543156494140625,-0.2510986328125,0.4640960693359375,0.8535003662109375
1772702706722206700,4.553206787109375,-0.25274658203125,0.4674835205078125,0.848785400390625
1772702706732255700,4.563255859375,-0.2515411376953125,0.4665679931640625,0.8479461669921875
1772702706742305500,4.573305419921875,-0.2486419677734375,0.4622039794921875,0.8511199951171875
1772702706752355600,4.58335546875,-0.2491607666015625,0.464080810546875,0.8502655029296875
1772702706762405600,4.593405517578125,-0.248016357421875,0.4633941650390625,0.8493194580078125
1772702706772455700,4.60345556640625,-0.248443603515625,0.463134765625,0.848724365234375
1772702706782505500,4.61350537109375,-0.2501068115234375,0.4651031494140625,0.8488311767578125
1772702706792555500,4.623555419921875,-0.2503509521484375,0.465576171875,0.8497161865234375
1772702706802605600,4.63360546875,-0.251922607421875,0.4635162353515625,0.8514404296875
1772702706812655600,4.643655517578125,-0.248626708984375,0.46380615234375,0.8509979248046875
1772702706822705400,4.653705322265625,-0.2480010986328125,0.4640350341796875,0.8505706787109375
1772702706832755500,4.66375537109375,-0.249664306640625,0.464263916015625,0.8493499755859375
1772702706842805500,4.673805419921875,-0.250732421875,0.4641265869140625,0.8494720458984375
1772702706852855800,4.683855712890625,-0.25177001953125,0.4663238525390625,0.850128173828125
1772702706862905600,4.693905517578125,-0.2506103515625,0.46563720703125,0.850067138671875
1772702706872955600,4.70395556640625,-0.2490386962890625,0.4649658203125,0.847625732421875
1772702706883005700,4.714005615234375,-0.24603271484375,0.462554931640625,0.8495330810546875
1772702706893055700,4.7240556640625,-0.247344970703125,0.46343994140625,0.850311279296875
1772702706903105500,4.73410546875,-0.249114990234375,0.4636077880859375,0.85198974609375
1772702706913156400,4.74415625,-0.2515106201171875,0.46636962890625,0.8509674072265625
1772702706923206100,4.7542060546875,-0.253936767578125,0.467254638671875,0.85308837890625
1772702706933255200,4.764255126953125,-0.2537078857421875,0.46624755859375,0.8530426025390625
1772702706943305200,4.77430517578125,-0.2497711181640625,0.4654083251953125,0.8517303466796875
1772702706953355300,4.784355224609375,-0.2467803955078125,0.46527099609375,0.8488616943359375
1772702706963405000,4.794405029296875,-0.248748779296875,0.4672698974609375,0.850341796875
1772702706973455000,4.804455078125,-0.250274658203125,0.466552734375,0.850433349609375
1772702706983505200,4.814505126953125,-0.2505035400390625,0.4635467529296875,0.8496246337890625
1772702706993555200,4.82455517578125,-0.2526092529296875,0.4640655517578125,0.8492584228515625
1772702707003605200,4.834605224609375,-0.25128173828125,0.4644622802734375,0.8491973876953125
1772702707013655300,4.8446552734375,-0.2495574951171875,0.465240478515625,0.84906005859375
1772702707023705300,4.854705322265625,-0.24871826171875,0.464447021484375,0.850372314453125
1772702707033755400,4.86475537109375,-0.2481231689453125,0.462738037109375,0.8517303466796875
1772702707043805200,4.87480517578125,-0.2466888427734375,0.46246337890625,0.8511962890625
1772702707053855200,4.884855224609375,-0.24383544921875,0.4655303955078125,0.85113525390625
1772702707063905300,4.8949052734375,-0.247283935546875,0.466217041015625,0.8525848388671875
1772702707073955300,4.904955322265625,-0.2498931884765625,0.4657440185546875,0.8515472412109375
1772702707084005000,4.915005126953125,-0.252593994140625,0.4660186767578125,0.8479156494140625
1772702707094055200,4.92505517578125,-0.2527923583984375,0.4654998779296875,0.848297119140625
1772702707104105200,4.935105224609375,-0.2523651123046875,0.466094970703125,0.84832763671875
1772702707114155300,4.9451552734375,-0.2505340576171875,0.4650726318359375,0.85089111328125
1772702707124204000,4.9552041015625,-0.2465057373046875,0.4622955322265625,0.854248046875
1772702707134254300,4.96525439453125,-0.24432373046875,0.463287353515625,0.8546905517578125
1772702707144304400,4.975304443359375,-0.245574951171875,0.46466064453125,0.854248046875
1772702707154354200,4.985354248046875,-0.245635986328125,0.4616241455078125,0.8476104736328125
1772702707164404200,4.995404296875,-0.2491607666015625,0.46173095703125,0.850677490234375
1772702707174454300,5.005454345703125,-0.2522125244140625,0.4682464599609375,0.8505859375
1772702707184504300,5.01550439453125,-0.2537994384765625,0.470489501953125,0.84942626953125
1772702707194554000,5.02555419921875,-0.2542724609375,0.467803955078125,0.8504180908203125
1772702707204604200,5.035604248046875,-0.250823974609375,0.4670867919921875,0.851470947265625
1772702707214654200,5.045654296875,-0.2495574951171875,0.4666900634765625,0.852508544921875
1772702707224704300,5.055704345703125,-0.2470550537109375,0.4632720947265625,0.8533477783203125
1772702707234754300,5.06575439453125,-0.246063232421875,0.4611663818359375,0.8545379638671875
1772702707244804000,5.07580419921875,-0.24517822265625,0.4620208740234375,0.8527679443359375
1772702707254854100,5.085854248046875,-0.2446746826171875,0.4655609130859375,0.8553924560546875
1772702707264904200,5.095904296875,-0.2479248046875,0.46685791015625,0.853424072265625
1772702707274954200,5.105954345703125,-0.2513427734375,0.4658355712890625,0.849151611328125
1772702707285004000,5.116004150390625,-0.2535552978515625,0.466094970703125,0.8457794189453125
1772702707295054000,5.12605419921875,-0.2493743896484375,0.46636962890625,0.8469390869140625
1772702707305104100,5.136104248046875,-0.2499542236328125,0.4666595458984375,0.84588623046875
1772702707315154400,5.146154541015625,-0.2500762939453125,0.465545654296875,0.8488006591796875
1772702707325203200,5.156203125,-0.2503204345703125,0.4610595703125,0.849151611328125
1772702707335253200,5.166253173828125,-0.2499847412109375,0.4612274169921875,0.85150146484375
1772702707345303300,5.17630322265625,-0.2474365234375,0.46063232421875,0.852783203125
1772702707355353000,5.18635302734375,-0.2483978271484375,0.46240234375,0.8546600341796875
1772702707365403100,5.196403076171875,-0.2495574951171875,0.464996337890625,0.85406494140625
1772702707375453200,5.206453125,-0.2501983642578125,0.466827392578125,0.8532562255859375
1772702707385503200,5.216503173828125,-0.249969482421875,0.468505859375,0.854278564453125
1772702707395553000,5.226552978515625,-0.251800537109375,0.4697418212890625,0.8501739501953125
1772702707405603000,5.23660302734375,-0.253570556640625,0.468414306640625,0.849365234375
1772702707415653000,5.246653076171875,-0.253082275390625,0.4668121337890625,0.8514862060546875
1772702707425703200,5.256703125,-0.247955322265625,0.4647979736328125,0.8503875732421875
1772702707435753200,5.266753173828125,-0.2465972900390625,0.462890625,0.851318359375
1772702707445803300,5.27680322265625,-0.2474212646484375,0.462127685546875,0.8502349853515625
1772702707455853300,5.286853271484375,-0.247589111328125,0.4640350341796875,0.8504486083984375
1772702707465903400,5.2969033203125,-0.248443603515625,0.4653167724609375,0.849365234375
1772702707475953200,5.306953125,-0.2503509521484375,0.4662017822265625,0.8502960205078125
1772702707486003200,5.317003173828125,-0.2514801025390625,0.4664154052734375,0.845794677734375
1772702707496052200,5.32705224609375,-0.251220703125,0.46685791015625,0.8470306396484375
1772702707506102300,5.337102294921875,-0.249267578125,0.464874267578125,0.8488616943359375
1772702707516152000,5.347152099609375,-0.2492218017578125,0.4645843505859375,0.85101318359375
1772702707526202000,5.3572021484375,-0.2491302490234375,0.462738037109375,0.8533477783203125
1772702707536252200,5.367252197265625,-0.2479095458984375,0.46484375,0.85235595703125
1772702707546302200,5.37730224609375,-0.248748779296875,0.4645843505859375,0.85150146484375
1772702707556352300,5.387352294921875,-0.250946044921875,0.4666595458984375,0.8508758544921875
1772702707566402300,5.39740234375,-0.2504425048828125,0.4663543701171875,0.850311279296875
1772702707576452400,5.407452392578125,-0.248809814453125,0.466156005859375,0.8486480712890625
1772702707586502400,5.41750244140625,-0.25299072265625,0.4642181396484375,0.8497161865234375
1772702707596551200,5.42755126953125,-0.2508087158203125,0.464752197265625,0.8506011962890625
1772702707606601200,5.437601318359375,-0.25048828125,0.4655609130859375,0.85052490234375
1772702707616651300,5.4476513671875,-0.2497100830078125,0.465087890625,0.852447509765625
1772702707626701000,5.457701171875,-0.251220703125,0.46484375,0.8514251708984375
1772702707636751000,5.467751220703125,-0.2485504150390625,0.4664306640625,0.84954833984375
1772702707646801200,5.47780126953125,-0.2493743896484375,0.46588134765625,0.85040283203125
1772702707656851200,5.487851318359375,-0.2510528564453125,0.4656219482421875,0.851318359375
1772702707666901000,5.49790087890625,-0.24981689453125,0.4654998779296875,0.8511810302734375
1772702707676951300,5.507951416015625,-0.249847412109375,0.466064453125,0.8489837646484375
1772702707687001300,5.51800146484375,-0.2507781982421875,0.4650726318359375,0.84869384765625
1772702707697051400,5.528051513671875,-0.2513275146484375,0.465484619140625,0.85009765625
1772702707707101200,5.53810107421875,-0.25189208984375,0.4675750732421875,0.851715087890625
1772702707717151200,5.548151123046875,-0.2517242431640625,0.4644317626953125,0.8500213623046875
1772702707727201300,5.558201171875,-0.249359130859375,0.463104248046875,0.85003662109375
1772702707737251300,5.568251220703125,-0.2469482421875,0.464935302734375,0.8511962890625
1772702707747301000,5.578301025390625,-0.247772216796875,0.464996337890625,0.8492584228515625
1772702707757351200,5.58835107421875,-0.2490997314453125,0.464111328125,0.851287841796875
1772702707767401200,5.598401123046875,-0.2481689453125,0.466766357421875,0.85186767578125
1772702707777451300,5.608451171875,-0.2486572265625,0.466705322265625,0.8517913818359375
1772702707787501000,5.6185009765625,-0.252166748046875,0.46697998046875,0.8510284423828125
1772702707797551000,5.628551025390625,-0.252227783203125,0.4661407470703125,0.850494384765625
1772702707807600400,5.638600341796875,-0.2534942626953125,0.466705322265625,0.8490142822265625
1772702707817650400,5.648650390625,-0.253662109375,0.4637603759765625,0.8482666015625
1772702707827700200,5.6587001953125,-0.249359130859375,0.4659881591796875,0.8516693115234375
1772702707837750300,5.668750244140625,-0.2479095458984375,0.466094970703125,0.853271484375
1772702707847800300,5.67880029296875,-0.24609375,0.465087890625,0.850799560546875
1772702707857850400,5.688850341796875,-0.245941162109375,0.4663543701171875,0.850799560546875
1772702707867901200,5.698901123046875,-0.248443603515625,0.4671478271484375,0.847869873046875
1772702707877951200,5.708951171875,-0.2528533935546875,0.465087890625,0.8476104736328125
1772702707888001300,5.719001220703125,-0.2535552978515625,0.4666290283203125,0.8486785888671875
1772702707898051300,5.72905126953125,-0.251312255859375,0.4687347412109375,0.850128173828125
1772702707908101400,5.739101318359375,-0.250152587890625,0.467193603515625,0.8514862060546875
1772702707918150400,5.749150390625,-0.246856689453125,0.466400146484375,0.8522491455078125
1772702707928200400,5.759200439453125,-0.2440643310546875,0.468841552734375,0.850860595703125
1772702707938250500,5.76925048828125,-0.244384765625,0.4654388427734375,0.8507843017578125
1772702707948300500,5.779300537109375,-0.2466583251953125,0.467010498046875,0.851409912109375
1772702707958349600,5.789349609375,-0.250885009765625,0.4671173095703125,0.85028076171875
1772702707968399600,5.799399658203125,-0.2525482177734375,0.466339111328125,0.8516082763671875
1772702707978449700,5.80944970703125,-0.2515716552734375,0.4646759033203125,0.8490142822265625
1772702707988499500,5.81949951171875,-0.25146484375,0.4638519287109375,0.847381591796875
1772702707998549500,5.829549560546875,-0.2516326904296875,0.466644287109375,0.84552001953125
1772702708008599600,5.839599609375,-0.249359130859375,0.4662017822265625,0.8454742431640625
1772702708018649600,5.849649658203125,-0.2470245361328125,0.46697998046875,0.845703125
1772702708028699400,5.859699462890625,-0.2455596923828125,0.46685791015625,0.847991943359375
1772702708038749400,5.86974951171875,-0.2478179931640625,0.4647979736328125,0.852783203125
1772702708048799500,5.879799560546875,-0.248626708984375,0.4637908935546875,0.854827880859375
1772702708058849500,5.889849609375,-0.2471466064453125,0.4650115966796875,0.8555908203125
1772702708068899300,5.8998994140625,-0.246337890625,0.4683990478515625,0.8561859130859375
1772702708078949400,5.909949462890625,-0.247772216796875,0.470489501953125,0.8553924560546875
1772702708088999400,5.91999951171875,-0.2475128173828125,0.468994140625,0.8520355224609375
1772702708099049500,5.930049560546875,-0.2500152587890625,0.469573974609375,0.847747802734375
1772702708109099300,5.940099365234375,-0.2500762939453125,0.4662628173828125,0.8470001220703125
1772702708119149600,5.950149658203125,-0.248321533203125,0.46551513671875,0.8481597900390625
1772702708129199600,5.96019970703125,-0.2465362548828125,0.4650115966796875,0.848480224609375
1772702708139249700,5.970249755859375,-0.2427978515625,0.4656524658203125,0.8477325439453125
1772702708149299500,5.980299560546875,-0.244598388671875,0.4642486572265625,0.8472747802734375
1772702708159349500,5.990349609375,-0.2446441650390625,0.4676666259765625,0.848602294921875
1772702708169399600,6.000399658203125,-0.24871826171875,0.468353271484375,0.8494720458984375
1772702708179448600,6.010448486328125,-0.2493438720703125,0.4684600830078125,0.8481597900390625
1772702708189498400,6.020498291015625,-0.248291015625,0.46710205078125,0.851470947265625
1772702708199548400,6.03054833984375,-0.2485809326171875,0.4680328369140625,0.8522796630859375
1772702708209598500,6.040598388671875,-0.245635986328125,0.468109130859375,0.8498687744140625
1772702708219648500,6.0506484375,-0.246002197265625,0.467742919921875,0.8502349853515625
1772702708229698300,6.0606982421875,-0.246673583984375,0.4665985107421875,0.8496246337890625
1772702708239748400,6.070748291015625,-0.248077392578125,0.4667510986328125,0.8520660400390625
1772702708249798700,6.080798583984375,-0.24774169921875,0.4659881591796875,0.8509979248046875
1772702708259848700,6.0908486328125,-0.249542236328125,0.4672088623046875,0.849395751953125
1772702708269898500,6.1008984375,-0.2472076416015625,0.4664306640625,0.8496246337890625
1772702708279948500,6.110948486328125,-0.2475433349609375,0.4659881591796875,0.8524017333984375
1772702708289998600,6.12099853515625,-0.2449188232421875,0.4689178466796875,0.8522491455078125
1772702708300048600,6.131048583984375,-0.24322509765625,0.4670562744140625,0.8525848388671875
1772702708310098400,6.141098388671875,-0.245269775390625,0.4672698974609375,0.8527069091796875
1772702708320148500,6.1511484375,-0.2474212646484375,0.4684295654296875,0.8519134521484375
1772702708330198500,6.161198486328125,-0.2471771240234375,0.4704132080078125,0.8498687744140625
1772702708340248600,6.17124853515625,-0.24627685546875,0.4703216552734375,0.8484039306640625
1772702708350298400,6.18129833984375,-0.2466278076171875,0.4694671630859375,0.8482818603515625
1772702708360348400,6.191348388671875,-0.245391845703125,0.4710693359375,0.8471832275390625
1772702708370398500,6.2013984375,-0.2450103759765625,0.4689483642578125,0.849090576171875
1772702708380448500,6.211448486328125,-0.2459564208984375,0.4670257568359375,0.8460540771484375
1772702708390497500,6.22149755859375,-0.246185302734375,0.4662628173828125,0.848114013671875
1772702708400547600,6.231547607421875,-0.24884033203125,0.4652099609375,0.8495330810546875
1772702708410597600,6.24159765625,-0.2463836669921875,0.4665985107421875,0.849517822265625
1772702708420647400,6.2516474609375,-0.2462310791015625,0.46990966796875,0.849700927734375
1772702708430697500,6.261697509765625,-0.24346923828125,0.4668731689453125,0.8529815673828125
1772702708440747500,6.27174755859375,-0.24371337890625,0.46771240234375,0.8526458740234375
1772702708450797600,6.281797607421875,-0.2446136474609375,0.4678955078125,0.853424072265625
1772702708460847600,6.29184765625,-0.24713134765625,0.46624755859375,0.851593017578125
1772702708470897400,6.3018974609375,-0.247833251953125,0.4659881591796875,0.850189208984375
1772702708480947500,6.311947509765625,-0.248046875,0.4656829833984375,0.850494384765625
1772702708490997500,6.32199755859375,-0.2474212646484375,0.465911865234375,0.8473663330078125
1772702708501047600,6.332047607421875,-0.249664306640625,0.464141845703125,0.848480224609375
1772702708511097300,6.342097412109375,-0.246490478515625,0.46722412109375,0.851287841796875
1772702708521147400,6.3521474609375,-0.2429656982421875,0.4688262939453125,0.8515625
1772702708531197400,6.362197509765625,-0.2440185546875,0.4670257568359375,0.854339599609375
1772702708541247500,6.37224755859375,-0.24560546875,0.465789794921875,0.854278564453125
1772702708551297500,6.382297607421875,-0.243255615234375,0.4678955078125,0.85296630859375
1772702708561347600,6.39234765625,-0.2441864013671875,0.4679718017578125,0.85089111328125
1772702708571397600,6.402397705078125,-0.24456787109375,0.46728515625,0.8470001220703125
1772702708581447700,6.41244775390625,-0.2479400634765625,0.4669036865234375,0.846954345703125
1772702708591497500,6.42249755859375,-0.249603271484375,0.469512939453125,0.8517608642578125
1772702708601546500,6.43254638671875,-0.24896240234375,0.471405029296875,0.8536376953125
1772702708611596500,6.442596435546875,-0.2426910400390625,0.470001220703125,0.8516998291015625
1772702708621646300,6.452646240234375,-0.2396392822265625,0.4664764404296875,0.85028076171875
1772702708631696400,6.4626962890625,-0.2379150390625,0.4673309326171875,0.850921630859375
1772702708641746400,6.472746337890625,-0.2394256591796875,0.46820068359375,0.8523101806640625
1772702708651796500,6.48279638671875,-0.2418975830078125,0.467010498046875,0.8514556884765625
1772702708661846300,6.49284619140625,-0.24755859375,0.4656219482421875,0.848724365234375
1772702708671896600,6.502896484375,-0.2473297119140625,0.46649169921875,0.8507080078125
1772702708681946600,6.512946533203125,-0.244049072265625,0.468719482421875,0.849945068359375
1772702708691996700,6.52299658203125,-0.241180419921875,0.4708404541015625,0.8473968505859375
1772702708702046500,6.53304638671875,-0.2423095703125,0.4687042236328125,0.8506622314453125
1772702708712096500,6.543096435546875,-0.24176025390625,0.4687957763671875,0.8529205322265625
1772702708722146600,6.553146484375,-0.240997314453125,0.4680328369140625,0.8516998291015625
1772702708732196600,6.563196533203125,-0.24102783203125,0.4665679931640625,0.85302734375
1772702708742246400,6.573246337890625,-0.2433929443359375,0.466522216796875,0.856353759765625
1772702708752296400,6.58329638671875,-0.243804931640625,0.4667816162109375,0.855377197265625
1772702708762346500,6.593346435546875,-0.2425537109375,0.4688568115234375,0.85443115234375
1772702708772396500,6.603396484375,-0.2423095703125,0.4689483642578125,0.8518218994140625
1772702708782446300,6.6134462890625,-0.2433929443359375,0.467681884765625,0.8508148193359375
1772702708792496400,6.623496337890625,-0.240966796875,0.4689483642578125,0.8506622314453125
1772702708802546400,6.63354638671875,-0.240203857421875,0.4691619873046875,0.8522491455078125
1772702708812595700,6.643595703125,-0.2390289306640625,0.46661376953125,0.8526763916015625
1772702708822645500,6.6536455078125,-0.23974609375,0.467620849609375,0.84783935546875
1772702708832695600,6.663695556640625,-0.2399749755859375,0.4696197509765625,0.84649658203125
1772702708842745600,6.67374560546875,-0.243499755859375,0.4713897705078125,0.845672607421875
1772702708852795600,6.683795654296875,-0.2431640625,0.471588134765625,0.8469085693359375
1772702708862845400,6.693845458984375,-0.243011474609375,0.4716033935546875,0.8496246337890625
1772702708872895500,6.7038955078125,-0.2391204833984375,0.4704742431640625,0.851470947265625
1772702708882945500,6.713945556640625,-0.235504150390625,0.4707489013671875,0.854736328125
1772702708892995600,6.72399560546875,-0.23651123046875,0.472503662109375,0.85223388671875
1772702708903045400,6.73404541015625,-0.2367095947265625,0.47186279296875,0.8513031005859375
1772702708913095400,6.744095458984375,-0.238922119140625,0.471954345703125,0.8487396240234375
1772702708923145500,6.7541455078125,-0.2411651611328125,0.4717864990234375,0.8465423583984375
1772702708933195500,6.764195556640625,-0.2413330078125,0.470367431640625,0.847076416015625
1772702708943245600,6.77424560546875,-0.2421417236328125,0.4712982177734375,0.8507843017578125
1772702708953295400,6.78429541015625,-0.2386932373046875,0.4691925048828125,0.8523101806640625
1772702708963345400,6.794345458984375,-0.2357177734375,0.469146728515625,0.8511199951171875
1772702708973395700,6.804395751953125,-0.23590087890625,0.4689178466796875,0.8503265380859375
1772702708983445800,6.81444580078125,-0.235443115234375,0.471221923828125,0.8525848388671875
1772702708993495600,6.82449560546875,-0.237457275390625,0.471343994140625,0.8502044677734375
1772702709003545600,6.834545654296875,-0.239105224609375,0.4714202880859375,0.8500518798828125
1772702709013594600,6.8445947265625,-0.2403717041015625,0.4726104736328125,0.8522491455078125
1772702709023644700,6.854644775390625,-0.2407379150390625,0.4733734130859375,0.84912109375
1772702709033694500,6.864694580078125,-0.2376556396484375,0.4735107421875,0.8497161865234375
1772702709043744500,6.87474462890625,-0.23577880859375,0.47271728515625,0.8508148193359375
1772702709053794600,6.884794677734375,-0.233642578125,0.4698638916015625,0.8504638671875
1772702709063844600,6.8948447265625,-0.233978271484375,0.4694671630859375,0.852447509765625
1772702709073894400,6.904894287109375,-0.2347564697265625,0.4714508056640625,0.8499298095703125
1772702709083944400,6.9149443359375,-0.2361602783203125,0.47100830078125,0.84783935546875
1772702709093994500,6.924994384765625,-0.236785888671875,0.469970703125,0.8473358154296875
1772702709104044800,6.935044921875,-0.237060546875,0.4706268310546875,0.8476409912109375
1772702709114094600,6.945094482421875,-0.2367401123046875,0.4698333740234375,0.8473968505859375
1772702709124144600,6.95514453125,-0.234954833984375,0.4708251953125,0.848663330078125
1772702709134194700,6.965194580078125,-0.2342071533203125,0.472991943359375,0.8489532470703125
1772702709144244700,6.97524462890625,-0.23486328125,0.470703125,0.851654052734375
1772702709154294500,6.98529443359375,-0.236175537109375,0.470550537109375,0.852294921875
1772702709164344600,6.995344482421875,-0.2350616455078125,0.472137451171875,0.851715087890625
1772702709174394600,7.00539453125,-0.2347564697265625,0.4713897705078125,0.849609375
1772702709184444700,7.015444580078125,-0.2360076904296875,0.4709625244140625,0.8502044677734375
1772702709194494500,7.025494384765625,-0.2386016845703125,0.470672607421875,0.8525543212890625
1772702709204544500,7.03554443359375,-0.2367401123046875,0.47064208984375,0.8509063720703125
1772702709214594600,7.045594482421875,-0.23504638671875,0.471710205078125,0.8488006591796875
1772702709224643600,7.0556435546875,-0.23175048828125,0.4729766845703125,0.8519439697265625
1772702709234693600,7.065693603515625,-0.2326507568359375,0.471954345703125,0.8516082763671875
1772702709244743700,7.07574365234375,-0.2350921630859375,0.470855712890625,0.849639892578125
1772702709254793700,7.085793701171875,-0.238372802734375,0.4697418212890625,0.8525543212890625
1772702709264843500,7.095843505859375,-0.2392730712890625,0.468963623046875,0.8553619384765625
1772702709274893600,7.1058935546875,-0.238067626953125,0.4711456298828125,0.8512420654296875
1772702709284943600,7.115943603515625,-0.2380218505859375,0.471649169921875,0.8507537841796875
1772702709294993700,7.12599365234375,-0.2366790771484375,0.4710845947265625,0.848175048828125
1772702709305043700,7.136043701171875,-0.2336273193359375,0.47052001953125,0.8487701416015625
1772702709315093500,7.146093505859375,-0.2342071533203125,0.4730072021484375,0.8513641357421875
1772702709325143600,7.1561435546875,-0.2362060546875,0.473541259765625,0.850250244140625
1772702709335193600,7.166193603515625,-0.2390899658203125,0.473602294921875,0.852264404296875
1772702709345243600,7.17624365234375,-0.237762451171875,0.4708404541015625,0.850494384765625
1772702709355293400,7.18629345703125,-0.23712158203125,0.470489501953125,0.84912109375
1772702709365343500,7.196343505859375,-0.2366790771484375,0.4708251953125,0.848358154296875
1772702709375393500,7.2063935546875,-0.233856201171875,0.4712066650390625,0.8487701416015625
1772702709385443600,7.216443603515625,-0.233123779296875,0.4734649658203125,0.8507080078125
1772702709395493600,7.22649365234375,-0.2337646484375,0.4748992919921875,0.8516693115234375
1772702709405543700,7.236543701171875,-0.238739013671875,0.4700927734375,0.848480224609375
1772702709415593700,7.24659375,-0.240020751953125,0.4683074951171875,0.8470001220703125
1772702709425642500,7.256642578125,-0.24102783203125,0.4694366455078125,0.8544158935546875
1772702709435692500,7.266692626953125,-0.2398681640625,0.4698638916015625,0.854583740234375
1772702709445742600,7.27674267578125,-0.23675537109375,0.469329833984375,0.8581390380859375
1772702709455792600,7.286792724609375,-0.2337493896484375,0.4703216552734375,0.859832763671875
1772702709465842400,7.296842529296875,-0.2328033447265625,0.4727325439453125,0.858245849609375
1772702709475892500,7.306892578125,-0.23028564453125,0.474822998046875,0.8568267822265625
1772702709485942500,7.316942626953125,-0.2294464111328125,0.4743499755859375,0.8509521484375
1772702709495992600,7.32699267578125,-0.2307281494140625,0.473297119140625,0.84759521484375
1772702709506042400,7.33704248046875,-0.2351837158203125,0.470550537109375,0.846221923828125
1772702709516092400,7.347092529296875,-0.23541259765625,0.4698486328125,0.843963623046875
1772702709526142700,7.357142822265625,-0.2360687255859375,0.4723358154296875,0.8423919677734375
1772702709536192800,7.36719287109375,-0.2342529296875,0.4720001220703125,0.8477325439453125
1772702709546242600,7.37724267578125,-0.233245849609375,0.474090576171875,0.8521575927734375
1772702709556292600,7.387292724609375,-0.232696533203125,0.476104736328125,0.854278564453125
1772702709566342700,7.3973427734375,-0.2299957275390625,0.4777374267578125,0.8507232666015625
1772702709576392700,7.407392822265625,-0.2321929931640625,0.47845458984375,0.8475341796875
1772702709586442500,7.4174423828125,-0.2341766357421875,0.475799560546875,0.8478851318359375
1772702709596492500,7.427492431640625,-0.23565673828125,0.475311279296875,0.8492279052734375
1772702709606542600,7.43754248046875,-0.23687744140625,0.4739837646484375,0.8509368896484375
1772702709616592600,7.447592529296875,-0.237060546875,0.472869873046875,0.851287841796875
1772702709626642400,7.457642333984375,-0.2360382080078125,0.4721221923828125,0.8527984619140625
1772702709636691500,7.46769140625,-0.233734130859375,0.47216796875,0.8530120849609375
1772702709646741500,7.477741455078125,-0.2317047119140625,0.4713134765625,0.8521270751953125
1772702709656791800,7.487791748046875,-0.228912353515625,0.4715728759765625,0.8539886474609375
1772702709666841600,7.497841552734375,-0.22845458984375,0.47576904296875,0.8541717529296875
1772702709676891600,7.5078916015625,-0.2311248779296875,0.475250244140625,0.8516387939453125
1772702709686941700,7.517941650390625,-0.23309326171875,0.474029541015625,0.848175048828125
1772702709696991700,7.52799169921875,-0.2363739013671875,0.473876953125,0.8486785888671875
1772702709707041500,7.53804150390625,-0.2349090576171875,0.473785400390625,0.8508148193359375
1772702709717091600,7.548091552734375,-0.235382080078125,0.4753875732421875,0.8526763916015625
1772702709727141600,7.5581416015625,-0.2341461181640625,0.476409912109375,0.850982666015625
1772702709737191700,7.568191650390625,-0.2335968017578125,0.4774169921875,0.8493499755859375
1772702709747241500,7.578241455078125,-0.2313690185546875,0.4772186279296875,0.849884033203125
1772702709757291500,7.58829150390625,-0.232391357421875,0.475982666015625,0.8509674072265625
1772702709767341600,7.598341552734375,-0.2415313720703125,0.4689788818359375,0.8489837646484375
1772702709777391600,7.6083916015625,-0.21551513671875,0.46728515625,0.842315673828125
1772702709787441400,7.61844140625,-0.1815338134765625,0.4846038818359375,0.8742828369140625
1772702709797491500,7.628491455078125,-0.2316741943359375,0.47003173828125,0.86474609375
1772702709807541500,7.63854150390625,-0.289886474609375,0.464691162109375,0.836273193359375
1772702709817591600,7.648591552734375,-0.2952880859375,0.4743804931640625,0.8419952392578125
1772702709827641600,7.6586416015625,-0.253173828125,0.4723358154296875,0.8597259521484375
1772702709837691600,7.668691650390625,-0.20916748046875,0.4744720458984375,0.8572235107421875
1772702709847740700,7.67874072265625,-0.2035980224609375,0.4773712158203125,0.8510894775390625
1772702709857790500,7.68879052734375,-0.2161712646484375,0.47674560546875,0.84405517578125
1772702709867840500,7.698840576171875,-0.218719482421875,0.47576904296875,0.853790283203125
