time,seconds_elapsed,z,y,x
1772702702229879800,0.0608798828125,0.0015701997326686978,0.01498347707092762,-0.008353004232048988
1772702702239929900,0.070929931640625,0.0018032263033092022,0.014599182642996311,-0.003715375903993845
1772702702249979600,0.080979736328125,0.0019971043802797794,0.01113174669444561,-0.00307621737010777
1772702702260029700,0.09102978515625,0.0023132218047976494,0.01858833245933056,-0.001401089015416801
1772702702270079700,0.101079833984375,0.0015896408585831523,0.010440124198794365,-0.0057409764267504215
1772702702280129800,0.1111298828125,0.0004540689697023481,0.00018642126815393567,-0.002558232517912984
1772702702290179800,0.121179931640625,0.0007837683078832924,0.0013824469642713666,0.0022770026698708534
1772702702300230000,0.13122998046875,-0.0030511836521327496,0.01085903961211443,-0.002156361471861601
1772702702310280000,0.141280029296875,-0.003008306724950671,0.011056379415094852,-0.00487225316464901
1772702702320330000,0.151330078125,-0.0037585191894322634,0.005811816547065973,-0.0037768951151520014
1772702702330379800,0.1613798828125,-0.0044256411492824554,0.003079413203522563,-0.0018274611793458462
1772702702340429800,0.171429931640625,-0.001127848750911653,0.01230220589786768,-0.001546763931401074
1772702702350480000,0.18147998046875,-0.00580755528062582,0.014720089733600616,-0.005854959599673748
1772702702360530000,0.191530029296875,-0.002397643867880106,0.014540326781570911,-0.006894391495734453
1772702702370579700,0.201579833984375,-0.0028748824261128902,0.021528195589780807,-0.0028780782595276833
1772702702380629800,0.211629638671875,-0.0026618295814841986,0.0189041830599308,0.00033635724685154855
1772702702390679800,0.2216796875,-0.0029385320376604795,0.011149057187139988,-0.0025036376900970936
1772702702400728800,0.231728759765625,-0.005785184912383556,0.015236211009323597,-0.0033015208318829536
1772702702410779000,0.24177880859375,-0.0038927425630390644,0.015263907611370087,-0.0026823359075933695
1772702702420829000,0.251828857421875,-0.001862348522990942,0.014357101172208786,-0.001856489572674036
1772702702430879000,0.26187890625,-0.006137254647910595,0.012503008358180523,-0.0008892294717952609
1772702702440929000,0.271928955078125,-0.002841326640918851,0.014919028617441654,-0.005505286622792482
1772702702450978800,0.281978759765625,-0.005587311927229166,0.01950659044086933,-0.002639458980411291
1772702702461028900,0.29202880859375,-0.0018977685831487179,0.029047098010778427,-0.004101268015801907
1772702702471079000,0.302078857421875,-0.002275937469676137,0.02840927056968212,0.0009155947482213378
1772702702481129000,0.31212890625,-0.007737548090517521,0.023986026644706726,-0.005401689559221268
1772702702491178800,0.3221787109375,-0.007817443460226059,0.011622301302850246,-0.004932706709951162
1772702702501228800,0.332228759765625,-0.0063798688352108,0.0014543522847816348,-0.008581770583987236
1772702702511278800,0.34227880859375,-0.004877313040196896,0.005938050337135792,-0.005421929527074099
1772702702521329000,0.352328857421875,-0.009970076382160187,0.01619734615087509,-0.007209177128970623
1772702702531378700,0.362378662109375,-0.008509065955877304,0.012929114513099194,-0.007186007685959339
1772702702541428700,0.3724287109375,-0.005317001137882471,0.006493052933365107,-0.005883455276489258
1772702702551478800,0.382478759765625,-0.0018647453980520368,0.013953366316854954,-0.004156928043812513
1772702702561528800,0.39252880859375,-0.0012948289513587952,0.02263154275715351,-0.004541488364338875
1772702702571578600,0.40257861328125,0.0003962783666793257,0.01691240444779396,-0.00765845226123929
1772702702581628000,0.4126279296875,0.004233094397932291,0.011639611795544624,-0.005155613645911217
1772702702591678000,0.422677978515625,0.0035329493694007397,0.010177802294492722,-0.0038980687968432903
1772702702601727700,0.432727783203125,-0.00038296254933811724,0.006929545197635889,-0.0010575412306934595
1772702702611777800,0.44277783203125,0.003163302782922983,0.0037912761326879263,0.0008471515611745417
1772702702621827800,0.452827880859375,0.0009001484140753746,0.0003278351214248687,-0.005018194206058979
1772702702631878000,0.4628779296875,0.00008894957863958552,0.003172091208398342,-0.0024027039762586355
1772702702641927700,0.472927734375,0.0024855281226336956,0.00774766830727458,0.0005233111442066729
1772702702651977700,0.482977783203125,-0.00028389296494424343,0.0016935041639953852,-0.003111104713752866
1772702702662027800,0.49302783203125,0.0007835020078346133,-0.0013936321483924985,-0.0036242958158254623
1772702702672077800,0.503077880859375,0.001300155185163021,0.006666691042482853,-0.0011270497925579548
1772702702682127600,0.513127685546875,0.0003635214816313237,0.015301991254091263,-0.003611512714996934
1772702702692177700,0.523177734375,-0.00022770027862861753,0.008407865650951862,0.000505734293255955
1772702702702227700,0.533227783203125,-0.00040959418402053416,0.00917645450681448,-0.00373055599629879
1772702702712278000,0.543278076171875,0.0015153386630117893,0.007906392216682434,-0.0005896238726563752
1772702702722328000,0.553328125,0.0006159891490824521,0.006076534744352102,-0.0025600967928767204
1772702702732377900,0.5633779296875,0.004428037907928228,0.005024053156375885,-0.0013574132462963462
1772702702742428000,0.573427978515625,0.0024791366886347532,0.004583832807838917,-0.005846970248967409
1772702702752478000,0.58347802734375,0.0008111988427117467,0.002385659608989954,-0.002234658459201455
1772702702762528000,0.593528076171875,0.00038722361205145717,-0.005066930316388607,-0.0007390272221527994
1772702702772576800,0.60357666015625,0.0006181196658872068,-0.007482417393475771,-0.006442186422646046
1772702702782626800,0.613626708984375,0.004202734678983688,-0.0029289445374161005,-0.005739644635468721
1772702702792676900,0.6236767578125,0.0032296155113726854,-0.0023987090680748224,-0.0033910030033439398
1772702702802726700,0.6337265625,0.003834685543552041,0.0016764599131420255,-0.0019201391842216253
1772702702812776700,0.643776611328125,0.0011555455857887864,0.0060150157660245895,-0.0022032330743968487
1772702702822826800,0.65382666015625,0.0012929646763950586,0.0038029940333217382,0.0003462109307292849
1772702702832876800,0.663876708984375,0.006268282420933247,0.0022330605424940586,-0.002074069809168577
1772702702842926800,0.6739267578125,-0.000428502622526139,0.0010333064710721374,-0.0019025622168555856
1772702702852977000,0.683976806640625,0.00021172130072955042,-0.0011795139871537685,-0.0018045579781755805
1772702702863027000,0.69402685546875,-0.0002532666258048266,-0.008831041865050793,-0.0035081820096820593
1772702702873077000,0.704076904296875,0.0020788635592907667,-0.00851359311491251,-0.0031486554071307182
1772702702883126800,0.714126708984375,-0.0011944277212023735,-0.00529729388654232,-0.0011893677292391658
1772702702893176800,0.7241767578125,0.0029787456151098013,0.0024679512716829777,-0.003704723436385393
1772702702903227000,0.734226806640625,0.00242187874391675,0.009256615303456783,0.0008484831196255982
1772702702913277700,0.744277587890625,0.0003611246356740594,0.007904528640210629,0.0025481125339865685
1772702702923327700,0.75432763671875,-0.00041332258842885494,0.0020221380982548,0.0007038734620437026
1772702702933377500,0.76437744140625,-0.0006716492353007197,0.005066930316388607,0.0006476807757280767
1772702702943427600,0.774427490234375,-0.0015965650090947747,0.014697985723614693,0.00030546457855962217
1772702702953477600,0.7844775390625,-0.0022189458832144737,0.008020109497010708,0.0009536779834888875
1772702702963526400,0.7945263671875,-0.001785116852261126,-0.0017164073651656508,0.0029728866647928953
1772702702973576400,0.804576416015625,-0.0006615291931666434,0.008736233226954937,0.0022240057587623596
1772702702983626500,0.81462646484375,-0.0002921487612184137,0.00851705577224493,0.0022413162514567375
1772702702993676500,0.824676513671875,0.000007456851108145202,0.007093063089996576,0.0020594224333763123
1772702703003726600,0.8347265625,0.00250496924854815,0.004308195784687996,0.004643754102289677
1772702703013776600,0.844776611328125,-0.0007981493836268783,0.006903179921209812,0.0046576024033129215
1772702703023826700,0.85482666015625,-0.002511360915377736,0.01210060529410839,0.0006958839949220419
1772702703033876700,0.864876708984375,-0.000010918960470007733,0.011605523526668549,-0.002400573343038559
1772702703043926500,0.874926513671875,-0.002746251644566655,0.014041516929864883,0.0023196132387965918
1772702703053976600,0.8849765625,-0.0018274611793458462,0.00788508728146553,0.001058872789144516
1772702703064026600,0.895026611328125,-0.0013683321885764599,0.004251203965395689,-0.0011299792677164078
1772702703074076700,0.90507666015625,-0.0018112158868461847,0.004722050856798887,-0.0005342300864867866
1772702703084126500,0.91512646484375,-0.0006607302348129451,0.008667523972690105,-0.003325489116832614
1772702703094176500,0.925176513671875,-0.0007800398743711412,0.008256598375737667,0.0009321063989773393
1772702703104226600,0.9352265625,-0.0019273296929895878,0.007508516311645508,-0.002332396572455764
1772702703114276600,0.945276611328125,-0.0024674187880009413,0.005906358826905489,-0.000031425301131093875
1772702703124326400,0.955326416015625,0.0013486248208209872,0.013888118788599968,0.0008460862445645034
1772702703134376400,0.96537646484375,-0.004163053352385759,0.018548117950558662,-0.0007267766632139683
1772702703144426500,0.975426513671875,-0.0013201289111748338,0.021267205476760864,0.0022796657867729664
1772702703154475800,0.985475830078125,-0.0028514466248452663,0.016568589955568314,-0.002960103563964367
1772702703164525600,0.995525634765625,-0.002541188383474946,0.012605540454387665,-0.0011014834744855762
1772702703174575600,1.00557568359375,-0.004138552118092775,0.005106877535581589,-0.0017385114915668964
1772702703184625700,1.015625732421875,-0.004491155035793781,0.008962069638073444,-0.005844040773808956
1772702703194675700,1.02567578125,-0.004861600697040558,0.006440056022256613,-0.0037862160243093967
1772702703204725500,1.0357255859375,-0.005792108830064535,0.004741491749882698,-0.005243231542408466
1772702703214775600,1.045775634765625,-0.003869839245453477,0.009778594598174095,0.00046046054922044277
1772702703224825600,1.05582568359375,-0.00307621737010777,0.005938316695392132,-0.002665025182068348
1772702703234875600,1.065875732421875,-0.001657285145483911,0.006052299868315458,-0.0008426241693086922
1772702703244925400,1.075925537109375,0.0003507383225951344,0.009733321145176888,-0.002855707658454776
1772702703254975500,1.0859755859375,0.0009981527691707015,0.007093063089996576,-0.0007350324303843081
1772702703265025500,1.096025634765625,0.0024921861477196217,0.006193713750690222,-0.002144643571227789
1772702703275075600,1.10607568359375,0.0014559502014890313,0.008734369650483131,0.00041305628838017583
1772702703285125400,1.11612548828125,0.0017480988753959537,0.00953970942646265,-0.0010612696642056108
1772702703295175700,1.12617578125,0.0012492889072746038,0.007218498270958662,0.0003379551344551146
1772702703305225700,1.136225830078125,0.004692756105214357,0.004482100252062082,0.0028099012561142445
1772702703315275800,1.14627587890625,0.00449941074475646,-0.0010391654213890433,-0.0020642161834985018
1772702703325325600,1.15632568359375,0.002740126335993409,-0.00478516798466444,-0.0021054951939731836
1772702703335375600,1.166375732421875,0.003718838095664978,-0.007924501784145832,-0.005313805304467678
1772702703345424600,1.176424560546875,-0.0003158508916385472,-0.006620884872972965,-0.005282646510750055
1772702703355474400,1.186474365234375,0.004975583869963884,-0.005850964691489935,-0.0011566109023988247
1772702703365524500,1.1965244140625,-0.00040666470886208117,0.0008524778531864285,-0.003621100215241313
1772702703375574500,1.206574462890625,0.0010524812387302518,0.0034056503791362047,-0.0039044604636728764
1772702703385624600,1.21662451171875,0.0008000136003829539,0.006036054342985153,-0.002927879337221384
1772702703395674400,1.22667431640625,0.0035989959724247456,0.006394516211003065,-0.0022333269007503986
1772702703405724400,1.236724365234375,0.0010346380295231938,0.004932706709951162,-0.003565173828974366
1772702703415774500,1.2467744140625,0.0017206683987751603,-0.00006364954606397077,-0.0034844798501580954
1772702703425824800,1.25682470703125,0.0009723200928419828,-0.006088519003242254,-0.0033308155834674835
1772702703435874600,1.26687451171875,0.0010138654615730047,-0.010084858164191246,-0.003099653171375394
1772702703445924600,1.276924560546875,0.001017061178572476,-0.00911786500364542,0.000017843178284238093
1772702703455974700,1.286974609375,0.0004719121498055756,-0.0049276468344032764,-0.0017089504981413484
1772702703466024700,1.297024658203125,0.0003073287953156978,0.0010074737947434187,-0.002835467690601945
1772702703476074800,1.30707470703125,0.0013571468880400062,0.0017963021527975798,-0.002061819192022085
1772702703486124500,1.31712451171875,0.0030770162120461464,0.007712780963629484,-0.0035175031516700983
1772702703496174600,1.327174560546875,0.003774764481931925,0.007894674316048622,-0.00018375810759607702
1772702703506224600,1.337224609375,0.002650377806276083,0.008286425843834877,-0.0017691379180178046
1772702703516274700,1.347274658203125,0.002555036684498191,0.005708485841751099,-0.0004444815858732909
1772702703526323500,1.357323486328125,0.000666322885081172,0.005249623209238052,-0.0003097256412729621
1772702703536373500,1.36737353515625,0.0022943131625652313,0.003403786104172468,-0.0023012375459074974
1772702703546423600,1.377423583984375,0.00015472965606022626,0.0036040558479726315,0.000743554555810988
1772702703556473600,1.3874736328125,-0.0005299690528772771,0.0009896307019516826,0.004459729418158531
1772702703566523600,1.397523681640625,0.0015992282424122095,-0.001532116555608809,0.00004340952364145778
1772702703576573700,1.40757373046875,0.0006777744856663048,0.00227939966134727,0.0006828344776295125
1772702703586623700,1.417623779296875,0.001130778226070106,0.006689327768981457,0.0003789678157772869
1772702703596673500,1.427673583984375,0.0005542038124985993,0.008784170262515545,-0.002439721953123808
1772702703606723600,1.4377236328125,-0.00044821001938544214,0.012054000049829483,0.00016644757124595344
1772702703616773600,1.447773681640625,-0.000568052229937166,0.010466755367815495,-0.0011044129496440291
1772702703626823700,1.45782373046875,0.00047351003740914166,0.013554158620536327,0.0012655340833589435
1772702703636873500,1.46787353515625,-0.00029534456552937627,0.013966682367026806,0.003658917034044862
1772702703646923500,1.477923583984375,-0.0020658141002058983,0.009089368395507336,0.0002378202771069482
1772702703656973600,1.4879736328125,-0.0025798040442168713,0.006879744119942188,-0.003023220458999276
1772702703667023600,1.498023681640625,-0.003347327234223485,0.008387359790503979,-0.001574194524437189
1772702703677073400,1.508073486328125,-0.002132659312337637,0.01013812143355608,-0.0029111013282090425
1772702703687123500,1.51812353515625,0.0002846919232979417,0.007248325273394585,-0.0034823494497686625
1772702703697173500,1.528173583984375,-0.0020333235152065754,0.009694704785943031,-0.0030900659039616585
1772702703707223600,1.5382236328125,-0.00321949552744627,0.008625978603959084,-0.004991562571376562
1772702703717272600,1.5482724609375,0.0015140071045607328,0.006392918061465025,-0.0011502192355692387
1772702703727322600,1.558322509765625,0.00043329631444066763,0.006757771130651236,-0.005762814078480005
1772702703737372700,1.56837255859375,0.001148088718764484,0.006274407263845205,-0.0023957795929163694
1772702703747422700,1.578422607421875,-0.0008673915872350335,0.010457967408001423,-0.0005123922019265592
1772702703757472500,1.588472412109375,-0.0008186557097360492,0.007869108580052853,0.0007970841252245009
1772702703767522600,1.5985224609375,-0.0017744642682373524,0.006455236114561558,0.003011236200109124
1772702703777572600,1.608572509765625,-0.003344131400808692,0.007880293764173985,0.0020234698895365
1772702703787622700,1.61862255859375,-0.002430933527648449,0.007148190401494503,0.0024429175537079573
1772702703797672400,1.62867236328125,-0.0037926076911389828,0.005683984607458115,0.0011086739832535386
1772702703807722500,1.638722412109375,-0.004715659189969301,0.011475294828414917,0.003363838652148843
1772702703817772500,1.6487724609375,-0.0031755531672388315,0.02191009186208248,0.004630704410374165
1772702703827822600,1.658822509765625,-0.003820837242528796,0.026453711092472076,0.004867991898208857
1772702703837872400,1.668872314453125,-0.00301709515042603,0.02576528489589691,0.00646722037345171
1772702703847922700,1.678922607421875,-0.0028099012561142445,0.01925385557115078,0.007783088367432356
1772702703857972700,1.68897265625,-0.006299441214650869,0.011165834963321686,0.002688460983335972
1772702703868022800,1.699022705078125,-0.006938067264854908,0.005462143570184708,0.0005997438565827906
1772702703878072600,1.709072509765625,-0.00526720006018877,0.0019054916920140386,0.000955009541939944
1772702703888122600,1.71912255859375,-0.0062304651364684105,0.00589517317712307,0.001404284848831594
1772702703898171600,1.729171630859375,-0.004010720644146204,0.009048622101545334,0.00044022052315995097
1772702703908220700,1.739220703125,-0.0021816615480929613,0.012379171326756477,0.00299259414896369
1772702703918270700,1.749270751953125,-0.00023142869758885354,0.016517989337444305,0.000595216522924602
1772702703928320800,1.75932080078125,-0.0016160061350092292,0.01396055705845356,-0.001278849900700152
1772702703938370800,1.769370849609375,0.0005933523061685264,0.009289371781051159,-0.0024341291282325983
1772702703948420900,1.7794208984375,0.000013848437447450124,0.008539958856999874,-0.0013459615875035524
1772702703958471000,1.789470947265625,0.001472461735829711,0.003081543603911996,0.00009081379539566115
1772702703968521000,1.79952099609375,0.001820270554162562,0.0031609057914465666,0.0003456783015280962
1772702703978571000,1.809571044921875,-0.00006471481174230576,0.0036538569256663322,-0.0011997540714219213
1772702703988620800,1.819620849609375,0.0026724820490926504,0.001466869143769145,0.001252750982530415
1772702703998670800,1.8296708984375,0.00230789533816278,-0.0011648666113615036,-0.0034610440488904715
1772702704008721000,1.839720947265625,-0.0014178669080138206,-0.0065071675926446915,-0.0041244374588131905
1772702704018771000,1.84977099609375,0.0006596649764105678,-0.0057401773519814014,-0.005709284916520119
1772702704028820700,1.85982080078125,0.0012958941515535116,-0.0006711165769957006,-0.007044860161840916
1772702704038870800,1.869870849609375,0.0023552996572107077,0.0019568908028304577,-0.0007163903210312128
1772702704048920800,1.8799208984375,0.0011648666113615036,0.005910086911171675,-0.00024767397553659976
1772702704058971000,1.889970947265625,0.0016165387351065874,0.004459995776414871,0.002157160546630621
1772702704069020700,1.900020751953125,0.0031502533238381147,0.005891178734600544,0.0020663465838879347
1772702704079070700,1.91007080078125,0.0010125337867066264,0.0075516593642532825,0.0015305186389014125
1772702704089120000,1.9201201171875,-0.0003022687742486596,0.0026501116808503866,0.0017949705943465233
1772702704099169800,1.930169677734375,-0.0009094694978557527,0.001988049829378724,0.0001651159836910665
1772702704109219800,1.9402197265625,0.0006775081856176257,0.0009273127070628107,-0.00046924897469580173
1772702704119270000,1.950269775390625,0.000018908443962573074,-0.0017153420485556126,-0.0003448793722782284
1772702704129320000,1.96031982421875,-0.0012924320762977004,-0.002113218419253826,0.0013651363551616669
1772702704139369700,1.97036962890625,0.0005555353709496558,-0.0026463831309229136,0.0010128001449629664
1772702704149419800,1.980419677734375,-0.0014474280178546906,-0.0011819108622148633,-0.0011779161868616939
1772702704159469800,1.9904697265625,0.0028101676143705845,0.004005926661193371,-0.0014583469601348042
1772702704169519900,2.000519775390625,0.0035843485966324806,0.0032586439047008753,0.000532632227987051
1772702704179569700,2.010569580078125,0.0024716798216104507,0.0014479606179520488,-0.0014687333023175597
1772702704189619700,2.02061962890625,0.0005677859298884869,0.0020746025256812572,-0.0011110707418993115
1772702704199669800,2.030669677734375,-0.0009872338268905878,0.0033009881153702736,0.0007411577389575541
1772702704209719800,2.0407197265625,0.001743305241689086,-0.0008719189208932221,0.0021611552219837904
1772702704219769600,2.05076953125,-0.00042051312630064785,-0.003893541404977441,0.003999002743512392
1772702704229819600,2.060819580078125,-0.0006945523782633245,-0.0002623213513288647,0.0024612934794276953
1772702704239870000,2.070869873046875,0.0010764497565105557,-0.0009840379934757948,0.000003994741746282671
1772702704249920000,2.080919921875,-0.001755023142322898,0.0012780509423464537,-0.00048176583368331194
1772702704259969800,2.0909697265625,-0.0019656792283058167,0.0017744642682373524,0.0025393241085112095
1772702704270018800,2.101018798828125,-0.002014415105804801,0.0038394792936742306,0.002457032445818186
1772702704280068900,2.11106884765625,-0.006461095064878464,0.007832090370357037,-0.0008277104352600873
1772702704290119000,2.121118896484375,-0.00571860559284687,0.013116068206727505,0.002356364857405424
1772702704300168700,2.131168701171875,-0.008677111007273197,0.008672850206494331,-0.001368598430417478
1772702704310218800,2.14121875,-0.007144995033740997,0.008845156989991665,0.0005022721597924829
1772702704320268800,2.151268798828125,-0.006376406643539667,0.008677643723785877,-0.001728924224153161
1772702704330318800,2.16131884765625,-0.0020157466642558575,0.009680590592324734,-0.0035417377948760986
1772702704340368600,2.17136865234375,-0.0046477485448122025,0.010006295517086983,-0.0018751317402347922
1772702704350418700,2.181418701171875,-0.003022421384230256,0.009839048609137535,0.0025300029665231705
1772702704360469000,2.191468994140625,-0.0032264196779578924,0.014072409830987453,-0.0002466087171342224
1772702704370519000,2.20151904296875,-0.005892776418477297,0.013491041027009487,-0.0008386294357478619
1772702704380568800,2.21156884765625,-0.0023129554465413094,0.00603498937562108,0.0022157500497996807
1772702704390619000,2.221618896484375,-0.004691690672188997,0.00646668765693903,-0.002409095410257578
1772702704400669000,2.2316689453125,-0.0028032432310283184,0.010470218025147915,0.0004005394293926656
1772702704410719000,2.241718994140625,-0.005512743256986141,0.007035539019852877,-0.00022423815971706063
1772702704420768800,2.251768798828125,-0.005927397403866053,0.005966546013951302,0.0011238539591431618
1772702704430818800,2.26181884765625,-0.003320162883028388,0.008187090046703815,0.0009262474486604333
1772702704440868900,2.271868896484375,-0.003984888084232807,0.010422280989587307,-0.00014620754518546164
1772702704450919000,2.2819189453125,-0.0034559841733425856,0.016378439962863922,-0.0003028014034498483
1772702704460967700,2.2919677734375,-0.005677326582372189,0.015477759763598442,-0.0024682176299393177
1772702704471017700,2.302017822265625,-0.005133775528520346,0.014022608287632465,-0.002811499172821641
1772702704481067800,2.31206787109375,-0.003912716172635555,0.011464109644293785,-0.0005643238546326756
1772702704491117800,2.322117919921875,-0.008009989745914936,0.013402890413999557,-0.00018082863243762404
1772702704501167900,2.33216796875,-0.010486196726560593,0.011811652220785618,0.00009134642459684983
1772702704511218000,2.342218017578125,-0.008359928615391254,0.024204138666391373,-0.00044528054422698915
1772702704521268000,2.35226806640625,-0.005711681675165892,0.029507825151085854,0.0015129417879506946
1772702704531318000,2.362318115234375,-0.0070829433389008045,0.0253402441740036,0.0035683694295585155
1772702704541367800,2.372367919921875,-0.007877097465097904,0.017314542084932327,-0.0015044197207316756
1772702704551417900,2.38241796875,-0.005385976750403643,0.011117898859083652,0.0014045510906726122
1772702704561468000,2.392468017578125,-0.0075575183145701885,0.006689860485494137,-0.0028216191567480564
1772702704571518000,2.40251806640625,-0.008045409806072712,0.007626228034496307,-0.0013393036788329482
1772702704581567700,2.412567626953125,-0.007212905213236809,0.006713029928505421,-0.0012471582740545273
1772702704591617800,2.42261767578125,-0.004739094991236925,0.012327506206929684,0.0007076018955558538
1772702704601667800,2.432667724609375,-0.0044317664578557014,0.011081946082413197,0.003316700691357255
1772702704611718000,2.4427177734375,-0.0014330470003187656,0.011263839900493622,0.007213970646262169
1772702704621767700,2.452767578125,0.0004647216119337827,0.013169864192605019,0.00692102313041687
1772702704631817700,2.462817626953125,-0.0002865561400540173,0.014903581701219082,0.008077633567154408
1772702704641867000,2.472866943359375,0.00035420042695477605,0.014906245283782482,0.003933755215257406
1772702704651916800,2.482916748046875,-0.0012362393317744136,0.0086590014398098,0.0051652006804943085
1772702704661966800,2.492966796875,-0.0036938043776899576,0.003866909770295024,0.004968659486621618
1772702704672017000,2.503016845703125,-0.0013145363191142678,0.00842570886015892,0.0043710460886359215
1772702704682067000,2.51306689453125,0.0003046656202059239,0.008698683232069016,0.002865028567612171
1772702704692116700,2.52311669921875,-0.00021678130724467337,-0.0005848301807418466,0.002526274649426341
1772702704702166800,2.533166748046875,-0.0027925907634198666,-0.007066431455314159,0.0014303837670013309
1772702704712216800,2.543216796875,-0.001347559504210949,-0.005570534151047468,0.006177468225359917
1772702704722267000,2.553266845703125,0.0008375641773454845,-0.003887948812916875,0.0019656792283058167
1772702704732316700,2.563316650390625,0.0015824503498151898,0.011023090220987797,0.004245078656822443
1772702704742366700,2.57336669921875,-0.00017603494052309543,0.010996990837156773,0.0007699198904447258
1772702704752416800,2.583416748046875,0.0015387744642794132,0.00908617302775383,0.0021821942646056414
1772702704762466800,2.593466796875,0.001931058126501739,0.008071241900324821,0.0034264230635017157
1772702704772516600,2.6035166015625,0.003715908620506525,0.009918676689267159,0.005132710561156273
1772702704782567000,2.61356689453125,0.002216548891738057,0.008097341284155846,0.0006269080913625658
1772702704792617000,2.623616943359375,0.0010772485984489322,0.0021576930303126574,0.003766775131225586
1772702704802667000,2.6336669921875,0.0007262440049089491,-0.0041031320579349995,0.0012159993639215827
1772702704812716800,2.643716796875,0.001121457084082067,-0.0065500447526574135,0.003909520339220762
1772702704822765800,2.653765869140625,0.003492735791951418,-0.003919906914234161,0.006346312817186117
1772702704832815900,2.66381591796875,-0.00044128578156232834,0.0031158984638750553,0.0038392129354178905
1772702704842866000,2.673865966796875,-0.00011185276525793597,0.003611779073253274,0.004321777727454901
1772702704852915700,2.683915771484375,0.0033420007675886154,0.006430202629417181,0.0027084348257631063
1772702704862965800,2.6939658203125,0.003037335118278861,0.012463593855500221,0.00398648576810956
1772702704873015800,2.704015869140625,-0.0004146541759837419,0.013045760802924633,0.004506334662437439
1772702704883065900,2.71406591796875,0.001844771672040224,0.0072805495001375675,0.0006886934279464185
1772702704893115600,2.72411572265625,0.002013882389292121,-0.00047883635852485895,0.0023848607670515776
1772702704903165700,2.734165771484375,0.0017480988753959537,-0.0033534523099660873,0.001540904981084168
1772702704913216000,2.744216064453125,-0.001019990653730929,-0.00675164582207799,-0.0002516687090974301
1772702704923266000,2.75426611328125,0.0006948187365196645,-0.001639441936276853,-0.0012154667638242245
1772702704933316400,2.76431640625,0.0025249430909752846,0.00047617321251891553,0.003209908027201891
1772702704943366400,2.774366455078125,0.0027055053506046534,-0.0012631373247131705,0.0007337008719332516
1772702704953416200,2.784416259765625,-0.0003451456723269075,0.00410473020747304,0.0036253612488508224
1772702704963466200,2.79446630859375,-0.00011638013529591262,0.012348544783890247,0.004397944081574678
1772702704973516300,2.804516357421875,0.0033867419697344303,0.009786051698029041,0.0022234732750803232
1772702704983566300,2.81456640625,0.003059173235669732,0.006629673298448324,0.003236273303627968
1772702704993616100,2.8246162109375,-0.00020160128769930452,0.004311657976359129,0.0027254789602011442
1772702705003666200,2.834666259765625,0.0006514092092402279,0.0020722055342048407,0.005066663958132267
1772702705013715200,2.844715087890625,0.0013576794881373644,0.000800279900431633,0.0008551410282962024
1772702705023765000,2.854764892578125,-0.0010924286907538772,-0.002629871480166912,0.0010612696642056108
1772702705033815000,2.86481494140625,0.0005328985280357301,0.0011448930017650127,0.0011014834744855762
1772702705043865000,2.874864990234375,0.0008122641011141241,0.0004791026876773685,0.0002937466779258102
1772702705053915100,2.8849150390625,-0.0015712650492787361,0.0070517840795218945,-0.0006689860601909459
1772702705063965400,2.89496533203125,0.00004314320904086344,0.014156298711895943,-0.0011624698527157307
1772702705074015200,2.90501513671875,-0.0014599448768422008,0.014123275876045227,-0.0031374699901789427
1772702705084065300,2.915065185546875,-0.00022663500567432493,0.00950668565928936,-0.003020557342097163
1772702705094115300,2.925115234375,-0.0004159857635386288,0.005206213798373938,-0.005772135220468044
1772702705104165400,2.935165283203125,-0.0003709783486556262,0.006927680689841509,-0.004007524810731411
1772702705114215200,2.945215087890625,0.0003680488734971732,0.008389223366975784,-0.0065348646603524685
1772702705124265200,2.95526513671875,-0.00006764429417671636,0.007005977910012007,-0.005094094667583704
1772702705134315300,2.965315185546875,0.0007235808880068362,0.005007275380194187,-0.002484196564182639
1772702705144365300,2.975365234375,-0.0007150587625801563,0.010698184370994568,-0.0020458402577787638
1772702705154415000,2.9854150390625,0.0010551444720476866,0.018090587109327316,-0.002901247702538967
1772702705164465200,2.995465087890625,-0.00004207794336252846,0.02034282125532627,-0.005852030124515295
1772702705174515200,3.00551513671875,-0.0031973912846297026,0.015088139101862907,-0.003780889790505171
1772702705184565200,3.015565185546875,-0.00207699928432703,0.009999903850257397,-0.003245594445616007
1772702705194614300,3.0256142578125,0.00034434671397320926,0.007389206904917955,-0.004324440844357014
1772702705204664300,3.035664306640625,-0.004248008131980896,0.013115002773702145,-0.00484162662178278
1772702705214714400,3.04571435546875,-0.002989664673805237,0.019243469461798668,-0.0036618465092033148
1772702705224764200,3.05576416015625,-0.0010897654574364424,0.016378972679376602,-0.004613926634192467
1772702705234814200,3.065814208984375,-0.0021787320729345083,0.009916546754539013,-0.004748682491481304
1772702705244864300,3.0758642578125,-0.0038629150949418545,0.011217234656214714,-0.009935455396771431
1772702705254914300,3.085914306640625,-0.006323143374174833,0.012232164852321148,-0.007719971239566803
1772702705264964000,3.095964111328125,-0.0037087181117385626,0.011263839900493622,-0.007791610434651375
1772702705275014100,3.10601416015625,-0.0034179009962826967,0.011542405933141708,-0.00896633043885231
1772702705285064200,3.116064208984375,-0.00358834327198565,0.00951041467487812,-0.006465089973062277
1772702705295114200,3.1261142578125,-0.0009957558941096067,0.010850517079234123,-0.006374542135745287
1772702705305164000,3.1361640625,-0.000031425301131093875,0.013106481172144413,-0.006171342916786671
1772702705315214000,3.146214111328125,-0.0012207929976284504,0.012738964520394802,-0.004864796530455351
1772702705325264100,3.15626416015625,0.001967277145013213,0.0088776471093297,-0.00452923821285367
1772702705335314200,3.166314208984375,0.003982757218182087,0.009073656052350998,-0.004203799646347761
1772702705345364000,3.176364013671875,-0.00004793690095539205,0.01338717807084322,-0.002626675646752119
1772702705355414300,3.186414306640625,0.0012604740913957357,0.010481669567525387,-0.002287122653797269
1772702705365464300,3.19646435546875,-0.002901247702538967,0.010496582835912704,-0.0016684704460203648
1772702705375514400,3.206514404296875,-0.0005081311101093888,0.0033933997619897127,-0.00021837920940015465
1772702705385563100,3.216563232421875,-0.001945705502294004,-0.0036005936563014984,-0.003430950455367565
1772702705395613200,3.22661328125,-0.0025385250337421894,-0.006704774219542742,-0.0024495755787938833
1772702705405663200,3.236663330078125,-0.0005960154230706394,-0.0010375675046816468,-0.0028788771014660597
1772702705415713300,3.24671337890625,-0.00007350324449362233,0.002945189829915762,0.00036432043998502195
1772702705425763000,3.25676318359375,-0.0036213663406670094,0.00977646466344595,-0.00012836436508223414
1772702705435813000,3.266813232421875,-0.0036304211243987083,0.014038320630788803,-0.0014508900931105018
1772702705445863200,3.27686328125,-0.001425057533197105,0.014877216890454292,-0.00030892668291926384
1772702705455913200,3.286913330078125,-0.0007099987124092877,0.013788250274956226,-0.004720985423773527
1772702705465963000,3.296962890625,0.0007795072160661221,0.010578608140349388,0.0007339671719819307
1772702705476013000,3.307012939453125,-0.0037321539130061865,0.008481369353830814,0.00015233281010296196
1772702705486063400,3.3170634765625,-0.00004660531703848392,0.00464588450267911,0.003418167121708393
1772702705496113400,3.327113525390625,0.00025060345069505274,0.0024024376180022955,-0.0014258564915508032
1772702705506163200,3.3371630859375,-0.0014745922526344657,0.0006631271098740399,0.000592020689509809
1772702705516213200,3.347213134765625,-0.0014122743159532547,0.0017235978739336133,0.0029020465444773436
1772702705526263300,3.35726318359375,-0.0006402239087037742,0.0012519520241767168,-0.0009643306257203221
1772702705536313300,3.367313232421875,-0.0025947177782654762,0.005044559482485056,-0.0009832390351220965
1772702705546363100,3.377363037109375,-0.0009041432058438659,0.009403621777892113,-0.002977147698402405
1772702705556413200,3.3874130859375,-0.00013395700079854578,0.008221444673836231,-0.0032581111881881952
1772702705566463200,3.397463134765625,0.00022024342615623027,0.0021654162555933,-0.00047883635852485895
1772702705576512000,3.407511962890625,0.0008881642133928835,0.0038860845379531384,-0.0003552656853571534
1772702705586562000,3.41756201171875,-0.0026639599818736315,0.004993959795683622,-0.0021582257468253374
1772702705596612000,3.427612060546875,-0.00028522455249913037,0.002560895634815097,0.0027531760279089212
1772702705606662400,3.437662353515625,-0.0012141350889578462,0.0010921623324975371,0.0011459582019597292
1772702705616712200,3.447712158203125,-0.002775546396151185,0.0006836334359832108,0.0030863373540341854
1772702705626762200,3.45776220703125,-0.003591539105400443,0.005078914575278759,0.004693288821727037
1772702705636812300,3.467812255859375,0.000011717908819264267,0.003353186184540391,0.005046423990279436
1772702705646862300,3.4778623046875,-0.00010679275874281302,0.006166815757751465,0.005094626918435097
1772702705656912100,3.487912109375,-0.000609863898716867,0.008224107325077057,0.002998985582962632
1772702705666962200,3.497962158203125,-0.0011944277212023735,0.005886917468160391,0.0031289479229599237
1772702705677012200,3.50801220703125,-0.0006346312584355474,0.009573531337082386,0.005658418405801058
1772702705687062300,3.518062255859375,-0.001458080718293786,0.007893876172602177,0.002522546099498868
1772702705697112300,3.5281123046875,-0.0018293253378942609,0.008867793716490269,0.006141249556094408
1772702705707162000,3.538162109375,-0.002407231368124485,0.007901865057647228,0.007977765053510666
1772702705717212200,3.548212158203125,-0.001570998691022396,0.012238290160894394,0.006423544604331255
1772702705727262200,3.55826220703125,-0.0035843485966324806,0.008684035390615463,0.004319380968809128
1772702705737312300,3.568312255859375,-0.0016921724891290069,0.006422212813049555,0.005136971361935139
1772702705747362000,3.578362060546875,-0.0025185514241456985,0.010183927603065968,0.0038272286765277386
1772702705757412000,3.588412109375,-0.004133225884288549,0.009793775156140327,0.002625077962875366
1772702705767461400,3.59846142578125,-0.003203782718628645,0.009036904200911522,0.0017957695527002215
1772702705777511200,3.60851123046875,-0.0013281183782964945,0.005163869354873896,-0.0003933488915208727
1772702705787561200,3.618561279296875,-0.0023811322171241045,0.009881393052637577,-0.0011821772204712033
1772702705797611300,3.628611328125,-0.002296177437528968,0.007985222153365612,0.0018253305461257696
1772702705807661300,3.638661376953125,-0.00561181316152215,0.007215568795800209,0.0009187905816361308
1772702705817711000,3.648711181640625,-0.003820304526016116,0.008942894637584686,-0.0014455638593062758
1772702705827761200,3.65876123046875,-0.0039867521263659,0.009469934739172459,-0.002609365154057741
1772702705837811200,3.668811279296875,-0.003326820908114314,0.006592921447008848,0.000021837920940015465
1772702705847861200,3.678861328125,-0.004297542851418257,0.006141515914350748,0.00023808660625945777
1772702705857911000,3.6889111328125,-0.0005930859479121864,0.0033774208277463913,0.0015185344964265823
1772702705867961000,3.698961181640625,-0.0027302727103233337,0.0076280920766294,-0.0010378338629379869
1772702705878011100,3.70901123046875,-0.0030061763245612383,0.011409514583647251,-0.0001102548703784123
1772702705888061200,3.719061279296875,-0.003555586328729987,0.021693577989935875,0.0010298443958163261
1772702705898111200,3.729111328125,-0.0037031255196779966,0.027571706101298332,-0.0004423510399647057
1772702705908160800,3.739160888671875,-0.0028783443849533796,0.018206167966127396,-0.001543568097986281
1772702705918210600,3.74921044921875,-0.00475400872528553,0.009052351117134094,0.0016282566357403994
1772702705928260600,3.759260498046875,-0.005936452187597752,0.0022298647090792656,-0.003631486324593425
1772702705938310700,3.769310546875,-0.0044144559651613235,0.003637611633166671,-0.003680488560348749
1772702705948360700,3.779360595703125,-0.004297010600566864,0.005305283237248659,-0.00239258399233222
1772702705958409500,3.789409423828125,-0.005690908990800381,0.005073588341474533,-0.0030192257836461067
1772702705968459500,3.79945947265625,-0.001680454588495195,0.00692102313041687,-0.001478587044402957
1772702705978509600,3.809509521484375,0.0003352919884491712,0.013194099068641663,-0.000245543458731845
1772702705988559400,3.819559326171875,-0.0019126823171973228,0.014219948090612888,-0.0008210525847971439
1772702705998609700,3.829609619140625,-0.0015507587231695652,0.011258780024945736,-0.002692189533263445
1772702706008659700,3.83965966796875,0.001642637769691646,0.007423561532050371,0.0002788329729810357
1772702706018709800,3.849709716796875,0.0013307816116139293,0.009075254201889038,0.0008165251929312944
1772702706028759600,3.859759521484375,0.000547279603779316,0.009788182564079762,0.0002932140196207911
1772702706038809600,3.8698095703125,0.0026011094450950623,0.0026130937039852142,-0.0010522148804739118
1772702706048859600,3.879859619140625,0.0009030779474414885,0.0022980417124927044,0.0008218514849431813
1772702706058909700,3.88990966796875,0.0026764769572764635,-0.0018018947448581457,0.00005379585491027683
1772702706068959500,3.89995947265625,0.0008639294537715614,0.0005898901727050543,-0.005757487844675779
1772702706079009500,3.910009521484375,0.0006655239267274737,0.004239486064761877,-0.0046544065698981285
1772702706089059600,3.9200595703125,-0.000547279603779316,0.001341966912150383,-0.0030719563364982605
1772702706099109600,3.930109619140625,0.001966744428500533,0.005646966863423586,-0.0024056334514170885
1772702706109159400,3.940159423828125,0.002089249901473522,0.007895739749073982,-0.005933256354182959
1772702706119209500,3.95020947265625,-0.00040320257539860904,0.0118515994399786,-0.0033100428991019726
1772702706129259500,3.960259521484375,0.0017563547007739544,0.00768881244584918,-0.0010815097484737635
1772702706139309600,3.9703095703125,0.0006431533838622272,0.004971855320036411,-0.003236539661884308
1772702706149358600,3.980358642578125,0.0010282464791089296,0.0014863101532682776,-0.0010833739070221782
1772702706159408600,3.99040869140625,0.0011536814272403717,0.0019081549253314734,-0.0023704797495156527
1772702706169458700,4.000458740234375,-0.0005305017111822963,0.00040719733806326985,-0.0017361147329211235
1772702706179508700,4.0105087890625,0.0020785972010344267,0.00361683894880116,-0.0016474314033985138
1772702706189558500,4.02055859375,-0.0005142564186826348,0.00040533312130719423,-0.00250496924854815
1772702706199608600,4.030608642578125,0.0013374395202845335,0.0008468852029182017,-0.0007773766992613673
1772702706209658600,4.04065869140625,0.0006578007596544921,0.006025934591889381,-0.004032558295875788
1772702706219708700,4.050708740234375,0.004192348103970289,0.006982542108744383,-0.0009499495499767363
1772702706229758500,4.060758544921875,0.002493517706170678,0.0059966398403048515,-0.00010839065362233669
1772702706239808500,4.07080859375,-0.0015720640076324344,0.0026075011119246483,-0.0015904398169368505
1772702706249858600,4.080858642578125,-0.00047058056225068867,0.0035926043055951595,0.0007901599165052176
1772702706259908600,4.09090869140625,-0.0001227717293659225,0.004530303180217743,0.0020703414920717478
1772702706269958400,4.10095849609375,0.000847950461320579,0.004040015395730734,0.0029142971616238356
1772702706280008400,4.111008544921875,-0.0005824333056807518,0.0049433596432209015,0.0028535770252346992
1772702706290058500,4.12105859375,-0.0008564725867472589,0.0030091057997196913,0.0022149509750306606
1772702706300108500,4.131108642578125,-0.00177925790194422,0.007951400242745876,0.00041758365114219487
1772702706310158600,4.14115869140625,-0.001592037733644247,0.005452289711683989,0.0013824469642713666
1772702706320208600,4.151208740234375,-0.0020271982066333294,0.002094842493534088,0.0028820729348808527
1772702706330258700,4.1612587890625,-0.0027827369049191475,-0.002663161139935255,0.0018511632224544883
1772702706340307500,4.171307373046875,-0.0008900284301489592,0.0026873957831412554,0.005440838169306517
1772702706350357500,4.181357421875,-0.0028130970895290375,0.005945773329585791,0.0038424087688326836
1772702706360407600,4.191407470703125,-0.0016564861871302128,0.008445949293673038,0.004820588044822216
1772702706370457600,4.20145751953125,-0.003462375607341528,0.0121866250410676,0.002758768619969487
1772702706380507400,4.21150732421875,-0.0033542513847351074,0.011770373210310936,0.0029087045695632696
1772702706390557400,4.221557373046875,-0.00430207047611475,0.008859271183609962,0.003212304785847664
1772702706400607500,4.231607421875,0.000508663768414408,0.0049497513100504875,0.001957689644768834
1772702706410657500,4.241657470703125,-0.002921487670391798,0.004231763072311878,-0.0015100123127922416
1772702706420707600,4.25170751953125,0.0008884305134415627,0.005377987399697304,0.00009347695595351979
1772702706430757600,4.261757568359375,-0.004311923868954182,0.008345015347003937,0.0017390442080795765
1772702706440807700,4.2718076171875,-0.0010090717114508152,0.010716560296714306,0.0003920173039659858
1772702706450857700,4.281857666015625,-0.002628007438033819,0.009668339975178242,0.00005166532355360687
1772702706460907800,4.29190771484375,-0.0008314388687722385,0.013143498450517654,-0.0010460896883159876
1772702706470957600,4.30195751953125,-0.0030916635878384113,0.009650763124227524,-0.0012159993639215827
1772702706481007600,4.312007568359375,-0.0015880429418757558,0.007379086688160896,-0.0011443602852523327
1772702706491057700,4.3220576171875,-0.0019313243683427572,0.004716724622994661,-0.0020602215081453323
1772702706501107700,4.332107666015625,-0.002201369032263756,0.006725546903908253,-0.0027712853625416756
1772702706511157500,4.342157470703125,0.00009081379539566115,0.003946538548916578,-0.0031409321818500757
1772702706521207600,4.35220751953125,0.00039601203752681613,0.002688727341592312,-0.0046357642859220505
1772702706531256600,4.362256591796875,0.0023875238839536905,-0.0013398362789303064,-0.0026578346733003855
1772702706541306400,4.372306396484375,0.0024943165481090546,0.006090649403631687,-0.0041579934768378735
1772702706551356700,4.382356689453125,0.0015550197567790747,0.023254722356796265,-0.0011166634503751993
1772702706561406700,4.39240673828125,0.0028690234757959843,0.028479045256972313,-0.0030927290208637714
1772702706571456800,4.402456787109375,-0.003629089565947652,0.0259301345795393,-0.0028583707753568888
1772702706581506600,4.412506591796875,-0.004370513837784529,0.01979500986635685,-0.00567093538120389
1772702706591556600,4.422556640625,-0.00498170917853713,0.017370734363794327,-0.004180630203336477
1772702706601606700,4.432606689453125,-0.006719421595335007,0.014445251785218716,-0.005680522415786982
1772702706611656700,4.44265673828125,-0.008783104829490185,0.0037955371662974358,-0.0041542649269104
1772702706621706500,4.45270654296875,-0.00714685907587409,-0.00253532943315804,-0.003069559345021844
1772702706631756500,4.462756591796875,-0.004177434369921684,-0.0012950951931998134,-0.002398176584392786
1772702706641806600,4.472806640625,-0.005538842175155878,0.0035752938129007816,-0.00001651159800530877
1772702706651856600,4.482856689453125,-0.0009614011505618691,0.01341460831463337,0.002237854292616248
1772702706661906400,4.492906494140625,0.00021944446780253202,0.016173377633094788,0.003222158644348383
1772702706671956500,4.50295654296875,0.0017363809747621417,0.01944294013082981,0.0005137237603776157
1772702706682006500,4.513006591796875,0.002936401404440403,0.01889139972627163,0.004899151157587767
1772702706692056600,4.523056640625,0.0007073355955071747,0.0158279649913311,0.0012311793398112059
1772702706702106400,4.5331064453125,0.0024074974935501814,0.008685633540153503,0.003594468580558896
1772702706712156400,4.543156494140625,0.00029081720276735723,0.004897020757198334,-0.0013116068439558148
1772702706722206700,4.553206787109375,0.0004953479510731995,0.0004820321628358215,-0.0028032432310283184
1772702706732255700,4.563255859375,-0.0008953547803685069,0.0031944618094712496,-0.0021441110875457525
1772702706742305500,4.573305419921875,-0.00027803401462733746,-0.0026583673898130655,-0.0018168084789067507
1772702706752355600,4.58335546875,0.0019001654582098126,-0.0015816513914614916,-0.003323891432955861
1772702706762405600,4.593405517578125,0.001008539111353457,0.005199822131544352,-0.004414988216012716
1772702706772455700,4.60345556640625,-0.0016980315558612347,0.00851599033921957,-0.005362807307392359
1772702706782505500,4.61350537109375,0.002147573046386242,0.008709335699677467,-0.0033923345617949963
1772702706792555500,4.623555419921875,0.00016218650853261352,0.009950901381671429,-0.004117247182875872
1772702706802605600,4.63360546875,-0.0005587312043644488,0.014941132627427578,0.0013278521364554763
1772702706812655600,4.643655517578125,0.0002463423879817128,0.011404987424612045,-0.003947070799767971
1772702706822705400,4.653705322265625,0.0024375913199037313,0.007844873704016209,0.00045327001134864986
1772702706832755500,4.66375537109375,0.0010034791193902493,0.003485811408609152,0.0010610034223645926
1772702706842805500,4.673805419921875,-0.00008442220860160887,-0.0009688580175861716,-0.0008229167433455586
1772702706852855800,4.683855712890625,0.002840527566149831,-0.002688460983335972,-0.0012101404136046767
1772702706862905600,4.693905517578125,0.0005664543714374304,0.0011052117915824056,-0.00012223910016473383
1772702706872955600,4.70395556640625,0.003716707695275545,0.008020908571779728,0.001392566948197782
1772702706883005700,4.714005615234375,0.002020540414378047,0.011256382800638676,0.0006050702068023384
1772702706893055700,4.7240556640625,0.003357979701831937,0.006706638727337122,0.0012471582740545273
1772702706903105500,4.73410546875,0.0031443943735212088,0.0027771443128585815,-0.00013848437811248004
1772702706913156400,4.74415625,0.0034589136485010386,0.004960137419402599,-0.0021848573815077543
1772702706923206100,4.7542060546875,0.002674879040569067,0.005693572107702494,-0.000639424950350076
1772702706933255200,4.764255126953125,0.003942543640732765,0.0055090151727199554,0.0025068335235118866
1772702706943305200,4.77430517578125,0.0006854976527392864,0.009463543072342873,0.003454652614891529
1772702706953355300,4.784355224609375,0.0024343954864889383,0.009374060668051243,0.0030517163686454296
1772702706963405000,4.794405029296875,0.0002306297537870705,0.009415606036782265,0.0008141283178701997
1772702706973455000,4.804455078125,-0.0011443602852523327,0.006269081030040979,0.0025542378425598145
1772702706983505200,4.814505126953125,-0.0012154667638242245,0.006079730577766895,0.002029062481597066
1772702706993555200,4.82455517578125,-0.00401578051969409,0.000404534162953496,-0.00009267800487577915
1772702707003605200,4.834605224609375,-0.004425108432769775,-0.0007896272582001984,-0.0005291700945235789
1772702707013655300,4.8446552734375,-0.004139351192861795,-0.0008394283941015601,-0.0007901599165052176
1772702707023705300,4.854705322265625,-0.00010812433902174234,0.008018777705729008,0.0008993495139293373
1772702707033755400,4.86475537109375,-0.002041046740487218,0.01449878141283989,0.001350755337625742
1772702707043805200,4.87480517578125,-0.0003962783666793257,0.023907463997602463,0.002481267089024186
1772702707053855200,4.884855224609375,-0.002418682910501957,0.02377616986632347,0.003993410151451826
1772702707063905300,4.8949052734375,0.0010434264549985528,0.009319465607404709,0.004266916774213314
1772702707073955300,4.904955322265625,-0.002055161399766803,0.0034887411165982485,-0.0014034858904778957
1772702707084005000,4.915005126953125,-0.006699714343994856,0.004403803031891584,-0.0008516788948327303
1772702707094055200,4.92505517578125,-0.004656004719436169,-0.0005917543894611299,-0.0020671456586569548
1772702707104105200,4.935105224609375,-0.0057281930930912495,0.002385925967246294,-0.0002545981842558831
1772702707114155300,4.9451552734375,-0.003138535423204303,0.008067513816058636,-0.0011438276851549745
1772702707124204000,4.9552041015625,-0.0043625240214169025,0.015373097732663155,0.0003802994033321738
1772702707134254300,4.96525439453125,-0.0031065773218870163,0.01822933740913868,0.003175287041813135
1772702707144304400,4.975304443359375,0.05012548342347145,0.009885653853416443,0.0004703142330981791
1772702707154354200,4.985354248046875,-0.05181259661912918,0.008974586613476276,-0.0013978932984173298
1772702707164404200,4.995404296875,0.03923848271369934,0.005145493429154158,-0.0062485747039318085
1772702707174454300,5.005454345703125,-0.04418077692389488,0.005287440028041601,-0.0020029633305966854
1772702707184504300,5.01550439453125,0.03550313413143158,-0.0017904432024806738,-0.0017566210590302944
1772702707194554000,5.02555419921875,-0.03923502191901207,0.005173190496861935,0.00020453077740967274
1772702707204604200,5.035604248046875,0.024836907163262367,-0.0010167949367314577,-0.002261822810396552
1772702707214654200,5.045654296875,-0.027840152382850647,0.0035627768374979496,-0.0013552826130762696
1772702707224704300,5.055704345703125,0.020772656425833702,0.005501291714608669,0.0019382486352697015
1772702707234754300,5.06575439453125,-0.01888873614370823,0.02635117992758751,-0.002293780678883195
1772702707244804000,5.07580419921875,0.00890880636870861,0.01896090805530548,-0.002526274649426341
1772702707254854100,5.085854248046875,-0.01242178212851286,0.014087323099374771,-0.001273257308639586
1772702707264904200,5.095904296875,-0.0015949672088027,0.0009544769418425858,-0.008743423968553543
1772702707274954200,5.105954345703125,-0.007641940843313932,0.004698348697274923,-0.004135356284677982
1772702707285004000,5.116004150390625,-0.01762346923351288,0.0025957829784601927,-0.006927414797246456
1772702707295054000,5.12605419921875,0.000290018244413659,0.0063034361228346825,-0.005234176758676767
1772702707305104100,5.136104248046875,-0.021135112270712852,0.00021678130724467337,-0.004025634378194809
1772702707315154400,5.146154541015625,0.013096360489726067,0.011514442972838879,-0.0033657029271125793
1772702707325203200,5.156203125,-0.025588983669877052,0.006158560048788786,-0.00281975488178432
1772702707335253200,5.166253173828125,0.02449335902929306,0.020657874643802643,-0.0014024205738678575
1772702707345303300,5.17630322265625,-0.026522686704993248,0.01474831998348236,-0.0009707222343422472
1772702707355353000,5.18635302734375,0.032702818512916565,0.02100488357245922,0.004002997186034918
1772702707365403100,5.196403076171875,-0.03545279800891876,0.015617042779922485,0.002621083054691553
1772702707375453200,5.206453125,0.039502669125795364,0.022309832274913788,0.0007313040550798178
1772702707385503200,5.216503173828125,-0.04571156203746796,0.006028331350535154,0.0001257012045243755
1772702707395553000,5.226552978515625,0.04558958858251572,0.003422162029892206,-0.0002740392810665071
1772702707405603000,5.23660302734375,-0.05333432927727699,-0.003656520042568445,0.0025630262680351734
1772702707415653000,5.246653076171875,0.052496232092380524,0.004232828039675951,0.0005371595616452396
1772702707425703200,5.256703125,-0.06346472352743149,-0.0038195056840777397,-0.001327053178101778
1772702707435753200,5.266753173828125,0.055941030383110046,0.005290635861456394,-0.0023992417845875025
1772702707445803300,5.27680322265625,-0.06575131416320801,0.004765193909406662,-0.004052798729389906
1772702707455853300,5.286853271484375,0.06356912106275558,0.020201407372951508,0.00020106865849811584
1772702707465903400,5.2969033203125,-0.07069787383079529,0.009249690920114517,-0.0022034994326531887
1772702707475953200,5.306953125,0.07062596827745438,0.014926218427717686,-0.003721501212567091
1772702707486003200,5.317003173828125,-0.07819467037916183,0.007420099340379238,-0.002261290093883872
1772702707496052200,5.32705224609375,0.0763498991727829,0.01477708201855421,-0.0010751180816441774
1772702707506102300,5.337102294921875,-0.0808975100517273,0.0039265644736588,0.000806138850748539
1772702707516152000,5.347152099609375,0.07695550471544266,0.009886452928185463,-0.00037763622822239995
1772702707526202000,5.3572021484375,-0.016812002286314964,0.006419816054403782,0.004269313532859087
1772702707536252200,5.367252197265625,-0.0016524913953617215,0.006188121158629656,0.00014327807002700865
1772702707546302200,5.37730224609375,-0.0035507925786077976,0.010727212764322758,0.0023451796732842922
1772702707556352300,5.387352294921875,-0.0062584285624325275,0.014991732314229012,0.0004474110610317439
1772702707566402300,5.39740234375,-0.0030157635919749737,0.010072873905301094,0.00004234426160110161
1772702707576452400,5.407452392578125,-0.005337241105735302,0.010344250127673149,-0.003686081152409315
1772702707586502400,5.41750244140625,-0.004655205644667149,0.009697901085019112,-0.0003611246356740594
1772702707596551200,5.42755126953125,-0.0036242958158254623,0.0037982002831995487,-0.0028852687682956457
1772702707606601200,5.437601318359375,-0.003960386849939823,0.007162039168179035,-0.004160656593739986
1772702707616651300,5.4476513671875,-0.0019403791520744562,0.010967696085572243,-0.0017361147329211235
1772702707626701000,5.457701171875,-0.0021193434949964285,0.012852681800723076,-0.0011976235546171665
1772702707636751000,5.467751220703125,-0.0008546083699911833,0.00977646466344595,-0.00424161646515131
1772702707646801200,5.47780126953125,-0.004238686989992857,0.008950618095695972,-0.002826412906870246
1772702707656851200,5.487851318359375,-0.003478354774415493,0.011579157784581184,-0.003780889790505171
1772702707666901000,5.49790087890625,-0.0014484933344647288,0.010551710613071918,-0.0008239820599555969
1772702707676951300,5.507951416015625,-0.003594202222302556,0.013056413270533085,0.0011179950088262558
1772702707687001300,5.51800146484375,-0.0037433390971273184,0.01420556753873825,0.0005515406373888254
1772702707697051400,5.528051513671875,-0.0032266860362142324,0.007233412005007267,-0.0014817827614024282
1772702707707101200,5.53810107421875,-0.005352154839783907,0.003300189273431897,0.0009139968897216022
1772702707717151200,5.548151123046875,-0.003774498123675585,0.005812349263578653,0.0024413196370005608
1772702707727201300,5.558201171875,-0.003961984533816576,0.012625247240066528,-0.001535312389023602
1772702707737251300,5.568251220703125,-0.0036735644098371267,0.01372380182147026,0.003162237349897623
1772702707747301000,5.578301025390625,-0.003501524217426777,0.012340822257101536,0.002916161436587572
1772702707757351200,5.58835107421875,-0.005120193585753441,0.01787886582314968,0.0003182477375958115
1772702707767401200,5.598401123046875,-0.004460528492927551,0.013615410774946213,-0.0016706009628251195
1772702707777451300,5.608451171875,-0.001582716591656208,0.01116184052079916,0.00155288923997432
1772702707787501000,5.6185009765625,-0.0029617014806717634,0.006852846127003431,-0.002168345730751753
1772702707797551000,5.628551025390625,-0.003917243797332048,0.00532525684684515,-0.0025843314360827208
1772702707807600400,5.638600341796875,-0.00344533147290349,0.00541340745985508,0.0012367720482870936
1772702707817650400,5.648650390625,-0.0027214842848479748,0.009010273031890392,0.001475657569244504
1772702707827700200,5.6587001953125,-0.0029798108153045177,0.00948138628154993,0.0023664848413318396
1772702707837750300,5.668750244140625,-0.005063201766461134,0.008341819047927856,0.0003371562052052468
1772702707847800300,5.67880029296875,-0.004166781902313232,0.014473214745521545,0.0017307883827015758
1772702707857850400,5.688850341796875,-0.0009989517275243998,0.009305617772042751,0.0013081447687000036
1772702707867901200,5.698901123046875,-0.0033603766933083534,0.008448878303170204,-0.001823732745833695
1772702707877951200,5.708951171875,-0.004989964887499809,0.005541239399462938,-0.0007009439868852496
1772702707888001300,5.719001220703125,-0.0026463831309229136,0.004175836686044931,0.0021547635551542044
1772702707898051300,5.72905126953125,-0.001323857344686985,0.005615541245788336,0.0034109766129404306
1772702707908101400,5.739101318359375,-0.0007651261985301971,0.009552226401865482,0.0009086705395020545
1772702707918150400,5.749150390625,-0.0034493261482566595,0.013323262333869934,0.003954527899622917
1772702707928200400,5.759200439453125,-0.001948368619196117,0.013227920979261398,0.004600078333169222
1772702707938250500,5.76925048828125,0.0006556702428497374,0.02039794996380806,0.0003475425182841718
1772702707948300500,5.779300537109375,-0.004641090985387564,0.014491324312984943,0.0021616879384964705
1772702707958349600,5.789349609375,-0.00538411270827055,0.015213307924568653,0.0009653958841226995
1772702707968399600,5.799399658203125,-0.005941512528806925,0.013154151849448681,-0.0001400822657160461
1772702707978449700,5.80944970703125,-0.010273942723870277,0.009386844001710415,-0.004511395003646612
1772702707988499500,5.81949951171875,-0.008106395602226257,0.008555138483643532,-0.0023044333793222904
1772702707998549500,5.829549560546875,-0.007644870318472385,0.009284045547246933,-0.0019401127938181162
1772702708008599600,5.839599609375,-0.00606401776894927,0.010603109374642372,0.0002790992730297148
1772702708018649600,5.849649658203125,-0.006329002324491739,0.011782091110944748,0.0008034756756387651
1772702708028699400,5.859699462890625,-0.0012857741676270962,0.013705958612263203,0.0041002025827765465
1772702708038749400,5.86974951171875,-0.003293264890089631,0.015321964398026466,0.0034197650384157896
1772702708048799500,5.879799560546875,0.0006301039247773588,0.014739531092345715,-0.0012543488992378116
1772702708058849500,5.889849609375,-0.0012373046483844519,0.01842348277568817,0.002302302746102214
1772702708068899300,5.8998994140625,-0.001639441936276853,0.014161891303956509,-0.0015675366157665849
1772702708078949400,5.909949462890625,-0.00022956448083277792,0.010310161858797073,-0.0005065332516096532
1772702708088999400,5.91999951171875,-0.004175836686044931,0.0020503676496446133,-0.000526773277670145
1772702708099049500,5.930049560546875,-0.003111371072009206,0.001996305538341403,0.0013915016315877438
1772702708109099300,5.940099365234375,-0.0023339942563325167,0.00503870053216815,-0.00022663500567432493
1772702708119149600,5.950149658203125,-0.003312173532322049,0.005381715949624777,-0.0011235876008868217
1772702708129199600,5.96019970703125,-0.004593686666339636,0.00740252248942852,-0.0024642229545861483
1772702708139249700,5.970249755859375,-0.0031252196058630943,0.013623134233057499,-0.0012950951931998134
1772702708149299500,5.980299560546875,-0.004626177251338959,0.01756620965898037,0.0007315703551284969
1772702708159349500,5.990349609375,-0.003777693957090378,0.017838384956121445,0.00032623723382130265
1772702708169399600,6.000399658203125,-0.0019622170366346836,0.023123161867260933,-0.0016924388473853469
1772702708179448600,6.010448486328125,-0.002922020386904478,0.020736170932650566,0.001139566651545465
1772702708189498400,6.020498291015625,0.00010679275874281302,0.02147439867258072,0.0014599448768422008
1772702708199548400,6.03054833984375,-0.0003129214164800942,0.022770559415221214,-0.003704190719872713
1772702708209598500,6.040598388671875,-0.00446958327665925,0.022578280419111252,-0.0012250541476532817
1772702708219648500,6.0506484375,-0.003353186184540391,0.01386707928031683,-0.0025300029665231705
1772702708229698300,6.0606982421875,-0.0009267800487577915,0.011355452239513397,-0.0036464000586420298
1772702708239748400,6.070748291015625,-0.004041346721351147,0.01410596538335085,-0.007729026023298502
1772702708249798700,6.080798583984375,-0.00316063966602087,0.009260077029466629,-0.00748987402766943
1772702708259848700,6.0908486328125,-0.005356681998819113,0.010283263400197029,-0.008225705474615097
1772702708269898500,6.1008984375,-0.002671949565410614,0.01968555338680744,-0.006595850922167301
1772702708279948500,6.110948486328125,-0.003091131104156375,0.023984694853425026,-0.007905327714979649
1772702708289998600,6.12099853515625,-0.003988616168498993,0.02137133479118347,-0.004976915195584297
1772702708300048600,6.131048583984375,-0.001814677962101996,0.01600240170955658,-0.005923935677856207
1772702708310098400,6.141098388671875,-0.0028333370573818684,0.016381902620196342,-0.009733853861689568
1772702708320148500,6.1511484375,-0.0030945930629968643,0.015028484165668488,-0.007539941463619471
1772702708330198500,6.161198486328125,-0.007643804885447025,0.01569667086005211,-0.006848052144050598
1772702708340248600,6.17124853515625,-0.009583118371665478,0.017311345785856247,-0.007620102725923061
1772702708350298400,6.18129833984375,-0.006344448775053024,0.018790198490023613,-0.004054929129779339
1772702708360348400,6.191348388671875,-0.0070344735868275166,0.01840910129249096,-0.005705023650079966
1772702708370398500,6.2013984375,-0.007738613523542881,0.02069089747965336,-0.0025427863001823425
1772702708380448500,6.211448486328125,-0.007363640237599611,0.017838651314377785,-0.0007158577209338546
1772702708390497500,6.22149755859375,-0.007429686840623617,0.021028319373726845,-0.0015100123127922416
1772702708400547600,6.231547607421875,-0.007673632353544235,0.022337796166539192,0.0015480954898521304
1772702708410597600,6.24159765625,-0.008988435380160809,0.02299027144908905,0.004026699345558882
1772702708420647400,6.2516474609375,-0.00875301193445921,0.02804548293352127,-0.00019148127466905862
1772702708430697500,6.261697509765625,-0.008327971212565899,0.03172650560736656,-0.0015219965716823936
1772702708440747500,6.27174755859375,-0.006346579175442457,0.026977023109793663,-0.0002764361270237714
1772702708450797600,6.281797607421875,-0.009971939958631992,0.02262861281633377,0.0006479470757767558
1772702708460847600,6.29184765625,-0.007736216764897108,0.02352370135486126,-0.0014114753575995564
1772702708470897400,6.3018974609375,-0.01053040474653244,0.022592393681406975,-0.003198190126568079
1772702708480947500,6.311947509765625,-0.009371130727231503,0.015000787563621998,-0.002642388455569744
1772702708490997500,6.32199755859375,-0.006085855886340141,0.013305419124662876,-0.005097290500998497
1772702708501047600,6.332047607421875,-0.006084524095058441,0.020502611994743347,-0.006624879315495491
1772702708511097300,6.342097412109375,-0.007601726800203323,0.016516659408807755,-0.00833702553063631
1772702708521147400,6.3521474609375,-0.009225456044077873,0.010296579450368881,-0.005969741847366095
1772702708531197400,6.362197509765625,-0.006370547693222761,0.013860688544809818,-0.004759334959089756
1772702708541247500,6.37224755859375,-0.006844324059784412,0.01739550195634365,-0.006338057108223438
1772702708551297500,6.382297607421875,-0.007410778198391199,0.020481040701270103,-0.006641124840825796
1772702708561347600,6.39234765625,-0.0065284729935228825,0.02231595851480961,-0.004349474795162678
1772702708571397600,6.402397705078125,-0.006730873137712479,0.019413644447922707,-0.007861651480197906
1772702708581447700,6.41244775390625,-0.008709868416190147,0.014011156745254993,-0.00570049649104476
1772702708591497500,6.42249755859375,-0.008921056985855103,0.010575945489108562,-0.004670385736972094
1772702708601546500,6.43254638671875,-0.007099454756826162,0.015490010380744934,-0.0075884112156927586
1772702708611596500,6.442596435546875,-0.006867493502795696,0.01799977384507656,-0.003153448924422264
1772702708621646300,6.452646240234375,-0.004688494838774204,0.02797943726181984,-0.006067479960620403
1772702708631696400,6.4626962890625,-0.006089317612349987,0.033598173409700394,-0.0018210695125162601
1772702708641746400,6.472746337890625,-0.004947886802256107,0.02750672586262226,-0.006120476871728897
1772702708651796500,6.48279638671875,-0.0027113643009215593,0.022250976413488388,-0.004592887591570616
1772702708661846300,6.49284619140625,-0.005281847435981035,0.021873073652386665,-0.004304200876504183
1772702708671896600,6.502896484375,-0.005959355738013983,0.023298930376768112,-0.008766859769821167
1772702708681946600,6.512946533203125,-0.006912501063197851,0.01830337382853031,-0.005773200653493404
1772702708691996700,6.52299658203125,-0.005824067164212465,0.01624554954469204,-0.005726861767470837
1772702708702046500,6.53304638671875,-0.004406466148793697,0.013594372197985649,-0.0027507790364325047
1772702708712096500,6.543096435546875,-0.003034672001376748,0.018020279705524445,-0.0035577169619500637
1772702708722146600,6.553146484375,-0.0024684839881956577,0.015969645231962204,-0.0034045851789414883
1772702708732196600,6.563196533203125,-0.0019025622168555856,0.011501659639179707,-0.007020092569291592
1772702708742246400,6.573246337890625,0.00015579492901451886,0.01477575022727251,-0.005655488930642605
1772702708752296400,6.58329638671875,0.0005390237784013152,0.012737100012600422,-0.007153250742703676
1772702708762346500,6.593346435546875,0.0023393207229673862,0.006926882080733776,-0.006376140285283327
1772702708772396500,6.603396484375,0.0018759306985884905,0.006947122048586607,-0.008620119653642178
1772702708782446300,6.6134462890625,0.0021022993605583906,0.009763414971530437,-0.010384996421635151
1772702708792496400,6.623496337890625,-0.0005033374181948602,0.011063570156693459,-0.008713862858712673
1772702708802546400,6.63354638671875,0.0024224112275987864,0.0033012544736266136,-0.009141300804913044
1772702708812595700,6.643595703125,-0.0009145294898189604,0.00788588635623455,-0.010201770812273026
1772702708822645500,6.6536455078125,-0.0015720640076324344,0.0018122810870409012,-0.012478507123887539
1772702708832695600,6.663695556640625,0.0015579492319375277,-0.0003251719754189253,-0.011063303798437119
1772702708842745600,6.67374560546875,-0.00001651159800530877,0.005122590344399214,-0.011481153778731823
1772702708852795600,6.683795654296875,0.0013912353897467256,0.008352206088602543,-0.013764814473688602
1772702708862845400,6.693845458984375,-0.0006564692012034357,0.009718939661979675,-0.00996155384927988
1772702708872895500,6.7038955078125,-0.0007747135823592544,0.016751283779740334,-0.006234726402908564
1772702708882945500,6.713945556640625,0.0010295780375599861,0.01720774918794632,-0.006021406967192888
1772702708892995600,6.72399560546875,-0.00010918960470007733,0.008255799300968647,-0.005228317808359861
1772702708903045400,6.73404541015625,0.0002348908019484952,0.00806112214922905,-0.006870689336210489
1772702708913095400,6.744095458984375,-0.0028037759475409985,0.0041185785084962845,-0.005821403581649065
1772702708923145500,6.7541455078125,0.0003462109307292849,0.0024493092205375433,-0.007284544408321381
1772702708933195500,6.764195556640625,-0.0021992383990436792,0.004780374001711607,-0.006357231643050909
1772702708943245600,6.77424560546875,-0.0032684975303709507,0.006624612957239151,-0.003838680451735854
1772702708953295400,6.78429541015625,-0.002764893928542733,0.005883721634745598,-0.006381200160831213
1772702708963345400,6.794345458984375,-0.0007243797881528735,0.0123030049726367,-0.0007456850726157427
1772702708973395700,6.804395751953125,-0.0032431974541395903,0.02135349251329899,-0.0014413028256967664
1772702708983445800,6.81444580078125,-0.0017656758427619934,0.014868694357573986,-0.0017267935909330845
1772702708993495600,6.82449560546875,-0.003073021536692977,0.0103181516751647,-0.0027561055030673742
1772702709003545600,6.834545654296875,-0.004751611966639757,0.01037594210356474,-0.002554770326241851
1772702709013594600,6.8445947265625,-0.006195844151079655,0.011967713013291359,-0.002192846732214093
1772702709023644700,6.854644775390625,-0.007273092865943909,0.011683021672070026,-0.004256263840943575
1772702709033694500,6.864694580078125,-0.006174272391945124,0.016355004161596298,-0.001648496720008552
1772702709043744500,6.87474462890625,-0.006742058787494898,0.019217902794480324,-0.003602191573008895
1772702709053794600,6.884794677734375,-0.006223008502274752,0.018185395747423172,-0.004209658596664667
1772702709063844600,6.8948447265625,-0.007203318178653717,0.013701165094971657,-0.007838748395442963
1772702709073894400,6.904894287109375,-0.008462727069854736,0.008825449272990227,-0.006171342916786671
1772702709083944400,6.9149443359375,-0.0073351445607841015,0.012938435189425945,-0.0033366745337843895
1772702709093994500,6.924994384765625,-0.007190801203250885,0.012998889200389385,-0.0010628675809130073
1772702709104044800,6.935044921875,-0.007802795618772507,0.01739443652331829,-0.0010032127611339092
1772702709114094600,6.945094482421875,-0.0068331388756632805,0.020473316311836243,0.002043177140876651
1772702709124144600,6.95514453125,-0.008646751753985882,0.025119202211499214,0.0015009575290605426
1772702709134194700,6.965194580078125,-0.006396646611392498,0.022792130708694458,0.005935919936746359
1772702709144244700,6.97524462890625,-0.010402839630842209,0.026679547503590584,0.003108974313363433
1772702709154294500,6.98529443359375,-0.009111206978559494,0.025195367634296417,-0.0008500810363329947
1772702709164344600,6.995344482421875,-0.009285110980272293,0.023418506607413292,0.0023845944087952375
1772702709174394600,7.00539453125,-0.009909888729453087,0.021433653309941292,0.0008207862265408039
1772702709184444700,7.015444580078125,-0.011290204711258411,0.02111220918595791,-0.0018319884547963738
1772702709194494500,7.025494384765625,-0.010793792083859444,0.01588202826678753,-0.0020655477419495583
1772702709204544500,7.03554443359375,-0.011605789884924889,0.015798937529325485,0.0011140003334730864
1772702709214594600,7.045594482421875,-0.0127584058791399,0.025121863931417465,-0.0025068335235118866
1772702709224643600,7.0556435546875,-0.01176557969301939,0.020624052733182907,-0.0005731122801080346
1772702709234693600,7.065693603515625,-0.00965555664151907,0.021864285692572594,-0.0008620652370154858
1772702709244743700,7.07574365234375,-0.012353605590760708,0.018211228772997856,-0.0014972290955483913
1772702709254793700,7.085793701171875,-0.009156746789813042,0.018785672262310982,-0.0007502124644815922
1772702709264843500,7.095843505859375,-0.009068596176803112,0.017661551013588905,-0.0032716933637857437
1772702709274893600,7.1058935546875,-0.011119762435555458,0.013584517873823643,-0.004086620640009642
1772702709284943600,7.115943603515625,-0.00999297946691513,0.017941715195775032,-0.007218231912702322
1772702709294993700,7.12599365234375,-0.007900533266365528,0.028859078884124756,-0.002918558195233345
1772702709305043700,7.136043701171875,-0.00833755824714899,0.03141731023788452,-0.003968376200646162
1772702709315093500,7.146093505859375,-0.0075908079743385315,0.030292924493551254,-0.0070427292957901955
1772702709325143600,7.1561435546875,-0.0071098413318395615,0.021392639726400375,-0.003288471372798085
1772702709335193600,7.166193603515625,-0.007562312297523022,0.014491590671241283,-0.003975833300501108
1772702709345243600,7.17624365234375,-0.009811085648834705,0.013321930542588234,-0.004838963504880667
1772702709355293400,7.18629345703125,-0.01119273342192173,0.01203722134232521,-0.005661880597472191
1772702709365343500,7.196343505859375,-0.011018828488886356,0.015874570235610008,-0.011059042997658253
1772702709375393500,7.2063935546875,-0.008813731372356415,0.025706429034471512,-0.011169297620654106
1772702709385443600,7.216443603515625,-0.006566556170582771,0.024693628773093224,-0.015509717166423798
1772702709395493600,7.22649365234375,-0.0021973741240799427,0.020140156149864197,-0.010180732235312462
1772702709405543700,7.236543701171875,-0.007397995330393314,0.018128138035535812,-0.012486230581998825
1772702709415593700,7.24659375,-0.0024985778145492077,0.02347443252801895,-0.010806575417518616
1772702709425642500,7.256642578125,-0.0011270497925579548,0.01757047139108181,-0.015476694330573082
1772702709435692500,7.266692626953125,-0.008008391596376896,0.0070400661788880825,-0.018689265474677086
1772702709445742600,7.27674267578125,-0.005368399899452925,0.008577775210142136,-0.020383568480610847
1772702709455792600,7.286792724609375,-0.005854426883161068,0.017067933455109596,-0.020119382068514824
1772702709465842400,7.296842529296875,-0.004402738064527512,0.021988390013575554,-0.01643436774611473
1772702709475892500,7.306892578125,-0.0031848743092268705,0.017661551013588905,-0.01113441027700901
1772702709485942500,7.316942626953125,0.00022610237647313625,0.01055969949811697,-0.016343286260962486
1772702709495992600,7.32699267578125,-0.000502804818097502,0.0031766186002641916,-0.012839632108807564
1772702709506042400,7.33704248046875,-0.0005720470217056572,0.006657636258751154,-0.016626913100481033
1772702709516092400,7.347092529296875,-0.0007621967233717442,0.012023373506963253,-0.01798246242105961
1772702709526142700,7.357142822265625,-0.0027355989441275597,0.01667511649429798,-0.017363810911774635
1772702709536192800,7.36719287109375,-0.0026849990244954824,0.02058969810605049,-0.013515275903046131
1772702709546242600,7.37724267578125,0.0007608651067130268,0.0328008234500885,-0.013142167590558529
1772702709556292600,7.387292724609375,0.0002388855500612408,0.03777587413787842,-0.01028352975845337
1772702709566342700,7.3973427734375,0.001017061178572476,0.029034314677119255,-0.008500277064740658
1772702709576392700,7.407392822265625,0.003168362658470869,0.027513382956385612,-0.005209409166127443
1772702709586442500,7.4174423828125,0.002594451420009136,0.01937156729400158,-0.004264785908162594
1772702709596492500,7.427492431640625,-0.0015433018561452627,0.012937369756400585,-0.007437143474817276
1772702709606542600,7.43754248046875,0.0006538060260936618,0.011540542356669903,-0.011244398541748524
1772702709616592600,7.447592529296875,0.0007422229973599315,0.012381568551063538,-0.006933805998414755
1772702709626642400,7.457642333984375,0.0026698189321905375,0.014797587879002094,-0.008468053303658962
1772702709636691500,7.46769140625,0.002162220422178507,0.012690494768321514,-0.006193980108946562
1772702709646741500,7.477741455078125,0.0046783750876784325,0.02058144100010395,-0.0028767467010766268
1772702709656791800,7.487791748046875,0.005556685384362936,0.021647771820425987,-0.0020610203500837088
1772702709666841600,7.497841552734375,0.003127083647996187,0.015964850783348083,-0.0018690064316615462
1772702709676891600,7.5078916015625,0.004233893472701311,0.013651896268129349,-0.0036157737486064434
1772702709686941700,7.517941650390625,0.008125570602715015,0.016700416803359985,-0.003494866192340851
1772702709696991700,7.52799169921875,0.004237622022628784,0.020730046555399895,-0.004603273700922728
1772702709707041500,7.53804150390625,0.007734352257102728,0.013354421593248844,-0.004033623728901148
1772702709717091600,7.548091552734375,0.004570783115923405,0.012587430886924267,-0.003215500619262457
1772702709727141600,7.5581416015625,0.0018069547368213534,0.012053200975060463,-0.0009001484140753746
1772702709737191700,7.568191650390625,-0.0003174488083459437,0.010945592075586319,0.002367816399782896
1772702709747241500,7.578241455078125,0.0032083101104944944,0.018625082448124886,0.0016375777777284384
1772702709757291500,7.58829150390625,0.009126120246946812,0.04079030826687813,0.03896790370345116
1772702709767341600,7.598341552734375,0.0018815232906490564,0.09721416980028152,0.20711056888103485
1772702709777391600,7.6083916015625,-0.006198773626238108,-0.032165657728910446,0.18617120385169983
1772702709787441400,7.61844140625,-0.0035457327030599117,-0.11424188315868378,0.04410887137055397
1772702709797491500,7.628491455078125,0.0023121563717722893,-0.030476415529847145,-0.054973237216472626
1772702709807541500,7.63854150390625,0.00022423815971706063,0.03127722814679146,-0.07788121700286865
1772702709817591600,7.648591552734375,-0.0004135889175813645,-0.004145476501435041,-0.0662410706281662
1772702709827641600,7.6586416015625,0.00047830372932367027,-0.020920194685459137,-0.07176286727190018
1772702709837691600,7.668691650390625,0.004294613376259804,-0.0001906823308672756,-0.07510247081518173
1772702709847740700,7.67874072265625,0.005184908397495747,0.020539097487926483,-0.04260551556944847
1772702709857790500,7.68879052734375,-0.0020668793004006147,0.02484596148133278,0.014874020591378212
1772702709867840500,7.698840576171875,-0.006472812965512276,-0.013460415415465832,0.04297836124897003
