time,seconds_elapsed,z,y,x
1772702692286700000,0.071699951171875,0.04274696257561445,-0.029028526085615156,0.013078092759847641
1772702692296750000,0.08175,-0.0015089432582259176,-0.017390403001010416,0.01078501338660717
1772702692306800000,0.091800048828125,0.0247197229757905,0.006522679767012596,0.03407178094983101
1772702692316850200,0.10185009765625,0.015927929233014584,-0.0018926818788051604,0.03993745811283588
1772702692326900000,0.11189990234375,-0.00021495792493224142,0.008061725902557373,-0.0005950432837009429
1772702692336950000,0.121949951171875,-0.008595832779258489,0.03317892376333475,-0.02200432653725147
1772702692347000000,0.132,-0.000008621697872877121,0.02110211700052023,-0.028578444230556485
1772702692357050000,0.142050048828125,0.011084873116016388,0.005202244818210602,-0.016987375158071517
1772702692367100000,0.152099853515625,0.008615268132090568,-0.03347527636140585,0.009924597164988518
1772702692377149200,0.162149169921875,0.01333995856642723,-0.03533727084100246,0.03309679843783379
1772702692387199200,0.17219921875,0.00866173762232065,-0.03545008356571197,0.02674129193127155
1772702692397249000,0.1822490234375,-0.0028659108251333234,-0.0289700738966465,0.026656536257266997
1772702692407299000,0.192299072265625,0.011547376061230897,-0.018043606212735173,0.03336918563842773
1772702692417349000,0.20234912109375,0.010858078622817992,-0.006399345648288726,0.028283845198154446
1772702692427399200,0.212399169921875,0.021839491364359854,0.007440671394765377,0.02981003185212612
1772702692437449000,0.222448974609375,0.009921674555540085,0.02813654568195343,0.029471593677997586
1772702692447499000,0.2324990234375,0.014705986222624779,0.003649754679203033,0.025457097339630124
1772702692457549000,0.242549072265625,0.005731967780739069,0.0026148586735129354,0.01746960571706295
1772702692467599000,0.25259912109375,-0.012782032422721384,0.011554828715324402,0.006909048736095428
1772702692477649000,0.26264892578125,-0.007947598003596066,0.02989800239652395,0.008784194958209991
1772702692487699000,0.272698974609375,0.010136194089055061,0.01633504872918129,0.013881810358166694
1772702692497749000,0.2827490234375,0.024982027173787353,0.031000410680472847,-0.016605682364106176
1772702692507799000,0.292799072265625,0.023884879586845636,0.02907324201017618,-0.00971709189414978
1772702692517849000,0.30284912109375,0.005447305620461702,0.02617401343733072,-0.008550386202335357
1772702692527898000,0.312898193359375,0.004684942945837974,0.04011369146257639,-0.010797872868180274
1772702692537948200,0.3229482421875,0.027680034086108207,0.04722469251155853,-0.002762450450658798
1772702692547998200,0.332998291015625,0.027214170140028,0.04217091625332832,-0.006474748972058296
1772702692558048000,0.343048095703125,0.03566460309922695,0.041137189291417596,-0.021655951490998266
1772702692568098000,0.35309814453125,0.043157881464064116,0.05280512299239635,0.011425064855813979
1772702692578148000,0.363148193359375,0.02834711969271302,0.02539455349743366,0.0329436537027359
1772702692588198100,0.3731982421875,0.003472352285683155,0.014434768065810203,0.017198387560248374
1772702692598248000,0.383248046875,-0.006945289093255996,0.0014274024546146393,-0.006864040550589561
1772702692608298000,0.393298095703125,0.019925766697525975,0.0058031333208084105,0.007672434324026108
1772702692618348000,0.40334814453125,0.03514262505173683,0.007141103926301002,0.00732289023399353
1772702692628398000,0.413398193359375,0.052960021293163295,0.018103227445483205,-0.008043021202087402
1772702692638447900,0.42344775390625,0.048774844563007354,0.02789075422734022,0.002249240231513977
1772702692648498200,0.433498291015625,0.016229834789037705,0.028851708213984965,0.011211714366078375
1772702692658548200,0.44354833984375,0.002113923414051533,0.026142449255287647,-0.01469546482861042
1772702692668598300,0.453598388671875,0.010789105039834976,0.021117899091541766,-0.00675648852288723
1772702692678647000,0.46364697265625,0.009225801245868205,0.031519466118514534,0.006563596299290657
1772702692688697000,0.473697021484375,0.019587474653869865,0.021978023052215575,0.011105915904045104
1772702692698747100,0.4837470703125,0.03157236534953117,0.018243220438063142,0.01535597456395626
1772702692708797000,0.493796875,0.023705577497184275,0.04240764761865139,0.009447627303004264
1772702692718847000,0.503846923828125,0.046453708139061925,0.029549627350270745,0.006887421426177025
1772702692728897000,0.51389697265625,0.030091186881065365,0.014366086743772028,0.008141805401444435
1772702692738947000,0.523947021484375,0.0023398411244153973,-0.004256488400697708,0.011548983496427535
1772702692748996900,0.533996826171875,0.011123451560735702,0.020906594428420064,0.007984569013118743
1772702692759047000,0.544046875,0.006579378390312194,0.01515256094634533,-0.006838321587443351
1772702692769097200,0.55409716796875,0.0010427870512008666,0.014086100758612155,0.0017149872243404387
1772702692779147300,0.564147216796875,-0.010571370635926723,0.0016495207726955413,0.004108019840717315
1772702692789197300,0.574197265625,0.005384615647792816,0.001366319917142391,-0.008307225096225739
1772702692799247000,0.5842470703125,0.011669979527592658,-0.00696866996884346,-0.031363106513023375
1772702692809297200,0.594297119140625,0.014130816683173179,-0.008492518535256385,-0.0019195698857307434
1772702692819347200,0.60434716796875,0.012836246827989816,0.020756664563715457,0.0318500132471323
1772702692829397200,0.614397216796875,0.009237783944606781,0.015308336029946802,0.011570610806345938
1772702692839446000,0.624446044921875,0.0377732658162713,-0.003963642933964729,-0.00047755438387393946
1772702692849496000,0.63449609375,0.020336831716448067,-0.010527239233255386,0.027166823866963386
1772702692859546000,0.644546142578125,0.009749240598082541,-0.019797171881794928,0.05564180772304535
1772702692869596000,0.654595947265625,-0.005863923597335815,-0.0044619478449225425,0.028066987577080725
1772702692879646000,0.66464599609375,-0.0028270401194691657,0.02266483627259731,0.02546177351474762
1772702692889696000,0.674696044921875,-0.01586027082428336,0.017129121716320514,0.026237434062361717
1772702692899746300,0.684746337890625,-0.015727730485796926,0.015668109253048897,0.003202595433592796
1772702692909796400,0.69479638671875,-0.022070085249841213,-0.001654196947813034,0.0034983635097742076
1772702692919846400,0.704846435546875,0.00741173756122589,-0.014740180753171444,-0.00837561415731907
1772702692929896200,0.714896240234375,0.02653685540035367,-0.02331803948432207,-0.01533200916647911
1772702692939946200,0.7249462890625,0.003389642438292503,-0.01595803211033344,-0.0007797522008419036
1772702692949996300,0.734996337890625,-0.01210252572596073,-0.025671032351255417,0.029008652341365813
1772702692960046300,0.74504638671875,-0.0248155845656991,-0.0033580782562494275,0.036865211060643194
1772702692970096000,0.75509619140625,-0.03364391092658043,0.0037520460098981853,0.03410392965376377
1772702692980146200,0.765146240234375,-0.03231879980266094,0.016840952424705027,0.038927404287457466
1772702692990195200,0.7751953125,-0.02381605213433504,-0.00041150341033935545,0.017609306448698042
1772702693000245000,0.785244873046875,-0.015246961231529712,0.00445727166980505,0.016868132692575453
1772702693010295000,0.795294921875,-0.027635610422492025,0.012665712566673756,-0.0025467618733644483
1772702693020345000,0.805344970703125,-0.025284955643117425,0.007411153039336204,0.01572714596390724
1772702693030395400,0.8153955078125,-0.013969927033036946,-0.007460545139014721,-0.0055932899624109265
1772702693040445400,0.825445556640625,-0.011996581133455038,-0.004892155955731868,-0.02858078231811523
1772702693050495200,0.8354951171875,-0.0065481064692139625,0.004397065915167331,-0.00734334850013256
1772702693060545300,0.845545166015625,-0.011001286485791205,0.014196283134818076,0.005921791264414787
1772702693070595300,0.85559521484375,-0.008668459624052048,-0.002533317869901657,0.0427466703146696
1772702693080645400,0.865645263671875,-0.007201894202828407,-0.004348258337378502,0.027707506614923477
1772702693090695200,0.875695068359375,-0.015048516049981116,-0.016716741523146627,0.02976385462284088
1772702693100745200,0.8857451171875,-0.02210880982503295,-0.019856208592653274,0.052341012611985205
1772702693110795300,0.895795166015625,-0.010613163951039313,-0.00791062699407339,0.03842413094043731
1772702693120845300,0.90584521484375,-0.005776829835772514,0.008532558284699916,0.03499707910120487
1772702693130895000,0.91589501953125,-0.005529577076435089,0.005668108764290809,0.03723229080736637
1772702693140945200,0.925945068359375,-0.0009356734149158,0.00782177966684103,0.04046878851056099
1772702693150994200,0.935994140625,0.014216741400957108,0.004044014693796634,0.01468845056593418
1772702693161044200,0.946044189453125,0.012403554499149321,-0.014267302544414997,0.0014507833302021026
1772702693171094300,0.95609423828125,0.00902910962998867,0.008619652046263217,0.025295184776186943
1772702693181144300,0.966144287109375,0.014632920986413955,0.0073953709483146664,0.009736381116509436
1772702693191194400,0.9761943359375,-0.009801847568154335,0.007981354142725466,0.009679097971320152
1772702693201244200,0.986244140625,-0.015956716936081645,0.01584668069034815,-0.014836919125914573
1772702693211294200,0.996294189453125,0.0036329496748745437,-0.007129998010396957,-0.026280104160308838
1772702693221344300,1.00634423828125,0.01354760996773839,-0.0021788053438067433,0.00037467853128910064
1772702693231394300,1.016394287109375,0.05736848538517952,0.009108896867930889,0.028693595042824743
1772702693241444000,1.026444091796875,0.061494333143532275,0.004359364253282547,0.03262508927285671
1772702693251494100,1.036494140625,0.06437164214551448,0.007315291449427604,0.028847324299812314
1772702693261544200,1.046544189453125,0.051110740164667365,0.018393150302767752,0.04349602737724781
1772702693271594200,1.05659423828125,0.018276976577192544,0.03937339448928833,0.02228723513185978
1772702693281644000,1.06664404296875,-0.02576981655061245,0.03891220671832561,-0.0037859482795000073
1772702693291694000,1.076694091796875,-0.03431377301216125,0.037597032466530796,-0.03021393647789955
1772702693301744000,1.086744140625,0.01113309617191553,0.03170066790431738,-0.02220131041407585
1772702693311793400,1.09679345703125,0.031704028905183076,0.018732172998785972,-0.011954641687870025
1772702693321843200,1.10684326171875,0.05191781876385212,-0.009506371752917766,0.014799509724974631
1772702693331893200,1.116893310546875,0.05907821191251278,-0.007869418200850487,0.006688099461793899
1772702693341943300,1.126943359375,0.07089315286874771,0.006024667116999626,0.01025952820777893
1772702693351993300,1.136993408203125,0.031072599133849143,0.00372223539352417,0.04277063571214676
1772702693362043100,1.147043212890625,-0.008922142124176025,0.018125147016346453,0.05403203443884849
1772702693372093200,1.15709326171875,-0.007855097414553164,0.03483165940642357,0.029901801788806914
1772702693382143200,1.167143310546875,-0.0047530397459864615,0.028867782565951346,0.00808101512491703
1772702693392193300,1.177193359375,0.015397621748596428,0.03757657420039177,-0.001924246060848236
1772702693402243000,1.1872431640625,0.029166034860163927,0.033843232890963554,0.004703063124418258
1772702693412293000,1.197293212890625,0.048345513235032556,0.025518179877102372,-0.022763035950064656
1772702693422343200,1.20734326171875,0.02080138048827648,0.01379267076998949,-0.012553776624798774
1772702693432393200,1.217393310546875,0.02122282077074051,-0.00814677383750677,0.002350362518429756
1772702693442443000,1.227443115234375,0.013387304839491843,-0.01422755505591631,0.019556348863244057
1772702693452493300,1.237493408203125,0.030610388449579477,-0.004393851044774055,0.025037995144724844
1772702693462542300,1.247542236328125,0.01834054333269596,-0.006288871011137962,0.0030178865164518353
1772702693472592100,1.257592041015625,0.012868395531922578,0.006545183859765529,0.00021685762107372282
1772702693482642200,1.26764208984375,-0.004930296009033918,-0.0008703530937433242,0.011274842730164528
1772702693492692200,1.277692138671875,0.0023505086489021775,0.0021308745488524436,0.011191256099939345
1772702693502742300,1.2877421875,0.00739478642642498,0.012473989386856555,0.019253566524386406
1772702693512792000,1.2977919921875,0.01189209784567356,0.0013695347875356673,0.03374912486672401
1772702693522842000,1.307842041015625,0.017218553565442562,-0.006873100639879703,0.05024725520312786
1772702693532892200,1.31789208984375,0.029514263775944707,0.001007131215929985,0.046156186497211454
1772702693542942200,1.327942138671875,0.019234861823916434,0.012317629781365394,0.010892565414309502
1772702693552992000,1.337991943359375,-0.004162380376458168,0.007759528085589409,-0.0003857844471931457
1772702693563042000,1.3480419921875,-0.015113982501626013,-0.005088555310666561,0.00034720600247383117
1772702693573092000,1.358092041015625,-0.0064221420019865035,0.00577916792333126,0.025143209084868428
1772702693583142400,1.368142333984375,-0.007359130591154098,0.015908347749710082,0.02639759306013584
1772702693593192200,1.378192138671875,0.009887187764048577,-0.0007505261063575744,0.0014069441884756089
1772702693603242200,1.3882421875,0.012737901020050048,0.005567278738319873,-0.0017477204501628876
1772702693613291300,1.398291259765625,0.0017021277427673339,0.010113689996302128,-0.03338496772944927
1772702693623341300,1.40834130859375,0.005038140297681093,-0.00305471139550209,-0.008921557602286339
1772702693633391000,1.41839111328125,-0.01648629376813769,-0.0011263736814260481,0.012295417949557304
1772702693643441200,1.428441162109375,-0.014550503399968146,-0.001158230124413967,-0.017105448579788206
1772702693653491200,1.4384912109375,-0.013228753276914357,-0.0020195231288671492,0.012110709032416343
1772702693663541200,1.448541259765625,-0.001773877804726362,0.012831132261455058,0.051532618838548656
1772702693673591000,1.458591064453125,0.009142506876587866,0.011985621348023414,0.04038520188033581
1772702693683641000,1.46864111328125,0.03816723356992006,0.01665741255134344,0.0249310276389122
1772702693693691100,1.478691162109375,0.02740954658165574,-0.0040159576430916786,0.013638649252057074
1772702693703741400,1.488741455078125,-0.022847791624069212,-0.005706394948065281,-0.004099252012372017
1772702693713791200,1.498791259765625,-0.029983634853363035,-0.024092238727211952,0.007639116576313972
1772702693723841300,1.50884130859375,-0.04563654653728008,-0.023608839124441144,0.015067805272340773
1772702693733891300,1.518891357421875,-0.0200379949003458,-0.03501110762655735,0.0010135609567165373
1772702693743941400,1.52894140625,0.020124650270491838,-0.0016053893700242042,-0.010457096606492996
1772702693753991200,1.5389912109375,0.007022592113167047,0.0037643209695816036,-0.01056406411230564
1772702693764040200,1.549040283203125,-0.01541018896922469,-0.0024298574954271317,-0.016540800434350966
1772702693774090200,1.55909033203125,-0.03332651554048061,-0.0034019173979759213,-0.027392449316382406
1772702693784140000,1.56914013671875,-0.02766629782170057,-0.01583177538216114,0.0019353519767522811
1772702693794190000,1.579190185546875,-0.010951017603278159,-0.0085986092582345,0.03785363757610321
1772702693804240100,1.589240234375,-0.025576778196543453,-0.007314999188482761,0.053722237837314606
1772702693814290200,1.599290283203125,-0.00992225907742977,0.009597557167708872,0.09373977544903754
1772702693824340200,1.60934033203125,-0.0034087855301797388,0.031105916881561276,0.08444295479357242
1772702693834390300,1.619390380859375,0.006812018102407455,0.02929594485014677,0.058956631359457966
1772702693844440300,1.6294404296875,0.0008639233529567718,0.014216741400957108,-0.006661211454868316
1772702693854490400,1.639490478515625,-0.028725597616285084,0.000009936872124671935,-0.010123334607481957
1772702693864540200,1.6495400390625,-0.026186434527486563,0.0014005144476890562,0.011117606341838835
1772702693874590200,1.659590087890625,-0.01880582275688648,0.005189969858527183,-0.017096096229553222
1772702693884640300,1.66964013671875,-0.01393646315485239,-0.007015139459073543,-0.021916063731908797
1772702693894690300,1.679690185546875,0.025945465378463265,-0.016695698735117913,-0.026239187628030774
1772702693904739800,1.68973974609375,0.024490298134088515,-0.006803250274062156,-0.03275836026370525
1772702693914788600,1.69978857421875,0.024181670576333997,0.007872048549354076,-0.01810439648926258
1772702693924838700,1.709838623046875,0.02861760719716549,0.0359302682980895,-0.001173135432600975
1772702693934889000,1.719888916015625,0.028848054952174424,0.028854630823433397,0.02458849781155586
1772702693944938800,1.729938720703125,0.009395312593877315,0.011629647517204285,0.04366495420336723
1772702693954988800,1.73998876953125,-0.03264379397332668,0.041323359513282774,0.00850537801682949
1772702693965038800,1.750038818359375,-0.0434048419624567,0.03144932349175215,-0.005966799449920654
1772702693975089000,1.7600888671875,-0.013354571613669394,0.002110416282713413,-0.0008235913425683975
1772702693985138700,1.770138671875,-0.009000906448811291,-0.0006783376529812812,-0.010687982752919196
1772702693995188700,1.780188720703125,-0.012219137842953205,-0.01810439648926258,-0.0013519991308450698
1772702694005238800,1.79023876953125,-0.005669131677597761,-0.026170214045047758,0.00910100582242012
1772702694015288800,1.800288818359375,0.02323737546354532,-0.026778701332211493,0.01554419061243534
1772702694025338600,1.810338623046875,0.01159106907248497,-0.01588672043979168,0.02146890448629856
1772702694035388700,1.820388671875,0.00813420661687851,-0.020152561190724373,0.04031739734113216
1772702694045438700,1.830438720703125,-0.008769435780495405,0.006802373491227627,0.038783027380704875
1772702694055488800,1.84048876953125,-0.028439912542700767,0.022429273951053617,0.01745557719171047
1772702694065538600,1.85053857421875,-0.021512451367080212,0.01213613573461771,0.009987141007184982
1772702694075587800,1.860587890625,-0.027372429441660642,0.02608048993498087,0.012121814948320387
1772702694085638000,1.870637939453125,-0.03526420560479164,0.030909225265681742,0.011677578312158585
1772702694095688000,1.88068798828125,0.000391045144200325,0.028054420356452465,0.006496960803866386
1772702694105737700,1.89073779296875,0.02383110357299447,0.022815058398246765,0.005924129351973533
1772702694115787800,1.900787841796875,0.006717033295333385,0.0124175830245018,0.022553192591667173
1772702694125837800,1.910837890625,-0.001415127494931221,0.009171440710127354,0.014811200162768363
1772702694135888000,1.920887939453125,-0.0073173372760415075,0.01919716016203165,-0.018007365855574605
1772702694145937700,1.930937744140625,-0.020880875465273854,0.018986440020799637,0.0005289923101663589
1772702694155987700,1.94098779296875,-0.03679448391199112,0.011344693095982074,0.003232406049966812
1772702694166037800,1.951037841796875,-0.03822714706361294,0.010712532672286033,-0.011654781958460807
1772702694176087800,1.961087890625,-0.0022056933507323263,0.008611176478862762,-0.007690554502606391
1772702694186137600,1.9711376953125,-0.013646101906150579,0.00376665905714035,0.002236380749940872
1772702694196187600,1.981187744140625,-0.007540624637901783,-0.018353402814269063,0.02546995682120323
1772702694206237700,1.99123779296875,0.00243862532377243,-0.01788958469480276,0.02932078703045845
1772702694216287700,2.001287841796875,0.011834814700484276,-0.03005231617540121,0.031411037307977674
1772702694226336800,2.011336669921875,0.0014181962348520755,-0.006278641878068447,0.03424129229784011
1772702694236386800,2.02138671875,-0.018188275380432606,-0.006908464214205741,0.0083306059718132
1772702694246436900,2.031436767578125,-0.02142564986646175,-0.008487550099194049,0.011944704815745354
1772702694256486700,2.041486572265625,-0.024649872609972954,-0.0064472764432430265,0.022772388300299644
1772702694266536700,2.05153662109375,-0.012750760501623153,0.0038131285473704335,0.019883681121468544
1772702694276586800,2.061586669921875,0.024906769980490205,0.0005889058038592339,0.015921791753172872
1772702694286636800,2.07163671875,0.0135733289308846,-0.012264730550348758,0.013896423405408859
1772702694296686600,2.0816865234375,0.016478256592154503,-0.006617080052196979,0.01699555846452713
1772702694306736600,2.091736572265625,-0.005345160420238971,-0.005199322208762168,0.015081249275803565
1772702694316786700,2.10178662109375,-0.03379325626939535,0.008287351351976394,0.0033510639935731886
1772702694326836700,2.111836669921875,-0.020730507209151983,0.028669045123457908,0.0001017068088054657
1772702694336886500,2.121886474609375,-0.019525076942145822,0.019648995582759378,0.028948446586728096
1772702694346936600,2.1319365234375,-0.014053075271844863,0.014131985726952552,0.018148235630989072
1772702694356987000,2.14198681640625,0.02386485971212387,0.010386661718785762,0.006375964772701263
1772702694367037000,2.152036865234375,0.04460661896765232,0.012972586558759212,-0.011256138029694556
1772702694377085700,2.162085693359375,0.03892915785312653,-0.0015317396119236945,0.007703413984179497
1772702694387135700,2.1721357421875,0.018474398845434187,0.021631693832576272,0.005084171396493912
1772702694397185800,2.182185791015625,-0.0072777359180152415,0.003907528832554817,0.020400398471951485
1772702694407235800,2.19223583984375,-0.016036358043551444,-0.011415127983689308,0.03501110762655735
1772702694417285600,2.20228564453125,-0.03231733849793672,-0.006030220074951648,0.02435118192434311
1772702694427335700,2.212335693359375,-0.050970308780670166,-0.0008875964894890784,-0.015598551148176192
1772702694437385700,2.2223857421875,-0.03839724293351173,0.00410042105615139,-0.02620586988031864
1772702694447435800,2.232435791015625,-0.01378828685581684,0.003641571372747421,-0.01929331401288509
1772702694457485600,2.242485595703125,-0.010554711762070654,-0.03251256880909204,0.019933950003981588
1772702694467535600,2.25253564453125,0.012749153066426515,-0.01897621088773012,0.03782616504728794
1772702694477586000,2.2625859375,0.021450784307718275,-0.011149170523881912,0.03612754443585872
1772702694487636000,2.272635986328125,0.02248275770395994,-0.017543839997053147,0.07014321128427982
1772702694497685800,2.282685791015625,0.0016872224345803259,0.004885726214945316,0.059519525939226145
1772702694507735800,2.29273583984375,-0.006651566843688487,0.008649462662637233,0.032572482302784915
1772702694517785900,2.302785888671875,-0.03212064688205719,0.02003156515955925,0.008624035960435867
1772702694527834600,2.312834716796875,-0.02465337974131107,0.03193447666019201,-0.016623218020796776
1772702694537884700,2.322884765625,-0.0019061258822679519,0.028248481623828408,-0.023378537499904633
1772702694547934700,2.332934814453125,0.010230302113294601,0.021459259875118732,-0.012774725899100304
1772702694557984800,2.34298486328125,0.013912936148792505,0.023100305080413816,-0.01799509089589119
1772702694568034600,2.35303466796875,0.014744272406399249,0.001724339574575424,-0.003822773158550262
1772702694578084600,2.363084716796875,-0.003827303203195333,-0.013523206178843974,0.007907412123680114
1772702694588134700,2.373134765625,-0.010228986939042806,0.0074216744333505625,0.022076807251572607
1772702694598184700,2.383184814453125,-0.009208996241539716,-0.007363514505326747,0.013445172506570815
1772702694608234800,2.39323486328125,0.005402881956845521,0.005598258398473262,0.007977554750442505
1772702694618284800,2.403284912109375,0.027256255716085434,0.010078326421976088,-0.012250409764051437
1772702694628334800,2.4133349609375,0.022657237488031386,0.018353987336158752,-0.0054810617595911024
1772702694638385000,2.423385009765625,0.029437691408395767,0.008896130900084972,0.013987024298310278
1772702694648434700,2.4334345703125,0.01797930880486965,0.03153875534087419,0.012892799320816993
1772702694658484700,2.443484619140625,0.00770458302795887,0.019431261178851127,0.03804360719025135
1772702694668534800,2.45353466796875,0.009894786548614502,0.016393500918149947,0.02762976520359516
1772702694678583800,2.463583740234375,0.012415391067415476,-0.0035325580403208733,0.013960136291384696
1772702694688633600,2.473633544921875,-0.00837561415731907,-0.02149491571038961,-0.0001391162097454071
1772702694698683600,2.48368359375,0.005722030908614397,-0.007668050409853458,0.009925766208767891
1772702694708733700,2.493733642578125,0.032348172027617694,0.005031272165477276,0.02158697790801525
1772702694718783700,2.50378369140625,0.04026552102342248,0.016826631638407707,0.0025075989067554474
1772702694728833800,2.513833740234375,0.027629326812177894,0.02075608004182577,0.0003477905243635177
1772702694738883800,2.5238837890625,0.001751227581501007,0.01733662698715925,0.011150924089550972
1772702694748934000,2.533933837890625,-0.0018884440951049326,0.016211422349512575,0.008418868777155876
1772702694758984000,2.54398388671875,0.01497968859747052,0.009720891286432743,0.0029874913781881333
1772702694769033700,2.55403369140625,0.015776976455003023,0.02120966902822256,0.029018004691600797
1772702694779083800,2.564083740234375,0.027240473625063894,0.01296528003513813,0.03445931896269321
1772702694789133800,2.5741337890625,0.025778584378957747,0.005380231733620166,0.008445756784081458
1772702694799184000,2.584183837890625,0.01629267089217901,0.008001812408864498,0.027815058642625807
1772702694809233700,2.594233642578125,0.01163812308460474,0.011342355008423328,0.007062193471193313
1772702694819283700,2.60428369140625,0.009810030874609946,0.011548106713593005,-0.011349077010154723
1772702694829332700,2.614332763671875,0.015457681372761725,0.0059910571083426475,-0.020182956328988075
1772702694839382500,2.624382568359375,0.015205752438306807,0.000007598784565925598,-0.011748889982700347
1772702694849432800,2.634432861328125,0.02116802184358239,-0.0007478957578539848,0.005385784691572189
1772702694859483000,2.64448291015625,0.03061959466934204,0.008149111925065518,0.014563362881541251
1772702694869533000,2.654532958984375,0.021660627666115758,-0.0010214520022273064,0.039298575687408445
1772702694879582700,2.664582763671875,0.013973580294847488,-0.012987784127891063,0.026388240709900854
1772702694889632800,2.6746328125,0.0026049218013882635,0.014326046994328498,0.025251345634460447
1772702694899682800,2.684682861328125,-0.002395370703935623,0.016391747352480886,0.010092939469218253
1772702694909733400,2.6947333984375,0.029389760613441465,0.008049158681929111,-0.0032739071041345594
1772702694919783400,2.704783447265625,0.022910919988155365,0.0024777882903814314,0.004080547311902046
1772702694929833500,2.71483349609375,0.010371756410598754,0.0036374797195196148,0.01130523786842823
1772702694939883300,2.72488330078125,0.009580606032907963,0.0056081952705979345,0.01339139649271965
1772702694949933300,2.734933349609375,0.010211012890934944,-0.011616495774686335,0.04260872314870357
1772702694959983400,2.7449833984375,0.007908581167459487,0.005144669412076473,0.0332704014390707
1772702694970033400,2.755033447265625,0.008177022845298051,0.00954670376330614,-0.0022609306693077086
1772702694980083200,2.765083251953125,-0.01698854420185089,0.003190612734854221,-0.018607085314393042
1772702694990132200,2.77513232421875,-0.026346739655733108,0.00011135141998529433,-0.019036124381422995
1772702695000182300,2.785182373046875,-0.02681201907992363,0.007950082221627235,-0.0009492635488510131
1772702695010232600,2.795232666015625,0.012505261307954787,0.008262801432609558,0.021412790384888646
1772702695020282400,2.805282470703125,0.021371581591665745,-0.001606266152858734,0.05408347236514091
1772702695030332400,2.81533251953125,0.018996376892924306,0.007244272039830684,0.037165655311942096
1772702695040382500,2.825382568359375,0.004369885647296905,-0.006805296100676059,0.025641806256771087
1772702695050432500,2.8354326171875,-0.02340878650769591,0.02731909181922674,0.030112814190983772
1772702695060482300,2.845482421875,-0.021621172438561913,0.03702420101463794,0.009870821151137351
1772702695070532400,2.855532470703125,-0.01849310354590416,0.031662966242432596,0.00978197382390499
1772702695080582400,2.86558251953125,0.0033726913034915922,0.02503916418850422,-0.0003127192109823227
1772702695090632400,2.875632568359375,-0.002838438296318054,-0.002284311544895172,0.0006277765095233917
1772702695100682200,2.88568212890625,-0.016200462564080954,-0.022926409818232057,-0.007198971593379974
1772702695110732300,2.895732177734375,-0.024912761329859492,-0.02093874313235283,-0.005695581293106078
1772702695120782300,2.9057822265625,-0.0021129005007445812,-0.024018004447221755,-0.0009054244071245193
1772702695130832400,2.915832275390625,0.0012340718396008014,-0.025582185024023055,0.011118190863728523
1772702695140881400,2.92588134765625,-0.0006306991189718247,-0.025191724401712415,0.04266366820633411
1772702695150931500,2.935931396484375,-0.0011555997759103774,0.007696107460558414,0.05972235503494739
1772702695160981500,2.9459814453125,-0.006226619429886341,-0.0009551087677478789,0.04090425731837749
1772702695171031300,2.95603125,-0.01907820995748043,0.007474573664367198,0.02703238383233547
1772702695181081300,2.966081298828125,-0.0421194783270359,0.014138999989628791,0.0322726225733757
1772702695191131400,2.97613134765625,-0.03323299203813076,0.021794190917909143,0.01144026242494583
1772702695201181400,2.986181396484375,-0.0075111062824726104,0.009823182617127895,-0.009103928431868552
1772702695211231200,2.996231201171875,0.019390490777045487,0.013813713558018206,0.00265606746673584
1772702695221281300,3.00628125,0.022779987084865568,0.011246201157569885,0.004521276816725731
1772702695231331300,3.016331298828125,0.01485883869677782,-0.014307926815748214,0.0023667291313409803
1772702695241381400,3.02638134765625,-0.0007058101817965508,-0.010480769743025302,0.0014864391654729843
1772702695251431200,3.03643115234375,0.0015875614523887633,-0.001149170035123825,0.025301614516973495
1772702695261481200,3.046481201171875,-0.008891746985912323,0.033651801972091194,0.022944822257757187
1772702695271531300,3.05653125,-0.01565671107620001,0.024982173304259777,0.014487375035881996
1772702695281581300,3.066581298828125,-0.02110036343485117,0.014545827224850654,-0.006861702463030815
1772702695291631000,3.076631103515625,-0.011186579924821853,0.028080139319598674,-0.009963175609707832
1772702695301680400,3.086680419921875,0.025655396390706298,0.025741759499907493,0.00497837293446064
1772702695311730400,3.09673046875,0.038590865809470416,0.030951310841739178,0.011297054561972617
1772702695321780500,3.106780517578125,0.02158537047281861,0.019985680191218852,0.023050620719790457
1772702695331830300,3.116830322265625,0.020486323189735412,0.016451953107118604,-0.0040618426114320755
1772702695341880300,3.12688037109375,0.002905804444104433,0.01248947921693325,0.00873626416325569
1772702695351930400,3.136930419921875,-0.027519875088334082,0.015868600261211393,-0.011208791756629944
1772702695361980400,3.14698046875,-0.0035001170754432676,0.01950958711206913,-0.026693945658206937
1772702695372030200,3.1570302734375,0.019232523736357688,0.022168869449198245,0.001645429119467735
1772702695382080300,3.167080322265625,0.022753099077939987,0.015791443371772764,-0.0013169278174638747
1772702695392130300,3.17713037109375,0.023187691102921962,0.018380290821194648,0.015371756654977798
1772702695402180400,3.187180419921875,0.026148586735129355,0.015861293737590314,0.018572014001011848
1772702695412230100,3.197230224609375,0.02836582439318299,0.021978899835050105,0.012671265524625778
1772702695422280200,3.2072802734375,0.013228607146441937,0.010929974815249443,0.005868015250563621
1772702695432330500,3.21733056640625,0.011794628820568323,0.021512451367080212,0.016637246546149252
1772702695442380500,3.227380615234375,-0.00818316032513976,0.03342588426172733,0.00751285984814167
1772702695452429300,3.23742919921875,-0.006779284876585006,0.011074059461057186,0.01161503446996212
1772702695462479400,3.247479248046875,0.00548529954329133,0.026942367461323738,0.0017477204501628876
1772702695472529400,3.257529296875,0.012571896803379059,0.001806464900076389,0.010177110621333122
1772702695482579200,3.2675791015625,0.024134908825159073,0.0025531916141510007,-0.006235094997286797
1772702695492629200,3.277629150390625,0.012389525973796844,0.008532266023755073,-0.01588496687412262
1772702695502679300,3.28767919921875,0.007052841120958328,0.008967442570626736,0.020509704065322876
1772702695512729300,3.297729248046875,-0.010245791943371295,0.005587444743514061,0.0059235448300838465
1772702695522779100,3.307779052734375,-0.0025181203007698058,0.020073650735616684,-0.011341478225588798
1772702695532829200,3.3178291015625,-0.001931260323524475,0.011999357612431049,-0.00577916792333126
1772702695542879200,3.327879150390625,0.012105594465881586,0.013205810792744159,0.02867547486424446
1772702695552929300,3.33792919921875,0.029047815307974813,-0.0021288287222385404,0.03153963212370872
1772702695562979300,3.347979248046875,-0.013958967247605323,0.005503858113288879,0.03614741818010807
1772702695573029400,3.358029296875,-0.013467384338378905,-0.0068313073247671125,0.0020218612164258957
1772702695583079400,3.368079345703125,-0.015907763227820396,0.0032160394370555874,-0.005516133072972297
1772702695593129500,3.37812939453125,0.022638532787561415,0.0009200374543666839,0.000834112736582756
1772702695603179500,3.388179443359375,0.01593114410340786,0.008527882109582424,0.022796353697776793
1772702695613228300,3.398228271484375,0.02406885785162449,0.0061722588941454885,0.04319441408216953
1772702695623278300,3.4082783203125,0.010542436802387237,-0.004962006321549415,0.03497136013805866
1772702695633328400,3.418328369140625,-0.00902735606431961,-0.007131459315121174,0.04031622829735279
1772702695643378200,3.428378173828125,-0.0057819444023072715,-0.015394845269620417,0.0216109433054924
1772702695653428200,3.43842822265625,-0.015938450627028942,-0.006177519591152668,-0.0032359131813049316
1772702695663478300,3.448478271484375,-0.0057446811318397515,-0.02518763274848461,-0.009285714739561081
1772702695673528300,3.4585283203125,-0.007961042007058858,0.003406593573093414,-0.018055881172418593
1772702695683578400,3.468578369140625,0.005040332254767418,-0.011486147393286227,0.021419804647564888
1772702695693628400,3.47862841796875,0.011695698490738869,0.0007414660170674324,0.02691080327928066
1772702695703678500,3.488678466796875,0.013166355565190314,-0.015496844339370727,0.029468671068549154
1772702695713728500,3.498728515625,0.009976035091280937,0.0019897125124931333,0.052639118775725365
1772702695723778300,3.5087783203125,0.005426993484795094,-0.0016477672070264815,0.05651625247001647
1772702695733828400,3.518828369140625,-0.019516601374745368,0.011339432398974895,0.037197219493985176
1772702695743878400,3.52887841796875,-0.01586450860798359,0.030038579910993575,0.03449965097308159
1772702695753928400,3.538928466796875,-0.016460720935463906,0.030558804392814633,0.012309446474909782
1772702695763978200,3.548978271484375,-0.012406769369542598,0.0132432201936841,-0.019781974312663077
1772702695774027300,3.55902734375,-0.0008887655332684517,-0.012114216163754462,-0.01833703620135784
1772702695784077300,3.569077392578125,-0.0006054185472428798,-0.019931904177367687,0.0024327801048755642
1772702695794127000,3.579127197265625,0.0036867256887257098,-0.0245300456225872,-0.002303016245365143
1772702695804177400,3.589177490234375,0.006813771668076515,-0.03117196785509586,0.003417699488997459
1772702695814227500,3.5992275390625,0.010810147827863693,-0.03804448397308588,0.006611527094244956
1772702695824277500,3.609277587890625,-0.00017696400210261343,-0.031194179686903953,0.019874328771233556
1772702695834327300,3.619327392578125,0.01381488260179758,-0.03341916225999594,0.044776714837551114
1772702695844377300,3.62937744140625,-0.01760375349074602,-0.0073369187593460075,0.0687935502409935
1772702695854427400,3.639427490234375,-0.01148629352375865,-0.004084346704185009,0.04896715226471424
1772702695864477400,3.6494775390625,-0.01420095930993557,0.019443828399479387,0.049019174712896345
1772702695874527500,3.659527587890625,-0.012366729620099067,0.027096681240200995,0.023550386935472487
1772702695884577300,3.669577392578125,-0.016707243042439222,0.014434183543920516,0.019296236622333526
1772702695894627300,3.67962744140625,0.02635609200596809,0.012633271601796149,0.014661562559008598
1772702695904677400,3.689677490234375,0.036244741074740884,0.025061083759367466,-0.005446574968099594
1772702695914727400,3.6997275390625,0.011266659423708915,0.013650339689850806,0.017482465198636055
1772702695924776200,3.709776123046875,0.011368950754404068,0.0012760112851858138,0.016190087300539016
1772702695934826500,3.719826416015625,0.0022891338504850865,-0.0013797639206051826,-0.008607084825634955
1772702695944876500,3.72987646484375,-0.015220803876966237,0.016225450874865054,-0.013403086930513381
1772702695954926300,3.73992626953125,-0.000035509704798460006,0.019829612846672534,-0.001689268261194229
1772702695964976400,3.749976318359375,-0.0004693710774183273,0.027013971392810344,0.00817863028049469
1772702695975026400,3.7600263671875,0.011764818204194307,0.02772825714200735,0.010936404556035995
1772702695985076500,3.770076416015625,0.009728343940526246,0.02833557538539171,0.014953238981962203
1772702695995126300,3.780126220703125,0.004932195705175399,0.016411036574840544,-0.0005231470912694931
1772702696005176300,3.79017626953125,0.00798339996933937,0.017209201215207574,-0.00608545739352703
1772702696015226400,3.800226318359375,0.02078442935347557,0.02336772384494543,0.012099018594622611
1772702696025276400,3.8102763671875,0.02342471472918987,0.013267477852106094,0.02333060670495033
1772702696035326200,3.820326171875,0.01674012239873409,0.043803778152167794,0.004382160606980323
1772702696045376300,3.830376220703125,0.004576952526718378,0.025280571728944778,0.009939794734120369
1772702696055426300,3.84042626953125,-0.022266776865720747,0.009414894077181815,-0.003987023809552193
1772702696065476400,3.850476318359375,-0.018221300867199898,0.022257424515485763,-0.018785364490747452
1772702696075526100,3.860526123046875,-0.00029050737917423245,0.025941665986180303,-0.006911971345543861
1772702696085575400,3.870575439453125,-0.0060930561780929565,0.0015437223106622695,0.020488076755404473
1772702696095625500,3.88062548828125,0.0062295420393347735,0.0037339258313179016,0.03077683105766773
1772702696105675300,3.89067529296875,0.01500263108164072,0.03511836739331484,0.016181903994083403
1772702696115725300,3.900725341796875,0.0270224469602108,0.051553077104687685,0.011605682119727134
1772702696125775400,3.910775390625,0.02664966812506318,0.05453764587342739,-0.006435001483559608
1772702696135825400,3.920825439453125,0.003088321404159069,0.04435352098941803,-0.02782441099286079
1772702696145875500,3.93087548828125,-0.006093640699982643,0.03157148856669664,-0.017309446719288826
1772702696155925200,3.94092529296875,-0.026346739655733108,0.016820494158565995,-0.011354337707161903
1772702696165975300,3.950975341796875,-0.026554244926571845,0.011233049415051936,-0.008944353955984115
1772702696176025300,3.961025390625,0.009176701407134532,0.0017354454904794693,-0.018507716593146324
1772702696186075400,3.971075439453125,0.03890022401958704,0.016654489941895008,0.013095628416538238
1772702696196125200,3.981125244140625,0.03353139046281576,0.004083177660405636,0.014870821395516395
1772702696206175200,3.99117529296875,0.02557005619481206,0.02960866406112909,0.017567220872640607
1772702696216225300,4.001225341796875,0.014918167668581008,0.03510580017268657,0.009308511093258857
1772702696226275300,4.011275390625,-0.023892770632356404,0.0007999182060360908,0.009588497078418731
1772702696236325400,4.021325439453125,-0.027301702293008566,0.010322072049975395,0.029292729979753494
1772702696246374400,4.03137451171875,-0.025858956138789652,0.025066344456374644,0.010185293927788735
1772702696256424400,4.041424560546875,-0.008897446074336767,0.015105799195170402,0.017731471523642538
1772702696266474200,4.05147412109375,0.008705430633574724,-0.000905132146179676,0.0172626849681139
1772702696276524300,4.061524169921875,0.012021423313766717,-0.024192191970348356,-0.014617723417282104
1772702696286574300,4.07157421875,0.024137831434607505,-0.004114449581503868,0.008770750954747199
1772702696296624400,4.081624267578125,0.008075316036492586,0.00815115775167942,0.019760347002744674
1772702696306674200,4.091674072265625,0.0005076572611927986,-0.0012149287477135659,0.03842120833098888
1772702696316724200,4.10172412109375,-0.009798924958705902,-0.003868365865945816,-0.006639584144949913
1772702696326774300,4.111774169921875,-0.012471943560242652,-0.008395487901568412,-0.03628828795552254
1772702696336824300,4.12182421875,0.013356617440283297,0.001450198808312416,-0.017330489507317543
1772702696346874000,4.1318740234375,-0.008022270675003529,-0.004081131833791733,0.00656301177740097
1772702696356924400,4.14192431640625,-0.018916297394037246,-0.0106900285795331,-0.006868716725707054
1772702696366974500,4.151974365234375,-0.010526946972310542,0.00253624047935009,-0.006691022071242332
1772702696377024500,4.1620244140625,0.004455810365080833,0.0047153380841016765,0.04123042053282261
1772702696387074300,4.17207421875,-0.008392565292119979,0.016772271102666853,0.05806991165280342
1772702696397123300,4.182123291015625,-0.001699643524736166,0.02233107427358627,0.030166590204834937
1772702696407173400,4.19217333984375,0.023714637586474418,0.02179039152562618,0.0007733224600553512
1772702696417223400,4.202223388671875,0.023904607200622558,-0.000045300446450710294,0.002570142748951912
1772702696427273200,4.212273193359375,0.003238251268863678,-0.02543079385459423,0.006889174991846084
1772702696437323300,4.2223232421875,-0.013280921855568884,-0.012981062126159668,0.02595978616476059
1772702696447373300,4.232373291015625,-0.040866847917437554,-0.021782792741060257,0.021092472389340398
1772702696457423400,4.24242333984375,-0.033033085551857945,-0.04150193095058202,0.021378303593397138
1772702696467473200,4.25247314453125,-0.005525485423207283,-0.025809564039111135,0.005339022940397262
1772702696477523200,4.262523193359375,-0.02737491365969181,-0.013957213681936264,-0.012281389424204826
1772702696487573500,4.272573486328125,-0.044739159306138754,-0.02689034501314163,-0.03065583502650261
1772702696497623600,4.28262353515625,-0.05195639720857143,-0.027269991980493066,-0.027006664869189262
1772702696507673300,4.29267333984375,-0.03131576023995876,-0.026467151165008543,0.008107903131842613
1772702696517723400,4.302723388671875,-0.02356310028657317,-0.02075958717316389,0.0249789584338665
1772702696527773400,4.3127734375,-0.01853577364385128,-0.010055237807333469,0.04358312113881111
1772702696537823500,4.322823486328125,-0.008590718212723732,-0.007209492987394333,0.059172904458642005
1772702696547873300,4.332873291015625,-0.005953939968347549,-0.0012310030996799469,0.0595084200233221
1772702696557922300,4.34292236328125,-0.004105681753158569,0.0277826176777482,0.07024784070253372
1772702696567972400,4.352972412109375,-0.017528934688866137,0.025671909134089944,0.0270528420984745
1772702696578022100,4.363022216796875,-0.0138379712164402,0.0034793665483593937,-0.029835166293382644
1772702696588072200,4.373072265625,-0.015413257709145546,-0.004606617012619972,-0.028076924449205398
1772702696598122200,4.383122314453125,-0.025390461844205854,0.017359131079912184,-0.024430092379450798
1772702696608172500,4.393172607421875,-0.016999650117754936,0.013371230487525462,-0.02719137378633022
1772702696618222300,4.403222412109375,-0.010304536393284797,-0.0047851884499192235,-0.028707039046287536
1772702696628272400,4.4132724609375,0.010376578716188668,-0.01179886660426855,-0.035735330247879026
1772702696638322400,4.423322509765625,0.04315262076705694,0.0053504211172461505,-0.03723462889492511
1772702696648372500,4.43337255859375,0.050145694524794816,0.02284019283950329,-0.005463526102900505
1772702696658422300,4.44342236328125,0.02901274399459362,0.012194880184531211,0.03772504276037216
1772702696668472300,4.453472412109375,0.011165537136793136,0.025540391708910464,0.03661503569185733
1772702696678522400,4.4635224609375,-0.0007268529698252678,0.032335166415572165,0.031178982117772102
1772702696688572400,4.473572509765625,-0.04319675216972828,0.012478373301029204,0.01695288836658001
1772702696698622200,4.483622314453125,-0.027743162450194356,0.008191197501122951,-0.013089783197641373
1772702696708672300,4.49367236328125,-0.0010690905362367629,0.017284896799921987,0.007858896806836128
1772702696718722300,4.503722412109375,0.02773293331712484,0.018498364242911337,0.01668926899433136
1772702696728771300,4.513771240234375,0.03937646322920918,0.04260843088775873,-0.013230652973055838
1772702696738821400,4.5238212890625,0.04678600883334875,0.05227379259467125,-0.01793313157558441
1772702696748871400,4.533871337890625,-0.0012403554499149322,0.02508183428645134,0.013389058405160904
1772702696758921500,4.54392138671875,-0.03178571583926677,-0.023177169708907604,0.020699673679471016
1772702696768971500,4.553971435546875,-0.028951807587593793,-0.018826865544915198,-0.009914660292863845
1772702696779021300,4.564021240234375,0.009437105908989905,0.009650748659670352,0.01146247425675392
1772702696789071400,4.5740712890625,0.029046938525140283,0.019418401697278022,0.029812369939684866
1772702696799121400,4.584121337890625,-0.008376783201098442,0.01892915687561035,0.0047129999965429305
1772702696809171500,4.59417138671875,-0.012878478534519672,0.033251988999545574,-0.01100245552957058
1772702696819221200,4.60422119140625,-0.012925970938056707,0.03621346915364265,0.007294833183288574
1772702696829271300,4.614271240234375,-0.006093494569510221,0.029651041898131367,0.0033966567009687423
1772702696839321300,4.6243212890625,-0.007666004583239555,0.015510580603778362,0.018209610429406164
1772702696849371400,4.634371337890625,-0.006451368096470832,0.007974632140994071,0.02386310614645481
1772702696859421200,4.644421142578125,0.005703764599561691,-0.0009217910200357436,0.03042611792385578
1772702696869471200,4.65447119140625,0.00672375529706478,-0.011983283260464668,0.020062544819712636
1772702696879520500,4.6645205078125,0.024482991610467433,0.012200433142483234,0.021211130332946776
1772702696889570300,4.6745703125,-0.0014870236873626708,0.009984218397736548,0.001177227085828781
1772702696899620400,4.684620361328125,0.017758651791512967,0.01181844808757305,0.00438449869453907
1772702696909670100,4.694670166015625,0.0170621939599514,-0.0015045593440532684,0.004632920497655868
1772702696919720200,4.70472021484375,0.0034621231526136397,0.003200841867923736,0.009321955096721648
1772702696929770000,4.71477001953125,0.007031213811039924,-0.00423895274400711,0.01638824022114277
1772702696939820000,4.724820068359375,-0.004841010290384292,-0.0018058803781867026,0.021674656191468238
1772702696949870000,4.7348701171875,0.011165683267265558,0.00994359412640333,0.035030981370806694
1772702696959920000,4.744920166015625,0.022001988449692724,-0.015485153901576995,0.028349311649799345
1772702696969970000,4.754969970703125,0.02013911718726158,-0.018346096290647984,0.03128770318925381
1772702696980020000,4.76502001953125,0.02324789685755968,-0.033057927732169624,0.05103694427609443
1772702696990070000,4.775070068359375,0.014224486315995453,-0.0015390461355447769,0.03310089009106159
1772702697000120000,4.7851201171875,0.03143573335781693,0.02072217777222395,0.007941898915171624
1772702697010169900,4.795169921875,0.012083382634073495,0.000694119744002819,-0.0016617957323789595
1772702697020220200,4.80522021484375,-0.010061959809064864,0.0017836685463786125,0.0013946692287921906
1772702697030270200,4.815270263671875,-0.018722820648550985,0.00632861849963665,-0.02868891886770725
1772702697040319200,4.8253193359375,-0.0058732759475708,0.00838467424660921,0.001900280663371086
1772702697050369000,4.835369140625,0.01909165396094322,0.027097558023035526,0.01326455524265766
1772702697060419000,4.845419189453125,0.03108575087636709,0.010494506007432937,0.002731470790505409
1772702697070469000,4.85546923828125,0.07223828386738895,0.007746084082126617,0.009517185407876967
1772702697080519200,4.865519287109375,0.06498246752023697,0.0025599136158823968,0.019944471397995947
1772702697090569000,4.87556884765625,0.04379764067232608,0.0009799509480595589,0.03666647361814976
1772702697100619000,4.885618896484375,0.006092617786675691,0.008029284937679767,0.021377134549617767
1772702697110669000,4.8956689453125,-0.013192805180698632,-0.012596446722745895,0.01480477042198181
1772702697120719000,4.905718994140625,-0.013920973324775696,-0.004136369152367115,-0.006122866794466972
1772702697130769000,4.915768798828125,0.010877367845177649,-0.007445055308938026,-0.01255962184369564
1772702697140819200,4.925819091796875,0.01536313495710492,-0.008478197748959065,-0.0007043488770723343
1772702697150869200,4.935869140625,0.007854220631718634,-0.021501345451176164,0.02523731710910797
1772702697160919300,4.945919189453125,0.02815086646825075,-0.009690203887224197,0.028985855987668036
1772702697170969000,4.955968994140625,0.0020785598397254942,-0.010467618000507354,0.055284080326557156
1772702697181019100,4.96601904296875,-0.024114742819964886,-0.006364566595852375,0.05274725532531738
1772702697191069200,4.976069091796875,-0.02505553080141544,0.02088759746700525,0.024186346751451492
1772702697201118000,4.986117919921875,-0.04064151472896337,0.0005783844098448753,0.02105857011973858
1772702697211168000,4.99616796875,-0.015477993508428335,-0.0035071313381195065,0.0170534261316061
1772702697221218000,5.006218017578125,0.009907207638770342,0.011964578559994696,0.0236368961751461
1772702697231268000,5.01626806640625,0.015885405265539883,0.0012564298018813132,0.02727905206978321
1772702697241318000,5.02631787109375,0.004433744663745165,0.009868190802633762,0.014732289707660674
1772702697251368000,5.036367919921875,0.019659370846301316,0.010963292562961578,0.007516366979479789
1772702697261418000,5.04641796875,0.026392916885018346,0.011669979527592658,0.030099370187520978
1772702697271468300,5.05646826171875,0.01508797127753496,0.004437690186500549,0.001974514943361282
1772702697281518000,5.06651806640625,0.0047078854300081725,0.00047609307914972304,-0.002144610813260078
1772702697291568000,5.076568115234375,-0.001979044988006353,0.016496084509789944,-0.003073416095972061
1772702697301618200,5.0866181640625,-0.030983167284727095,0.017149872243404387,-0.019107436051964757
1772702697311668200,5.096668212890625,-0.02128872561380267,0.02056055746972561,-0.02119008754491806
1772702697321718000,5.106718017578125,-0.019345190330594775,0.03109101157337427,-0.0062111295998096465
1772702697331768000,5.11676806640625,0.00480886158645153,0.019674130024015902,0.001491115340590477
1772702697341818000,5.126818115234375,0.010489245310425757,0.01720423277914524,0.013850246176123618
1772702697351868200,5.1368681640625,0.0445430522121489,0.006598375351727009,0.00781739575266838
1772702697361917000,5.1469169921875,0.046618543311953545,0.004778758709132671,0.01712707588970661
1772702697371967000,5.156967041015625,0.01856149260699749,0.004232815264165401,0.011814356434345245
1772702697382017000,5.16701708984375,-0.011181319227814674,0.020607026959955692,0.002791676545143127
1772702697392067000,5.177067138671875,-0.021476503270864485,0.025394261236488816,0.0022252748340368268
1772702697402117000,5.1871171875,-0.0286170226752758,0.028052082268893715,-0.019209142860770224
1772702697412167200,5.197167236328125,-0.015023381608724594,0.013858137221634387,-0.00739127929508686
1772702697422217200,5.20721728515625,0.0025265958681702613,0.018866028511524198,0.014810615640878676
1772702697432267300,5.217267333984375,0.017911504265666008,0.02126753669530153,0.03155775230228901
1772702697442317000,5.227317138671875,0.015619155544787645,-0.00009293898046016692,0.027907997623085976
1772702697452367000,5.2373671875,0.003115501672029495,-0.007168868716061115,0.022523966497182846
1772702697462417200,5.247417236328125,-0.017635025411844252,0.005978782148659229,0.010960369953513144
1772702697472467200,5.25746728515625,-0.016230127049982546,0.014548457573354243,0.014608955588936805
1772702697482517000,5.26751708984375,0.0004939209967851639,0.016026713432371616,-0.0021767595171928405
1772702697492567000,5.277567138671875,-0.01981061588525772,0.013197627486288548,-0.0031377135038375852
1772702697502617000,5.2876171875,-0.026970716772973535,0.015844634863734244,-0.010931728380918502
1772702697512667100,5.297667236328125,-0.024860154359787702,0.023424130207300185,-0.009229016116261481
1772702697522717000,5.307717041015625,-0.00510272996649146,0.013583704194426536,-0.0036877486020326614
1772702697532766200,5.31776611328125,0.00009235445857048034,0.0012798106774687765,0.018575521132349965
1772702697542816300,5.327816162109375,0.01738426552116871,0.007191372808814048,0.02195639574229717
1772702697552866000,5.337865966796875,0.02618015091717243,0.006780746181309223,0.02551788761615753
1772702697562916000,5.347916015625,0.005009352594614029,0.000982289035618305,0.008783610436320304
1772702697572966100,5.357966064453125,-0.0024959084689617156,0.004191314209997654,0.007262684479355811
1772702697583016200,5.36801611328125,-0.01796148088723421,0.02126286052018404,0.014423662149906157
1772702697593066000,5.37806591796875,-0.013631050467491149,0.0205652336448431,0.0032078561305999755
1772702697603116000,5.388115966796875,-0.001146685817092657,0.0069265843927860254,-0.030879706910252568
1772702697613166000,5.398166015625,-0.010207944151014088,0.011622633254528045,-0.0322159239500761
1772702697623216000,5.408216064453125,0.0196295602299273,-0.013314531864225864,0.01772737987041473
1772702697633266000,5.418265869140625,0.023124270477890965,-0.02235737775862217,0.037598201510310174
1772702697643315200,5.428315185546875,0.03353694342076778,-0.024018296708166596,0.051315761217474935
1772702697653365200,5.438365234375,0.03166471980810165,-0.037520167838037015,0.03148234897851944
1772702697663415300,5.448415283203125,0.01798106237053871,-0.01237228257805109,0.011391162586212157
1772702697673465000,5.458465087890625,0.004283960929512978,0.0002966448590159416,0.002551438048481941
1772702697683515100,5.46851513671875,-0.029490298378467557,0.012703706489503383,0.019204466685652732
1772702697693565200,5.478565185546875,-0.031922493961453434,0.019521569810807705,-0.006180734461545944
1772702697703615200,5.488615234375,-0.01102116023004055,0.02725947058647871,0.006750058782100677
1772702697713665000,5.4986650390625,0.01581131711602211,0.005784720881283283,0.029646365723013875
1772702697723715000,5.508715087890625,0.023517215318232775,-0.023091537252068518,0.029285131195187566
1772702697733765000,5.51876513671875,0.02877951976060867,-0.01785772825181484,0.04534896176755428
1772702697743815200,5.528815185546875,0.01323883627951145,-0.002908580923080444,0.029588498055934904
1772702697753865000,5.538864990234375,-0.01428366915732622,0.02038753899037838,0.016219313395023346
1772702697763915000,5.5489150390625,-0.0027507600128650663,0.02376812133938074,0.0048000937581062315
1772702697773965000,5.558965087890625,0.011242840156704187,0.020272388178110123,-0.01239887832403183
1772702697784015000,5.56901513671875,0.004378653475642204,0.016023206301033495,-0.014822890600562095
1772702697794065000,5.57906494140625,-0.010209259325265884,0.001293254680931568,-0.021242694514989852
1772702697804115000,5.589114990234375,-0.01750759963989258,-0.012597323505580425,-0.015150222858786581
1772702697814164200,5.599164306640625,-0.010790566344559192,-0.012615735945105552,0.020391046121716497
1772702697824214000,5.609214111328125,-0.015880875220894812,-0.004563362392783165,0.038244682720303534
1772702697834264000,5.61926416015625,-0.0267436300188303,-0.012856266702711582,0.0251619137853384
1772702697844314000,5.629314208984375,-0.026163784304261205,-0.004064765220880508,0.029207389783859252
1772702697854364200,5.6393642578125,-0.026804274164885282,-0.004478314457833766,0.030984920850396155
1772702697864414000,5.6494140625,-0.024192045839875935,0.000533083963394165,0.0329436537027359
1772702697874464000,5.659464111328125,-0.005600158094614744,0.0033870120897889137,0.027450316983461377
1772702697884514000,5.66951416015625,0.01810264292359352,0.0042430443972349165,0.0069219082176685326
1772702697894564000,5.679564208984375,0.0014577975928783415,0.007281389179825782,0.01765080750286579
1772702697904614400,5.689614501953125,-0.009406564640253781,0.009326631271839142,0.00815115775167942
1772702697914664400,5.69966455078125,-0.01961421653032303,0.01899199297875166,0.0034440029740333555
1772702697924714500,5.709714599609375,-0.007029460245370865,0.02912380315363407,-0.018317162457108495
1772702697934764500,5.7197646484375,-0.007652998971194028,0.004679389987885952,-0.0301899710804224
1772702697944814300,5.729814453125,-0.008992869272828101,0.010343699359893798,-0.011698036578297615
1772702697954864400,5.739864501953125,-0.011739537632465363,0.0042681788384914396,-0.00966565396785736
1772702697964914700,5.749914794921875,0.009257657688856124,0.0060942252218723295,0.003996960681676864
1772702697974964700,5.75996484375,0.010308189655095338,0.0054030280873179435,-0.008747954601049423
1772702697985014500,5.7700146484375,0.029813100592046976,0.027469313944876193,0.01813011545240879
1772702697995064600,5.780064697265625,0.04326353379562497,0.016433540667593477,0.010801379999518393
1772702698005114600,5.790114501953125,0.010041209281980991,0.03655716802477836,0.0022796353697776793
1772702698015164700,5.80016455078125,-0.03260024709254503,0.03473170616328716,0.0030950434058904645
1772702698025214500,5.81021435546875,-0.0247075941465795,0.021043957072496414,0.012982815691828726
1772702698035264500,5.820264404296875,-0.01464490368515253,0.0028439912542700765,-0.0038730420410633083
1772702698045314600,5.830314453125,-0.015882628786563872,0.008019055804610252,-0.005145546194911003
1772702698055364600,5.840364501953125,-0.0008516483932733535,0.015616671326756476,0.019549334600567816
1772702698065413400,5.850413330078125,0.024723522368073462,0.022767712125182152,0.00007657236754894256
1772702698075463400,5.86046337890625,0.01574658131673932,0.0060460021659731866,-0.008251110994815826
1772702698085513500,5.870513427734375,0.008898176726698875,0.01806260317414999,-0.0006008885025978088
1772702698095563500,5.8805634765625,-0.003674889120459556,0.01051701010018587,0.009019757279753685
1772702698105613600,5.890613525390625,-0.015334931775927542,0.030881168214976787,-0.0026700959920883177
1772702698115663600,5.90066357421875,-0.006516250026226043,0.03427197969704866,0.001637245813012123
1772702698125713700,5.910713623046875,0.0029398528441786764,0.02225800903737545,0.021701544198393822
1772702698135763500,5.920763427734375,0.029486352855712175,0.012214169406890869,0.011191256099939345
1772702698145813500,5.9308134765625,0.023888532848656177,0.024131401693820952,0.011609189251065254
1772702698155863600,5.940863525390625,0.01984524880722165,0.01485007086843252,0.008917465949058533
1772702698165913600,5.95091357421875,-0.022667028229683635,0.028211364483833313,0.016882745739817618
1772702698175963400,5.96096337890625,-0.028314678727835416,0.006211714121699333,0.008037760505080222
1772702698186013400,5.971013427734375,-0.018446780186146497,-0.002182312475144863,0.013854922351241111
1772702698196063500,5.9810634765625,0.003288520151376724,-0.00008066402077674865,0.02967617633938789
1772702698206113500,5.991113525390625,0.010348960056900978,0.00967091466486454,0.01775660596489906
1772702698216163300,6.001163330078125,0.019287176533043383,-0.010621639518439769,0.04044833024442196
1772702698226213400,6.01121337890625,0.020730214948207138,0.0058443421140313145,0.021421558213233948
1772702698236262700,6.0212626953125,0.016598083579540252,0.004070025917887687,-0.008693009543418884
1772702698246312700,6.031312744140625,0.00966039327085018,0.005072773219645023,0.007776479220390319
1772702698256362500,6.041362548828125,-0.005075695829093456,0.005958616143465042,-0.016328034466505048
1772702698266412500,6.05141259765625,0.0023328268617391584,0.01746609858572483,0.007730301991105079
1772702698276462600,6.061462646484375,0.0002636193722486496,0.007231997080147266,0.016816110244393348
1772702698286512600,6.0715126953125,0.014956161591410637,-0.01890606826096773,0.015151976424455642
1772702698296562400,6.0815625,0.01462707576751709,-0.016790683542191983,0.016651859593391417
1772702698306612500,6.091612548828125,0.010416326204687356,-0.010136194089055061,-0.00442892235815525
1772702698316662500,6.10166259765625,0.039278263551741834,0.01248158817142248,0.03011982845366001
1772702698326712600,6.111712646484375,0.021578794601559637,0.013767244067788124,0.024710662886500357
1772702698336762400,6.121762451171875,0.012725041538476943,0.008042436680197716,-0.025621932512521744
1772702698346812400,6.1318125,0.00044599020183086393,0.005194646033644676,-0.022885201025009155
1772702698356862500,6.141862548828125,-0.03598185235485434,0.003997252942621708,0.01049041435420513
1772702698366912500,6.15191259765625,-0.041838907819986344,0.011235387502610683,0.013166940087080001
1772702698376962300,6.16196240234375,-0.022097850039601324,0.001744213318824768,0.028504794472455977
1772702698387012600,6.1720126953125,0.013336013043671846,-0.002742576706409454,0.04570376655459404
1772702698397062700,6.182062744140625,0.022847791624069212,-0.0038540450796484944,0.0521972202271223
1772702698407111400,6.192111328125,0.03207914582788944,-0.007832885582745074,0.031045126605033873
1772702698417161500,6.202161376953125,0.03216273245811462,-0.007700491374731063,0.017267945665121076
1772702698427211500,6.21221142578125,0.006311082842946052,0.01675122831463814,0.04135492369532585
1772702698437261600,6.222261474609375,-0.00961421604156494,0.014324293428659438,0.03434183006286621
1772702698447311400,6.232311279296875,-0.03922784853875637,0.0055181788995862,-0.003118424281477928
1772702698457361400,6.242361328125,-0.07163900279998779,-0.005395429302752017,-0.033226562297344206
1772702698467411500,6.252411376953125,-0.06568652413636446,-0.005778875662386417,-0.029935119536519048
1772702698477461500,6.26246142578125,-0.031175767247378826,-0.01626578288525343,-0.01095452473461628
1772702698487511300,6.27251123046875,-0.014930296497792005,-0.01787380260378122,0.02216740814447403
1772702698497561300,6.282561279296875,0.00048413025513291354,-0.019461948578059673,0.03903612535893917
1772702698507611400,6.292611328125,0.010844196227937936,-0.03471650859415531,0.048096799170970914
1772702698517661700,6.30266162109375,0.024290391647815702,-0.020418226389586923,0.0717167442113161
1772702698527711500,6.31271142578125,0.035495676273107526,-0.004840425768494605,0.06153671098053455
1772702698537761500,6.322761474609375,0.006022621290385723,0.030151977157592772,0.06293196473121643
1772702698547811600,6.3328115234375,-0.022944822257757187,0.004564239175617694,0.03494505665302276
1772702698557861600,6.342861572265625,-0.0323401348516345,0.01263590195029974,-0.013313070559501648
1772702698567911400,6.352911376953125,-0.0187613990932703,0.024774668033421036,-0.009085223731398582
1772702698577961500,6.36296142578125,-0.007686901240795851,0.013766367284953594,0.019863222855329512
1772702698588010500,6.373010498046875,0.015320757120102644,-0.02068769098073244,0.028742694881558416
1772702698598060500,6.383060546875,0.020945903525501488,-0.01370119309425354,0.0025426702201366423
1772702698608110300,6.3931103515625,0.03833236100375652,-0.008022270675003529,0.0007072714865207671
1772702698618160400,6.403160400390625,0.028583851058036087,0.003640694589912891,-0.015384031614661215
1772702698628210400,6.41321044921875,0.016448445975780487,0.0025841712743043897,-0.007767126870155334
1772702698638260500,6.423260498046875,-0.008776011651754378,0.019638181927800178,0.026698621833324433
1772702698648310500,6.433310546875,-0.01310293494015932,0.02523731710910797,0.03808978441953659
1772702698658360600,6.443360595703125,-0.017233458873629568,0.012522212442755698,0.011859364619851112
1772702698668410600,6.45341064453125,-0.009350012147426605,0.007943652480840682,0.00966039327085018
1772702698678460700,6.463460693359375,-0.023012334536015987,0.026947628158330916,-0.010035656324028969
1772702698688510500,6.473510498046875,-0.008423544952273368,0.004151566721498966,-0.019537644162774086
1772702698698560500,6.483560546875,0.004407879570126534,0.011793898168206213,-0.02078793648481369
1772702698708610600,6.493610595703125,0.00043722237348556514,0.004452303233742714,0.012138766083121299
1772702698718660600,6.50366064453125,0.0055693245649337765,-0.014490005384385584,0.012291910818219185
1772702698728710400,6.51371044921875,0.01410699741616845,-0.0003159340813755989,0.019547581034898755
1772702698738760400,6.523760498046875,0.012991729650646447,-0.004908522568643093,0.010616086560487747
1772702698748810500,6.533810546875,0.014460194768011568,0.010091185903549195,0.011084873116016388
1772702698758859500,6.543859619140625,0.0007043488770723343,0.02664689164608717,0.015231471401453017
1772702698768909600,6.55390966796875,-0.012090250766277313,0.03561901039183139,-0.002905658313632011
1772702698778959600,6.563959716796875,-0.02357113746255636,0.028311025466024875,-0.0034369887113571166
1772702698789009700,6.574009765625,-0.011591945855319499,0.039511926177144045,0.010394552764296532
1772702698799059500,6.5840595703125,-0.0022439795345067974,0.047831426233053205,0.020839958932995794
1772702698809109500,6.594109619140625,0.023936317513138055,0.025616087293624877,0.0020838205367326736
1772702698819159600,6.60415966796875,0.03996668420732021,0.019553718514740467,0.02739537192583084
1772702698829209600,6.614209716796875,0.04695055174529552,-0.0004331307202577591,0.024234862068295476
1772702698839259400,6.62425927734375,0.009731704941391944,0.008924772472679615,-0.014582067582011223
1772702698849309400,6.634309326171875,-0.025483839216083288,0.01578472137004137,-0.016104747104644775
1772702698859359500,6.644359375,-0.03233151315376162,0.016648060201108456,-0.02219137354195118
1772702698869409500,6.654409423828125,-0.045448330488801,0.021195932763814925,-0.016246785923838613
1772702698879459600,6.66445947265625,-0.025063714107871053,0.01562923854738474,-0.013227145841717719
1772702698889509400,6.67450927734375,-0.001703735177963972,-0.0053398997232317925,-0.008915712383389472
1772702698899559400,6.684559326171875,0.01447977625131607,-0.014607786545157432,0.010551204630732535
1772702698909609200,6.694609130859375,0.03175473617911339,-0.010277940647304057,0.03792845637798309
1772702698919659300,6.7046591796875,0.027199557092785834,-0.004141629849374294,0.037192543318867684
1772702698929708500,6.71470849609375,-0.0022369652718305585,0.013503916956484317,0.021426818910241126
1772702698939758300,6.72475830078125,-0.0158726919144392,0.005034194774925708,0.01812485475540161
1772702698949808400,6.734808349609375,-0.030917700833082196,0.005439852966368198,0.008798808005452156
1772702698959858400,6.7448583984375,-0.040761341716349125,0.0074365797415375705,-0.01356909114718437
1772702698969908500,6.754908447265625,-0.014483867904543877,0.014104513198137282,-0.02751519891321659
1772702698979958300,6.764958251953125,-0.008717559462785721,-0.014034662832319736,0.005385784691572189
1772702698990008300,6.77500830078125,0.007821633536368607,-0.014506079736351965,0.006631985360383987
1772702699000058400,6.785058349609375,0.010058452677726745,-0.0025900164932012555,0.028352234259247776
1772702699010108400,6.7951083984375,0.009095745125412941,-0.010072773464024066,0.03191372613310814
1772702699020158200,6.805158203125,0.0009225216723978518,-0.003168400903046131,0.0008072247296571731
1772702699030208300,6.815208251953125,-0.013155541910231112,-0.007556698989868164,-0.01830488749742508
1772702699040258300,6.82525830078125,-0.02849982603639364,-0.014726736749708652,0.014300328031182289
1772702699050308400,6.835308349609375,-0.02937675500139594,0.018394319346547127,0.04984393509924411
1772702699060358400,6.8453583984375,-0.013397826233506202,0.035737083813548086,0.03188625360429287
1772702699070408400,6.855408447265625,-0.012548515927791595,0.02244973221719265,-0.013123685467243193
1772702699080458500,6.86545849609375,0.007356207981705666,0.006726677906513214,-0.00038461540341377254
1772702699090508500,6.875508544921875,0.0013140052080154417,-0.0001543137788772583,0.017398878568410873
1772702699100558300,6.885558349609375,-0.017039689867198466,-0.020877660594880578,0.03256312995254993
1772702699110607400,6.895607421875,-0.04304360743463039,-0.01992956608980894,0.025805472385883328
1772702699120657400,6.905657470703125,-0.03456190255433321,-0.0273687761798501,-0.0011269582033157349
1772702699130707200,6.915707275390625,-0.02603986566364765,-0.03644406303912401,-0.0008685995280742645
1772702699140757200,6.92575732421875,0.0014203881919384001,-0.030045594173669813,-0.0018114333361387252
1772702699150807300,6.935807373046875,-0.008541472243517636,-0.035468788266181946,-0.01651800408065319
1772702699160857300,6.945857421875,-0.027475889816135166,-0.015707564480602742,-0.008560907596349716
1772702699170907400,6.955907470703125,-0.032735856170952315,-0.02252981171607971,-0.007784662526845932
1772702699180957400,6.96595751953125,-0.019927228002250195,-0.02773176427334547,0.02563946816921234
1772702699191007500,6.976007568359375,-0.012274959683418274,-0.016331249336898324,0.04160568358600139
1772702699201057500,6.9860576171875,0.014378069442510605,0.007139058099687099,0.06916647520661354
1772702699211107600,6.996107666015625,0.025784575728327035,0.017568389916419982,0.07667465887963772
1772702699221157400,7.006157470703125,-0.014926789366453886,0.03299421484619379,0.046592824348807335
1772702699231207400,7.01620751953125,-0.017350363251566886,0.016805881111323834,-0.0016220482438802717
1772702699241257500,7.026257568359375,0.0016606266885995863,0.016541677217185496,-0.025793197426199913
1772702699251307500,7.0363076171875,0.01992708187177777,0.02512391986250877,-0.027763036194443702
1772702699261357300,7.046357421875,0.008942600390315055,0.031655075196921824,-0.011877484798431396
1772702699271407400,7.056407470703125,-0.013729834666848182,0.011520634184777737,-0.01936754829287529
1772702699281456400,7.066456298828125,-0.02371039980277419,-0.009056874419748782,-0.0340764571249485
1772702699291506200,7.076506103515625,0.0037603754468262195,0.0022770050212740896,-0.024062428110837936
1772702699301556200,7.08655615234375,0.046765404436737296,0.019912322694063185,-0.008056465205550194
1772702699311606500,7.0966064453125,0.06407032111138106,0.014836334604024887,0.007981646403670311
1772702699321656600,7.106656494140625,0.0385468805372715,0.004551087433099747,0.029148353073000906
1772702699331706400,7.116706298828125,0.02077741509079933,0.005918868654966354,0.04148994825184345
1772702699341756400,7.12675634765625,0.009919920989871024,0.020209552074968815,0.01619768608510494
1772702699351806500,7.136806396484375,0.013597732719779014,0.044535015036165713,0.00564063623547554
1772702699361856500,7.1468564453125,-0.008833879318833351,0.03796820386648178,-0.0016278934627771376
1772702699371906300,7.15690625,-0.009059504768252373,0.03777268129438162,-0.01371989779472351
1772702699381956400,7.166956298828125,0.003925649011135101,0.034733751989901064,-0.008379705810546874
1772702699392006400,7.17700634765625,0.013717705837637185,0.026966332858800887,-0.008860767325758934
1772702699402056400,7.187056396484375,0.01736219981983304,-0.0012160977914929389,-0.0016986206114292144
1772702699412106200,7.197106201171875,0.011299538780003785,0.0007034720942378044,0.010007014751434326
1772702699422156300,7.20715625,0.012405015803873539,0.016357845082879064,0.024780805513262748
1772702699432206300,7.217206298828125,0.021472411617636678,0.025342823310196397,0.04384323337972164
1772702699442256400,7.22725634765625,0.0346603944927454,0.02149637701511383,0.03939794440865516
1772702699452306200,7.23730615234375,0.008280921611189842,0.02799626042842865,0.027847791868448254
1772702699462355500,7.24735546875,-0.0031350831553339955,0.032628888665139674,0.010544190368056297
1772702699472405500,7.257405517578125,0.0016109423279762267,0.033736265385150906,0.009745733466744422
1772702699482455600,7.26745556640625,0.022594693645834923,0.0309001651763916,-0.014468670335412024
1772702699492505300,7.27750537109375,0.04136223021894693,0.01727262184023857,-0.019905308431386947
1772702699502555400,7.287555419921875,0.05869608072713017,0.021869009719789025,-0.010062544330954552
1772702699512605400,7.29760546875,0.05713014658465981,0.02049216840863228,-0.02792202614843845
1772702699522655500,7.307655517578125,0.017270283752679822,0.016659750638902186,-0.016990882289409637
1772702699532705300,7.317705322265625,-0.02037000333368778,0.001772270369529724,-0.019698387682437896
1772702699542755300,7.32775537109375,-0.024937749640643596,0.00908493147045374,0.008497194710373877
1772702699552805400,7.337805419921875,-0.012939853332936763,0.009840133751928807,0.025723054799437522
1772702699562855400,7.34785546875,0.006476794798672199,0.0207069802030921,0.019453473010659215
1772702699572905200,7.3579052734375,-0.007497516148537397,0.03620616263002157,0.00727671300470829
1772702699582955300,7.367955322265625,-0.0039202421836555005,0.031095980009436607,-0.0039051907449960707
1772702699593005300,7.37800537109375,-0.009807108265161514,0.027285774071514605,0.0035398645639419554
1772702699603055400,7.388055419921875,0.004350888685882091,0.021909633991122245,0.040868016961216926
1772702699613105400,7.39810546875,0.021387802074104546,0.006128127491474151,0.010125672695040703
1772702699623155500,7.408155517578125,0.0008469722181558609,-0.012606968116760254,0.039487376257777214
1772702699633204500,7.41820458984375,0.007010755544900894,-0.006585515870153904,0.03067570877075195
1772702699643254300,7.428254150390625,0.00386427421271801,0.004349719642102718,0.0053249944150447846
1772702699653304300,7.43830419921875,-0.001014145478606224,-0.0038739188238978385,0.0027846622824668882
1772702699663354400,7.448354248046875,-0.0037438627034425734,0.00286649534702301,0.022343933755159376
1772702699673404400,7.458404296875,-0.025966800427436827,-0.012189911748468875,-0.009079963034391403
1772702699683454200,7.4684541015625,-0.017231120786070822,0.0061447863653302185,-0.0024509002834558484
1772702699693504300,7.478504150390625,-0.030529870559275148,0.015369126306474207,-0.011254968985915183
1772702699703554300,7.48855419921875,-0.02254851641654968,0.0007850128978490829,-0.013538111487030982
1772702699713604400,7.498604248046875,0.0019908815562725067,0.010599427686631678,0.023064649245142937
1772702699723654100,7.508654052734375,0.014854747043550014,0.004851531684398651,0.03364741805791854
1772702699733704400,7.518704345703125,0.018308979150652886,-0.00037467853128910064,0.02424655250608921
1772702699743754500,7.52875439453125,0.003700608083605766,-0.0002989829465746879,0.015720716223120688
1772702699753804500,7.538804443359375,-0.019755963088572023,-0.004314356067776679,0.01902501846551895
1772702699763854300,7.548854248046875,-0.014148206209391355,0.00082914430052042,0.019198621466755866
1772702699773904400,7.558904296875,-0.018855214856564998,-0.004983925892412662,0.019108020573854446
1772702699783954400,7.568954345703125,-0.0161461020283401,0.019340660285949707,0.006285948401689529
1772702699794004500,7.57900439453125,0.006757219175249338,0.01250643035173416,-0.014750409886240958
1772702699804053200,7.58905322265625,0.0005006429985165596,-0.005918868654966354,-0.02649988439083099
1772702699814103300,7.599103271484375,-0.02569192900881171,-0.020303660099208354,0.0047357963502407075
1772702699824153300,7.6091533203125,-0.04219546617269516,-0.02431698739379644,0.002376666003465652
1772702699834203400,7.619203369140625,-0.05895297809764743,-0.03479834165871143,0.021042203506827353
1772702699844253200,7.629253173828125,-0.021201777982711792,-0.03169131555408239,0.035140286964178084
1772702699854303200,7.63930322265625,0.01994388687610626,-0.030458558888733386,0.05677811827659607
1772702699864353500,7.649353515625,0.023210925848037002,-0.00762479579001665,0.05662088188827037
1772702699874403600,7.659403564453125,0.006279518660902977,0.021665596102178095,0.038384383451938626
1772702699884453400,7.669453369140625,-0.022668927925825116,0.02736146965622902,0.035415596774220466
1772702699894503400,7.67950341796875,-0.010534253495931624,0.021321897231042383,0.01568272230029106
1772702699904553500,7.689553466796875,-0.02786591204702854,0.015366788218915461,0.0025578677892684936
1772702699914603000,7.69960302734375,-0.030870354560017584,0.009708616326749324,-0.008954290828108787
1772702699924653000,7.709653076171875,-0.012455576947331428,-0.014086393019556998,0.0022328736186027526
1772702699934702800,7.719702880859375,-0.005845218896865845,-0.008060849119722843,0.008296119180321693
1772702699944753000,7.7297529296875,0.004176555032283067,-0.009338613970577716,-0.001662380254268646
1772702699954803000,7.739802978515625,0.01078062947243452,-0.0002519289344549179,-0.00120820674598217
1772702699964853000,7.74985302734375,0.026595161458849905,-0.00660568187534809,0.002792261067032814
1772702699974902800,7.75990283203125,0.013605331504344939,0.019257073655724523,0.024342998617887496
1772702699984952000,7.7699521484375,-0.004640227021276951,0.029963761109113692,0.012093757897615432
1772702699995002000,7.780002197265625,-0.03507131338119507,0.01092617542296648,0.015750526839494704
1772702700005052000,7.790052001953125,-0.02466667761430144,0.0028176877692341804,0.03515957618653774
1772702700015102000,7.80010205078125,0.0005602642312645912,0.0066100657895207405,0.033061727124452586
1772702700025152000,7.810152099609375,0.009936872124671935,0.016547522436082363,0.01056757124364376
1772702700035202000,7.8202021484375,0.020959201398491858,0.0049777884125709534,0.003140636113286018
1772702700045251800,7.830251953125,0.015937866105139253,0.009746902510523795,-0.010146130961179733
1772702700055302000,7.840302001953125,0.007475450447201729,0.007913841864466666,0.01733925733566284
1772702700065352000,7.85035205078125,-0.0037923780202865597,0.004730827914178371,0.004585574224591255
1772702700075402000,7.860402099609375,-0.001103285066783428,0.01286415774822235,-0.006897942820191383
1772702700085452000,7.8704521484375,-0.003212970697134733,-0.006850012025237083,0.01974047325849533
1772702700095501800,7.880501708984375,-0.0013349018655717372,0.00889583863914013,0.027295418682694434
1772702700105552000,7.8905517578125,0.012214315537363291,0.013958382725715637,0.011645429608225821
1772702700115602000,7.900601806640625,0.007816811230778693,0.01928951462060213,0.008367430850863456
1772702700125652000,7.91065185546875,-0.00703793581277132,0.027191666047275066,0.006295885273814201
1772702700135702000,7.920701904296875,-0.01142959490045905,0.03030453737080097,0.0032838439762592313
1772702700145752000,7.930751953125,-0.006582300999760628,0.032598785787820814,-0.014639935249090194
1772702700155802000,7.940802001953125,0.014771598804742096,0.014487959557771681,0.004180500555038452
1772702700165851000,7.950850830078125,0.028518238475918768,0.0031456045493483543,0.006489946541190147
1772702700175901000,7.96090087890625,0.02163739292100072,0.0025087679505348204,0.00978372738957405
1772702700185951000,7.970950927734375,0.014663316124677658,-0.0010927636727690697,0.01362929690182209
1772702700196001000,7.9810009765625,0.01670110556259751,-0.00608808774203062,0.024413141244649886
1772702700206050800,7.99105078125,0.006430325308442115,0.014400281274318694,-0.0003267477363348007
1772702700216100900,8.001100830078125,0.0075467621177434914,0.0202580673918128,0.01252045887708664
1772702700226151000,8.01115087890625,0.0025149054303765296,-0.005973229190707206,0.017259177836775778
1772702700236201000,8.021200927734375,-0.01965513306260109,0.008727496334910392,0.008828034099936485
1772702700246250800,8.031250732421874,-0.011483517044782638,0.025947218944132325,0.021094225955009458
1772702700256300800,8.04130078125,-0.0017915595918893813,-0.009253273774683475,0.006994973453879356
1772702700266351000,8.05135107421875,-0.0019324293673038482,-0.0074193363457918165,0.019092238482832907
1772702700276401200,8.061401123046876,0.02302782436609268,0.004461363323032856,0.0014133739292621612
1772702700286451000,8.071450927734375,0.029399405224621294,0.002803659243881702,0.018774843096733093
1772702700296501000,8.0815009765625,0.014047230052947998,0.015536884088814257,0.039327217260003086
1772702700306551000,8.091551025390626,0.0032227614387869835,-0.008578443253040312,0.027571897536516187
1772702700316601000,8.10160107421875,0.019869652596116064,-0.003900514569878578,0.016806757894158364
1772702700326651000,8.11165087890625,0.015966215416789054,0.004463993671536446,0.0019487959802150724
1772702700336701000,8.121700927734375,-0.007548954074829816,-0.0014367548048496246,-0.01076104798913002
1772702700346750000,8.13175,-0.0027396540969610215,0.011419219636917114,0.015177695387601851
1772702700356800000,8.141800048828125,0.014843933388590812,0.029070903922617432,0.0028419454276561737
1772702700366849800,8.151849853515625,0.02966989272907376,0.01868248863816261,0.0026677579045295712
1772702700376899800,8.16189990234375,0.02529927642941475,0.010027180756628513,0.02079085909426212
1772702700386950100,8.1719501953125,0.014954992547631264,0.008207564114034175,0.027831425255537032
1772702700397000200,8.182000244140625,0.004338321465253829,-0.015232640445232391,0.01601823786497116
1772702700407050000,8.192050048828126,-0.0036959319084882733,0.014298574465513228,0.015842881298065183
1772702700417100000,8.20210009765625,-0.007234335167706012,0.019826397976279258,0.03569850536882877
1772702700427150000,8.212150146484374,0.016584639576077462,0.004018003469705582,-0.002316460248827934
1772702700437200100,8.2222001953125,0.021976269486546515,0.014617431156337261,-0.018771335965394972
1772702700447250000,8.23225,0.011934475682675838,0.014966682985424995,0.0019189853638410567
1772702700457300000,8.242300048828126,-0.009341828840970992,0.010965630650520324,-0.010090601381659507
1772702700467350000,8.25235009765625,-0.005455927318334579,-0.012590309242904186,-0.025582185024023055
1772702700477400000,8.262400146484374,-0.0072740826562047,-0.038702363359928126,0.0122258598446846
1772702700487449900,8.272449951171875,-0.006146247670054435,-0.028254034581780434,0.06080839670598506
1772702700497500000,8.2825,-0.010690320840477942,-0.01828968992829323,0.07260872461497783
1772702700507550000,8.292550048828126,-0.019309388364851472,-0.02098141323029995,0.03154255473315715
1772702700517599000,8.302598876953125,-0.0068508888080716125,-0.004698386949300765,0.006689853027462959
1772702700527649000,8.31264892578125,-0.0076771104991436,-0.0021261983737349507,0.02816518725454807
1772702700537699000,8.322698974609375,0.017078560572862625,0.026651860082149505,0.01662029541134834
1772702700547749000,8.3327490234375,0.023663199660182,0.02807809349298477,-0.01148819321990013
1772702700557799000,8.342798828125,0.017718612042069433,0.02303045471459627,-0.01172960076034069
1772702700567849000,8.352848876953125,0.0026198271095752715,0.011856149749457836,0.0010971475869417189
1772702700577899000,8.36289892578125,0.016330957075953483,0.018388766388595105,0.003850830209255218
1772702700587949000,8.372948974609375,0.025104046118259428,0.006592530132830143,-0.011930091768503188
1772702700597998800,8.382998779296875,0.025342531049251556,0.004370470169186592,-0.004748655831813812
1772702700608049000,8.393048828125,0.03207446965277195,-0.007722118684649467,-0.0034749826341867445
1772702700618099000,8.403098876953125,0.009673837274312973,0.017207155388593673,-0.015395137530565262
1772702700628149000,8.41314892578125,-0.014373393267393111,0.055414428707957264,-0.009824643921852111
1772702700638198800,8.42319873046875,0.0038747956067323682,0.04649053301811218,0.0030360066950321195
1772702700648248800,8.433248779296875,0.006523848810791969,0.03965922569334507,-0.006963993793725967
1772702700658299000,8.443298828125,0.006387947471439838,0.024617139384150503,-0.0019920506000518797
1772702700668349000,8.453348876953125,0.007030044767260551,0.019754209522902966,0.006358429116010665
1772702700678398700,8.463398681640625,-0.01049742861688137,0.00677694678902626,0.03559153786301612
1772702700688449000,8.473448974609376,-0.022020693150162696,0.008029284937679767,0.031626141363382335
1772702700698499000,8.4834990234375,-0.0011404022067785262,-0.0010775661036372185,0.007691139024496078
1772702700708548000,8.493548095703124,-0.0013455693900585174,0.002306231115758419,-0.007816226708889007
1772702700718598000,8.503597900390625,-0.025844927613437173,0.009039046502113342,-0.0019727613776922225
1772702700728648000,8.51364794921875,-0.019748072043061254,0.024931612160801885,0.005818915411829948
1772702700738698000,8.523697998046876,-0.018275369141995904,0.007281681440770626,-0.01156885724067688
1772702700748748000,8.533748046875,-0.023839725270867345,0.021015900021791458,-0.015320318728685379
1772702700758797800,8.5437978515625,-0.008686872063577175,0.012707505881786346,-0.00910100582242012
1772702700768848000,8.553847900390625,-0.003056172700226307,0.007426935130357742,0.02062660844326019
1772702700778898000,8.56389794921875,0.021068068600445983,0.01866641428619623,0.02345043369233608
1772702700788948000,8.573947998046876,0.025429186419397593,0.029854163254797457,0.023263386687636375
1772702700798997800,8.583997802734375,0.013892916274070738,0.009355565105378627,0.03181201932430267
1772702700809048000,8.594048095703124,-0.022229367464780807,0.007385726337134838,0.038353403791785236
1772702700819098000,8.60409814453125,-0.02836217113137245,0.014085223975777625,0.014285130462050438
1772702700829148200,8.614148193359375,-0.009684358668327332,0.019795710577070712,-0.04039689231812954
1772702700839198000,8.624197998046874,-0.02196969361528754,0.016824585811793802,-0.014009820652008056
1772702700849248000,8.634248046875,-0.04354688078165054,0.023457155694067477,0.022852467799186704
1772702700859298000,8.644298095703125,0.013225392276048659,0.01672550935149193,-0.005653495717048645
1772702700869348000,8.65434814453125,0.07796236060261726,0.017927286356687545,-0.02256196042001247
1772702700879398000,8.66439794921875,0.06922785000503062,0.019688743071258067,0.005572831696271896
1772702700889447000,8.674447021484376,-0.018662468763440847,-0.019608079050481318,0.007958265528082847
1772702700899497000,8.6844970703125,-0.012671265524625778,-0.026304654079675673,0.04177694849967956
1772702700909547000,8.694547119140625,0.0098556235820055,-0.009763561384379863,0.02894552397727966
1772702700919597000,8.70459716796875,-0.010700842234492301,-0.0310723068729043,0.017913257831335065
1772702700929647000,8.714647216796875,-0.006663549542427063,-0.012209200970828532,0.04309036918580532
1772702700939697200,8.724697265625,0.005376432341337204,0.003302548676729202,0.017318214547634124
1772702700949747200,8.734747314453125,0.00317716873139143,0.006086626437306404,0.002805120548605919
1772702700959797200,8.74479736328125,0.007520458632707595,0.01840074908733368,-0.04201251082122326
1772702700969847300,8.754847412109376,-0.005930559092760085,0.015422902320325374,-0.010963292562961578
1772702700979897000,8.76489697265625,-0.005827390979230403,0.005837327851355076,0.025216274321079254
1772702700989947100,8.774947021484374,0.04773994855731725,-0.0028556816920638083,0.034434769043326374
1772702700999997200,8.7849970703125,0.05256488449573517,-0.010600012208521366,0.025118659165501593
1772702701010047200,8.795047119140625,0.010631284129619598,-0.023031623758375645,0.021200608938932417
1772702701020097000,8.805096923828126,-0.025157237610220907,-0.00914192235469818,0.03815641991496086
1772702701030147000,8.81514697265625,-0.04570727368593216,-0.0005067804783582687,0.021060323685407636
1772702701040197000,8.825197021484374,-0.015345891561359166,0.012394786670804023,0.0074836337536573405
1772702701050247200,8.8352470703125,-0.023026070800423622,0.017708675169944763,0.029597265884280202
1772702701060297000,8.845296875,-0.06176058286428451,0.021029928547143934,0.02513619482219219
1772702701070347000,8.855346923828124,0.0023617606952786446,-0.008985855010151863,-0.010735913547873496
1772702701080396300,8.865396240234375,0.08404138825535774,-0.03129617875665426,-0.028513562300801275
1772702701090446300,8.8754462890625,0.09223886936679482,-0.007612520830333232,0.0567547374010086
1772702701100496100,8.88549609375,-0.015434738888591527,-0.0022778818041086194,0.037279637080430986
1772702701110546200,8.895546142578125,0.07591434203162789,0.013740063799917697,-0.04989128137230873
1772702701120596200,8.90559619140625,0.26376842533051964,0.06992021618336439,0.0829933405071497
1772702701130646300,8.915646240234375,-0.10735825869590043,-0.052853053787350654,0.05345101968050003
1772702701140696000,8.925696044921875,-0.41364013010710476,-0.06797288150787353,-0.0910579890191555
1772702701150746000,8.93574609375,-0.31661504937708373,0.004416355137526988,-0.017790508234500884
1772702701160796200,8.945796142578125,0.013542787662148476,-0.042700493085384365,0.0871715029746294
1772702701170846200,8.95584619140625,0.22716683364212512,-0.005410919132828712,0.04296352793574333
1772702701180896000,8.96589599609375,0.20816461153030394,0.021714988201856612,0.0005810147583484649
