time,seconds_elapsed,z,y,x
1772702692286700000,0.071699951171875,0.002407647669315338,0.011488967575132847,0.0018948552897199988
1772702692296750000,0.08175,0.0020803450606763363,0.0057937977835536,-0.0004455306916497648
1772702692306800000,0.091800048828125,-0.001255068345926702,0.00009268801659345627,-0.00018103828188031912
1772702692316850200,0.10185009765625,-0.0006771624321117997,-0.0012961504980921745,-0.0012028932105749846
1772702692326900000,0.11189990234375,-0.001442478271201253,-0.00522137526422739,-0.0020465003326535225
1772702692336950000,0.121949951171875,0.0004536923370324075,-0.005078895948827267,0.001878732698969543
1772702692347000000,0.132,0.000003064516931772232,-0.0046455212868750095,-0.004300424829125404
1772702692357050000,0.142050048828125,0.002944259438663721,-0.0019157812930643559,-0.002695603994652629
1772702692367100000,0.152099853515625,0.0007859083125367761,-0.0004541403613984585,-0.0034593497402966022
1772702692377149200,0.162149169921875,0.002979021519422531,-0.005115737207233906,-0.0008334729354828596
1772702692387199200,0.17219921875,0.004706371575593948,-0.001948994118720293,-0.005410689860582352
1772702692397249000,0.1822490234375,0.006139152217656374,-0.0015923967584967613,-0.006936148274689913
1772702692407299000,0.192299072265625,0.009300974197685719,-0.003198632039129734,-0.005380101967602968
1772702692417349000,0.20234912109375,0.010766777209937572,-0.006108402274549007,-0.0005837487988173962
1772702692427399200,0.212399169921875,0.008497107774019241,-0.002209643367677927,-0.0019990350119769573
1772702692437449000,0.222448974609375,0.01233738660812378,-0.0076789772137999535,-0.0017340504564344883
1772702692447499000,0.2324990234375,0.00898151658475399,-0.008930381387472153,-0.003934050444513559
1772702692457549000,0.242549072265625,0.00807364471256733,-0.011704595759510994,-0.004343644715845585
1772702692467599000,0.25259912109375,0.008291294798254967,-0.011619558557868004,-0.009303022176027298
1772702692477649000,0.26264892578125,0.006388465873897076,-0.014170601032674313,-0.006282198708504438
1772702692487699000,0.272698974609375,0.0056037018075585365,-0.010532640852034092,-0.00850730948150158
1772702692497749000,0.2827490234375,0.004477717448025942,-0.0050425343215465546,-0.0029833803419023752
1772702692507799000,0.292799072265625,0.00655705388635397,-0.00649817381054163,-0.003743958193808794
1772702692517849000,0.30284912109375,0.008626862429082394,-0.004910130985081196,0.0014827619306743145
1772702692527898000,0.312898193359375,0.009107623249292374,-0.005341074895113707,0.00047473417362198234
1772702692537948200,0.3229482421875,0.008066860027611256,0.001185800414532423,-0.0008022515685297549
1772702692547998200,0.332998291015625,0.006270964629948139,-0.0027848132885992527,-0.0023616133257746696
1772702692558048000,0.343048095703125,0.003196877893060446,-0.006217095069587231,-0.0016697243554517627
1772702692568098000,0.35309814453125,0.0030401544645428658,-0.012666774913668633,-0.0005604565376415849
1772702692578148000,0.363148193359375,0.002389810513705015,-0.015078267082571983,-0.003501384984701872
1772702692588198100,0.3731982421875,-0.00016750337090343237,-0.010786406695842743,-0.0020468090660870075
1772702692598248000,0.383248046875,0.00273161381483078,-0.007454525679349899,-0.00003931834362447262
1772702692608298000,0.393298095703125,0.001320746261626482,-0.0036682989448308945,-0.002208113204687834
1772702692618348000,0.40334814453125,0.0036486152093857527,0.003157383296638727,0.0011005982523784041
1772702692628398000,0.413398193359375,0.0019146259874105453,0.0006112051196396351,0.0017335081938654184
1772702692638447900,0.42344775390625,0.003599607851356268,-0.004985161125659943,0.00012256205081939697
1772702692648498200,0.433498291015625,0.00418598297983408,0.000145656056702137,-0.0007867641397751868
1772702692658548200,0.44354833984375,0.0014370678691193461,-0.0017819395288825035,-0.00061818613903597
1772702692668598300,0.453598388671875,0.0017064432613551617,-0.005360126029700041,-0.0006195786409080029
1772702692678647000,0.46364697265625,0.0014467850560322404,-0.0067297895438969135,0.0011341129429638386
1772702692688697000,0.473697021484375,0.0001745870104059577,-0.010527385398745537,0.00007911204011179507
1772702692698747100,0.4837470703125,-0.004457981791347265,-0.003208485897630453,0.002139333402737975
1772702692708797000,0.493796875,-0.004201311618089676,-0.004311791621148586,0.00020749651594087481
1772702692718847000,0.503846923828125,-0.004468959290534258,-0.004853744525462389,0.001076219603419304
1772702692728897000,0.51389697265625,-0.005936106201261282,-0.0014807074330747128,0.00034813181264325976
1772702692738947000,0.523947021484375,-0.0044926730915904045,0.004092756193131208,0.00011617047130130231
1772702692748996900,0.533996826171875,-0.006485109217464924,0.005589345470070839,0.0015784306451678276
1772702692759047000,0.544046875,-0.005464319139719009,0.0055528609082102776,0.00016429211245849729
1772702692769097200,0.55409716796875,-0.005243614315986633,0.0034353015944361687,0.00261124549433589
1772702692779147300,0.564147216796875,-0.0020363694056868553,0.001109830103814602,0.0032008695416152477
1772702692789197300,0.574197265625,-0.005209987051784992,-0.0005966448225080967,0.00241253268904984
1772702692799247000,0.5842470703125,-0.005810529924929142,0.0015053879469633102,0.0063614677637815475
1772702692809297200,0.594297119140625,-0.005046143662184477,0.002566346898674965,0.003615728346630931
1772702692819347200,0.60434716796875,-0.003461030311882496,0.0009527374058961868,0.004446900449693203
1772702692829397200,0.614397216796875,-0.004037338308990002,0.008410653099417686,0.006001920439302921
1772702692839446000,0.624446044921875,-0.0037438576109707355,0.011943869292736053,0.0051550352945923805
1772702692849496000,0.63449609375,-0.005423033609986305,0.010123570449650288,0.005891275592148304
1772702692859546000,0.644546142578125,-0.004348181653767824,0.007571196183562279,0.003297623014077544
1772702692869596000,0.654595947265625,-0.007579999975860119,0.0060752215795218945,0.0015900461003184319
1772702692879646000,0.66464599609375,-0.004709644243121147,-0.0003698947839438915,0.004972526803612709
1772702692889696000,0.674696044921875,-0.006393371149897575,-0.0021145399659872055,0.0022397751454263926
1772702692899746300,0.684746337890625,-0.005301208700984716,-0.002299895975738764,0.0019231252372264862
1772702692909796400,0.69479638671875,-0.006375527940690517,-0.002208815887570381,0.002440577605739236
1772702692919846400,0.704846435546875,-0.004691615700721741,0.0009396425448358059,0.0015757244545966387
1772702692929896200,0.714896240234375,-0.0015301074599847198,0.00005528843030333519,0.002675836905837059
1772702692939946200,0.7249462890625,-0.005492358468472958,0.006272970233112574,0.0006592912250198424
1772702692949996300,0.734996337890625,-0.0011859368532896042,0.0024703694507479668,0.0005602807505056262
1772702692960046300,0.74504638671875,-0.0009933903347700834,0.0001938994973897934,0.003947821445763111
1772702692970096000,0.75509619140625,-0.002748770173639059,0.0025219083763659,0.001178873935714364
1772702692980146200,0.765146240234375,-0.003797789104282856,0.009310571476817131,0.0009602284408174455
1772702692990195200,0.7751953125,0.0007638740935362875,0.008349020034074783,0.0029295338317751884
1772702693000245000,0.785244873046875,-0.0031246072612702847,-0.0005472693592309952,0.0032784079667180777
1772702693010295000,0.795294921875,-0.002884097397327423,-0.0036711832508444786,0.0032725040800869465
1772702693020345000,0.805344970703125,-0.0006204104283824563,-0.0064299521036446095,-0.00017282739281654358
1772702693030395400,0.8153955078125,-0.0033291266299784184,-0.009277787990868092,-0.0014263528864830732
1772702693040445400,0.825445556640625,-0.002491828752681613,-0.006929146125912666,0.002225906355306506
1772702693050495200,0.8354951171875,-0.00015410594642162323,-0.002439322881400585,0.004351641517132521
1772702693060545300,0.845545166015625,-0.0012188376858830452,-0.004540290683507919,0.0041231419891119
1772702693070595300,0.85559521484375,0.004779198206961155,-0.003439188003540039,0.006635138299316168
1772702693080645400,0.865645263671875,0.0026585233863443136,-0.002373124472796917,0.0089230602607131
1772702693090695200,0.875695068359375,0.00538339838385582,-0.006524272728711367,0.008910584263503551
1772702693100745200,0.8857451171875,0.006828163750469685,-0.0050345007330179214,0.0062788487412035465
1772702693110795300,0.895795166015625,0.005891731008887291,-0.00736971152946353,0.006430279929190874
1772702693120845300,0.90584521484375,0.008689913898706436,-0.008087166585028172,0.005192176438868046
1772702693130895000,0.91589501953125,0.007954545319080353,-0.0053332713432610035,0.007942463271319866
1772702693140945200,0.925945068359375,0.006107642315328121,-0.005114359315484762,0.0035929891746491194
1772702693150994200,0.935994140625,0.0068564582616090775,-0.011879205703735352,0.004615806974470615
1772702693161044200,0.946044189453125,0.005284127779304981,-0.017073169350624084,0.0015667538391426206
1772702693171094300,0.95609423828125,0.005482539534568787,-0.023621421307325363,-0.001736508565954864
1772702693181144300,0.966144287109375,0.007540896534919739,-0.030604228377342224,0.002094714902341366
1772702693191194400,0.9761943359375,0.006825233809649944,-0.029062604531645775,0.0006694324547424912
1772702693201244200,0.986244140625,0.008433250710368156,-0.01657903753221035,0.0038082341197878122
1772702693211294200,0.996294189453125,0.009037204086780548,-0.005207105074077845,0.0015201870119199157
1772702693221344300,1.00634423828125,0.007959956303238869,-0.0027644536457955837,0.0010551990708336234
1772702693231394300,1.016394287109375,0.008746965788304806,0.000510538462549448,0.004424898885190487
1772702693241444000,1.026444091796875,0.00847345869988203,-0.001425313763320446,0.0031116940081119537
1772702693251494100,1.036494140625,0.006500731222331524,-0.00651552015915513,0.0018809656612575054
1772702693261544200,1.046544189453125,0.004736919421702623,-0.01588265597820282,0.0030221303459256887
1772702693271594200,1.05659423828125,0.007042950950562954,-0.019837450236082077,0.0015347548760473728
1772702693281644000,1.06664404296875,0.008870678022503853,-0.02341593988239765,0.005483157467097044
1772702693291694000,1.076694091796875,0.006024543195962906,-0.018467044457793236,0.005574664566665888
1772702693301744000,1.086744140625,0.006733210291713476,-0.012663217261433601,0.0070388708263635635
1772702693311793400,1.09679345703125,0.005436401814222336,-0.00698134396225214,0.003355086548253894
1772702693321843200,1.10684326171875,0.0049580978229641914,0.001481649000197649,0.002344683278352022
1772702693331893200,1.116893310546875,0.005625752732157707,0.00293333875015378,0.0051167672500014305
1772702693341943300,1.126943359375,0.005613502115011215,0.0006400900892913342,0.0014732968993484974
1772702693351993300,1.136993408203125,0.006213260814547539,-0.0009132139384746552,0.0018149559618905187
1772702693362043100,1.147043212890625,0.00355782313272357,-0.002036002464592457,0.0019358635181561112
1772702693372093200,1.15709326171875,0.004304272122681141,-0.007132330909371376,0.0053149438463151455
1772702693382143200,1.167143310546875,0.00243473332375288,-0.007889467291533947,0.004642229061573744
1772702693392193300,1.177193359375,0.002201604191213846,-0.0016071964055299759,0.003348344238474965
1772702693402243000,1.1872431640625,0.0018266310216858983,-0.005735362414270639,0.004698566626757383
1772702693412293000,1.197293212890625,0.002969047985970974,-0.0041641006246209145,0.0029842108488082886
1772702693422343200,1.20734326171875,-0.0002456537913531065,-0.003992060199379921,0.0049035511910915375
1772702693432393200,1.217393310546875,-0.00040151365101337433,-0.0026446525007486343,0.0026235163677483797
1772702693442443000,1.227443115234375,-0.001403128495439887,0.002876612823456526,0.006707207299768925
1772702693452493300,1.237493408203125,-0.0005507322493940592,0.0013610702008008957,0.006697147618979216
1772702693462542300,1.247542236328125,0.0026650347281247377,0.0002755662426352501,0.008193044923245907
1772702693472592100,1.257592041015625,-0.00090360501781106,-0.0025550401769578457,0.004133996088057756
1772702693482642200,1.26764208984375,-0.0017845786642283201,-0.0008120010606944561,0.003579525975510478
1772702693492692200,1.277692138671875,0.0003036798443645239,0.0007310477085411549,0.004817981272935867
1772702693502742300,1.2877421875,0.003889359999448061,-0.0018439628183841705,0.003395586973056197
1772702693512792000,1.2977919921875,0.00012361223343759775,0.000807036180049181,0.004085197579115629
1772702693522842000,1.307842041015625,-0.0014164939057081938,0.007896903902292252,0.0021557374857366085
1772702693532892200,1.31789208984375,-0.003847312880679965,0.002449593972414732,0.004506473895162344
1772702693542942200,1.327942138671875,-0.0001556389033794403,-0.0025558173656463623,0.007716115564107895
1772702693552992000,1.337991943359375,0.0018497281707823277,-0.00018807454034686089,0.006603568326681852
1772702693563042000,1.3480419921875,0.0016097774496302009,-0.0016394974663853645,0.004531096201390028
1772702693573092000,1.358092041015625,-0.00015200581401586533,0.000183966476470232,0.004086766857653856
1772702693583142400,1.368142333984375,-0.0031928031239658594,-0.0008370890282094479,0.003319776151329279
1772702693593192200,1.378192138671875,-0.0008621104061603546,-0.0017162375152111053,0.006354277487844229
1772702693603242200,1.3882421875,-0.001978241140022874,0.0009690271690487862,0.006627251394093037
1772702693613291300,1.398291259765625,-0.0014190924121066928,0.005808338522911072,0.003719648811966181
1772702693623341300,1.40834130859375,-0.002322170417755842,0.00901638250797987,0.004446958191692829
1772702693633391000,1.41839111328125,-0.004159298725426197,0.008028613403439522,0.006519618444144726
1772702693643441200,1.428441162109375,-0.0013515281025320292,0.006028046831488609,0.0037035916466265917
1772702693653491200,1.4384912109375,-0.0008110359776765108,0.00589644955471158,0.0032008476555347443
1772702693663541200,1.448541259765625,-0.001431019976735115,0.006136400159448385,0.00907737948000431
1772702693673591000,1.458591064453125,-0.002168988808989525,0.012455090880393982,0.00823303498327732
1772702693683641000,1.46864111328125,-0.0019130590371787548,0.009484866634011269,0.006680678576231003
1772702693693691100,1.478691162109375,-0.0028021447360515594,0.004093185532838106,0.008302459493279457
1772702693703741400,1.488741455078125,-0.002272974466904998,0.0018382878042757511,0.0028017000295221806
1772702693713791200,1.498791259765625,-0.0006838202243670821,0.008171919733285904,0.0021433685906231403
1772702693723841300,1.50884130859375,-0.003934208303689957,0.010298719629645348,0.0015612016431987286
1772702693733891300,1.518891357421875,-0.007549100089818239,0.005921749863773584,0.0017129394691437483
1772702693743941400,1.52894140625,-0.004100838676095009,-0.00036703888326883316,0.004401134327054024
1772702693753991200,1.5389912109375,-0.004019885323941708,-0.0029973695054650307,0.0002347633708268404
1772702693764040200,1.549040283203125,-0.0019364948384463787,0.0030237711034715176,0.0019724760204553604
1772702693774090200,1.55909033203125,-0.0022919068578630686,0.004755535162985325,0.0016656373627483845
1772702693784140000,1.56914013671875,-0.00004286738112568855,-0.00033483048900961876,0.002066709566861391
1772702693794190000,1.579190185546875,0.001382005400955677,-0.0035671712830662727,0.0012192314025014639
1772702693804240100,1.589240234375,-0.0029522893019020557,0.0014795190654695034,0.00023945444263517857
1772702693814290200,1.599290283203125,-0.0008028519805520773,-0.0007072025910019875,0.004291453864425421
1772702693824340200,1.60934033203125,-0.004049777984619141,-0.00583911407738924,0.00270634051412344
1772702693834390300,1.619390380859375,-0.00401057954877615,-0.009762918576598167,0.0008290760451927781
1772702693844440300,1.6294404296875,-0.0022065546363592148,-0.010356270708143711,0.000567021023016423
1772702693854490400,1.639490478515625,-0.0037033658009022474,-0.011703013442456722,-0.0011132678482681513
1772702693864540200,1.6495400390625,-0.003201359650120139,-0.014081482775509357,-0.004024635534733534
1772702693874590200,1.659590087890625,0.0001772451214492321,-0.0061618611216545105,0.0006355891237035394
1772702693884640300,1.66964013671875,0.000760211085435003,-0.005484885536134243,-0.002153273206204176
1772702693894690300,1.679690185546875,-0.0009757070802152157,-0.00018261373043060303,0.0016135412734001875
1772702693904739800,1.68973974609375,0.0017332603456452489,0.010020755231380463,0.003888147184625268
1772702693914788600,1.69978857421875,0.003773442469537258,0.012517319060862064,-0.0029235216788947582
1772702693924838700,1.709838623046875,-0.001106001203879714,0.010470679961144924,-0.0004979146760888398
1772702693934889000,1.719888916015625,-0.000010100542567670345,0.00047196634113788605,-0.0048705777153372765
1772702693944938800,1.729938720703125,0.0001462270738556981,0.003180934116244316,-0.0035144961439073086
1772702693954988800,1.73998876953125,-0.0014992686919867992,0.0005460805259644985,-0.004776076879352331
1772702693965038800,1.750038818359375,-0.0035349889658391476,0.00005206465721130371,-0.005294061731547117
1772702693975089000,1.7600888671875,-0.002137475647032261,-0.004303722642362118,-0.00308759743347764
1772702693985138700,1.770138671875,-0.0020408029668033123,-0.005113324150443077,-0.002584259957075119
1772702693995188700,1.780188720703125,-0.0002497710520401597,0.003377061802893877,-0.0003911637468263507
1772702694005238800,1.79023876953125,0.00018965057097375393,-0.000299165491014719,-0.002524888375774026
1772702694015288800,1.800288818359375,-0.0010558638023212552,-0.0012921555899083614,-0.004681514110416174
1772702694025338600,1.810338623046875,0.0017108941683545709,0.0003853696398437023,-0.005237848497927189
1772702694035388700,1.820388671875,0.0006565673975273967,-0.0011123432777822018,-0.007840987294912338
1772702694045438700,1.830438720703125,0.0015146378427743912,-0.0025528469122946262,-0.008382141590118408
1772702694055488800,1.84048876953125,0.00188840227201581,-0.0030715204775333405,-0.0034533459693193436
1772702694065538600,1.85053857421875,0.0003413720987737179,-0.008450839668512344,-0.0032229823991656303
1772702694075587800,1.860587890625,-0.0030062152072787285,-0.0061126574873924255,-0.0064831022173166275
1772702694085638000,1.870637939453125,-0.0005952551728114486,-0.0008726217783987522,-0.005221030209213495
1772702694095688000,1.88068798828125,-0.0023434367030858994,-0.0004326025955379009,-0.002554877893999219
1772702694105737700,1.89073779296875,-0.0014371630968526006,0.0008806022815406322,-0.0018936148844659328
1772702694115787800,1.900787841796875,-0.0012627150863409042,0.0020511853508651257,-0.004349069204181433
1772702694125837800,1.910837890625,-0.003935996443033218,0.0033867605961859226,-0.0012882984010502696
1772702694135888000,1.920887939453125,-0.0023412301670759916,0.0003889910876750946,-0.002136412775143981
1772702694145937700,1.930937744140625,-0.0016466777306050062,-0.002892023418098688,-0.00003411341458559036
1772702694155987700,1.94098779296875,0.0005582401063293219,-0.0008459882810711861,0.00025930043193511665
1772702694166037800,1.951037841796875,-0.0018492576200515032,0.0024723107926547527,0.0013400111347436905
1772702694176087800,1.961087890625,-0.0014605988981202245,-0.002591893542557955,-0.0005630996893160045
1772702694186137600,1.9711376953125,-0.0008778992341831326,-0.0003303373232483864,0.00046940785250626504
1772702694196187600,1.981187744140625,0.0007530255825258791,0.005342657677829266,-0.0008260963950306177
1772702694206237700,1.99123779296875,0.0008853846811689436,0.006126159802079201,-0.0022503549698740244
1772702694216287700,2.001287841796875,0.004022270441055298,-0.0006516166031360626,-0.0012637784238904715
1772702694226336800,2.011336669921875,0.00406328309327364,-0.006685274187475443,-0.006297952029854059
1772702694236386800,2.02138671875,0.004974739626049995,-0.0016411365941166878,-0.007184168323874474
1772702694246436900,2.031436767578125,0.0021054500248283148,-0.004451037850230932,-0.005931949708610773
1772702694256486700,2.041486572265625,0.004772813990712166,-0.009170117788016796,-0.002634404692798853
1772702694266536700,2.05153662109375,0.0010473178699612617,-0.00859540794044733,-0.0019933818839490414
1772702694276586800,2.061586669921875,0.0014666938222944736,-0.003307779785245657,-0.005069291219115257
1772702694286636800,2.07163671875,0.003392159240320325,-0.00580848753452301,-0.003203480038791895
1772702694296686600,2.0816865234375,0.003066865261644125,-0.0035414500162005424,-0.005467517767101526
1772702694306736600,2.091736572265625,-0.00008258922025561333,0.005530607886612415,-0.002795834792777896
1772702694316786700,2.10178662109375,0.0026204290334135294,-0.000990002416074276,-0.004021480679512024
1772702694326836700,2.111836669921875,0.00033330637961626053,-0.006099010817706585,0.0005386500270105898
1772702694336886500,2.121886474609375,-0.00020950613543391228,-0.003942337818443775,-0.00223820679821074
1772702694346936600,2.1319365234375,0.004910687450319529,0.0007823756895959377,0.0012534636771306396
1772702694356987000,2.14198681640625,0.003839227370917797,0.01234147883951664,0.0018473891541361809
1772702694367037000,2.152036865234375,0.0024828792084008455,0.013956952840089798,0.002115835901349783
1772702694377085700,2.162085693359375,0.0027536051347851753,0.009570280089974403,0.00011371122673153877
1772702694387135700,2.1721357421875,0.0008430533343926072,0.004858348984271288,-0.004868264310061932
1772702694397185800,2.182185791015625,-0.00040550832636654377,0.0002962765283882618,-0.004001629538834095
1772702694407235800,2.19223583984375,0.00003417953848838806,-0.007823435589671135,-0.003889510640874505
1772702694417285600,2.20228564453125,-0.0012624487280845642,-0.00906857755035162,-0.00039800367085263133
1772702694427335700,2.212335693359375,0.0011969805927947164,-0.0030279960483312607,-0.0018739275401458144
1772702694437385700,2.2223857421875,0.003373968182131648,-0.006144516635686159,-0.0009621036006137729
1772702694447435800,2.232435791015625,0.00535030011087656,-0.006433735601603985,-0.0010209594620391726
1772702694457485600,2.242485595703125,0.005341995973140001,-0.0022513405419886112,0.0008088990580290556
1772702694467535600,2.25253564453125,0.005884482059627771,-0.0006691562011837959,-0.0021458780393004417
1772702694477586000,2.2625859375,0.005109489895403385,0.003384586423635483,-0.00370620284229517
1772702694487636000,2.272635986328125,0.006505252327769995,0.005667448043823242,-0.004060935694724321
1772702694497685800,2.282685791015625,0.010187002830207348,0.0006691473536193371,-0.002811074024066329
1772702694507735800,2.29273583984375,0.004332575481384993,-0.007162410765886307,-0.0034616843331605196
1772702694517785900,2.302785888671875,0.005972147919237614,-0.008896361105144024,-0.006421051453799009
1772702694527834600,2.312834716796875,0.005777470767498016,-0.0093858502805233,-0.00385296531021595
1772702694537884700,2.322884765625,0.004266143776476383,-0.008439576253294945,-0.0018666759133338928
1772702694547934700,2.332934814453125,0.003562802914530039,-0.016563281416893005,-0.002509829355403781
1772702694557984800,2.34298486328125,0.005295254290103912,-0.013545503839850426,-0.003049815772101283
1772702694568034600,2.35303466796875,0.005031068809330463,-0.011612847447395325,-0.002442348748445511
1772702694578084600,2.363084716796875,0.003450466552749276,-0.0000060461461544036865,-0.007246795576065779
1772702694588134700,2.373134765625,0.004686972126364708,-0.00039779720827937126,0.0005711800768040121
1772702694598184700,2.383184814453125,0.004198824055492878,-0.0012490833178162575,0.0033853240311145782
1772702694608234800,2.39323486328125,0.004614277742803097,0.0043310378678143024,0.0006537198205478489
1772702694618284800,2.403284912109375,0.004741038661450148,0.0056152851320803165,0.0018794494681060314
1772702694628334800,2.4133349609375,0.006934684701263905,-0.0010119909420609474,0.0007761017768643796
1772702694638385000,2.423385009765625,0.002527697244659066,-0.001917076762765646,0.0006019106367602944
1772702694648434700,2.4334345703125,0.0021274241153150797,-0.004085955210030079,-0.004123069811612368
1772702694658484700,2.443484619140625,0.0018616945017129183,-0.0077384524047374725,-0.004020948428660631
1772702694668534800,2.45353466796875,0.0013229369651526213,-0.011988325044512749,-0.0028787183109670877
1772702694678583800,2.463583740234375,0.002987777814269066,-0.004665380343794823,-0.004986697342246771
1772702694688633600,2.473633544921875,0.0026687311474233866,-0.0012219129130244255,-0.0023445752449333668
1772702694698683600,2.48368359375,0.005563816521316767,-0.0009530317038297653,-0.001592434709891677
1772702694708733700,2.493733642578125,0.0024599020835012197,-0.0014161556027829647,-0.005331512540578842
1772702694718783700,2.50378369140625,0.0012275420594960451,-0.00376238115131855,-0.0051901983097195625
1772702694728833800,2.513833740234375,0.0022946707904338837,-0.004124837461858988,-0.0033606067299842834
1772702694738883800,2.5238837890625,-0.0002906019799411297,-0.0021092486567795277,-0.003604203462600708
1772702694748934000,2.533933837890625,-0.0010104544926434755,-0.0061455355025827885,-0.004732585046440363
1772702694758984000,2.54398388671875,0.0002952885115519166,-0.0055289436131715775,-0.000366456457413733
1772702694769033700,2.55403369140625,0.0004058097256347537,0.0006397366523742676,-0.005737786181271076
1772702694779083800,2.564083740234375,-0.0006586868548765779,-0.002903052605688572,-0.0065269069746136665
1772702694789133800,2.5741337890625,-0.0005798571510240436,-0.007165441755205393,-0.0020115170627832413
1772702694799184000,2.584183837890625,0.0019083048682659864,-0.002952822484076023,-0.0047744992189109325
1772702694809233700,2.594233642578125,-0.0022163991816341877,0.0031042713671922684,-0.004095126409083605
1772702694819283700,2.60428369140625,0.0002278630854561925,0.001874543260782957,-0.003924173768609762
1772702694829332700,2.614332763671875,0.0017312176059931517,0.00384794594720006,0.0016660678666085005
1772702694839382500,2.624382568359375,-0.001078701694495976,0.012078661471605301,-0.0006009166245348752
1772702694849432800,2.634432861328125,-0.0003479302395135164,0.007581115234643221,-0.00042834377381950617
1772702694859483000,2.64448291015625,-0.0005304105579853058,0.0067264786921441555,-0.0016801520250737667
1772702694869533000,2.654532958984375,-0.0022601336240768433,0.007801596540957689,-0.0012183599174022675
1772702694879582700,2.664582763671875,0.002926898654550314,0.00660111615434289,0.002539770444855094
1772702694889632800,2.6746328125,0.0005204663029871881,0.002115021925419569,-0.00009063369361683726
1772702694899682800,2.684682861328125,-0.0016091983998194337,0.0035548778250813484,0.0022421316243708134
1772702694909733400,2.6947333984375,0.00001612887717783451,0.0068361591547727585,0.0005614105029962957
1772702694919783400,2.704783447265625,-0.0038058324716985226,0.01007247343659401,-0.0021230357233434916
1772702694929833500,2.71483349609375,-0.0016657162923365831,0.008822917938232422,-0.0021379494573920965
1772702694939883300,2.72488330078125,-0.0003910080995410681,0.006355412304401398,-0.0002277057501487434
1772702694949933300,2.734933349609375,0.0003434917889535427,0.002079707570374012,-0.0010639382526278496
1772702694959983400,2.7449833984375,0.0006622895016334951,-0.0004952521994709969,-0.0034606806002557278
1772702694970033400,2.755033447265625,-0.0005814066389575601,-0.0035978346131742,-0.0043656229972839355
1772702694980083200,2.765083251953125,-0.0012835374800488353,0.000058040954172611237,-0.004074358381330967
1772702694990132200,2.77513232421875,-0.0007498400518670678,0.003562760539352894,-0.0015688564162701368
1772702695000182300,2.785182373046875,0.002373086754232645,0.009236952289938927,-0.0011731279082596302
1772702695010232600,2.795232666015625,-0.00007249403279274702,0.00979541800916195,0.003775557968765497
1772702695020282400,2.805282470703125,-0.0018641864880919456,0.010829992592334747,0.005712147802114487
1772702695030332400,2.81533251953125,-0.0008343423251062632,0.0146404430270195,-0.0008983506704680622
1772702695040382500,2.825382568359375,-0.0027389766182750463,0.015337349846959114,-0.000393435126170516
1772702695050432500,2.8354326171875,-0.005346477963030338,0.009180387482047081,-0.0005990311619825661
1772702695060482300,2.845482421875,-0.0021240462083369493,0.007708386052399874,-0.0011579061392694712
1772702695070532400,2.855532470703125,-0.004132602363824844,0.001904293429106474,0.0003891240921802819
1772702695080582400,2.86558251953125,-0.00521077960729599,0.0009686872363090515,0.0001636151282582432
1772702695090632400,2.875632568359375,-0.0038741393946111202,0.0021857526153326035,-0.0009131008991971612
1772702695100682200,2.88568212890625,-0.0024038725532591343,0.00019195815548300743,-0.0001209132606163621
1772702695110732300,2.895732177734375,-0.000020077102817595005,0.0021714861504733562,0.00007403013296425343
1772702695120782300,2.9057822265625,-0.000569947762414813,0.01013521384447813,-0.0025960977654904127
1772702695130832400,2.915832275390625,0.003102018963545561,0.012766149826347828,0.0023483270779252052
1772702695140881400,2.92588134765625,0.0010322026209905744,0.013696200214326382,0.0034270526375621557
1772702695150931500,2.935931396484375,0.0011991828214377165,0.008136319927871227,0.001324487035162747
1772702695160981500,2.9459814453125,0.005601928103715181,0.003997160121798515,0.00442079920321703
1772702695171031300,2.95603125,-0.0008935218211263418,-0.0026950975880026817,0.0010305950418114662
1772702695181081300,2.966081298828125,0.002499418333172798,-0.005911853164434433,0.002466794801875949
1772702695191131400,2.97613134765625,0.004084265325218439,-0.0052106427028775215,-0.00038571719778701663
1772702695201181400,2.986181396484375,-0.00004364235792309046,-0.0003348519094288349,0.0009659831412136555
1772702695211231200,2.996231201171875,0.002249073004350066,-0.0022467351518571377,-0.00011952128261327744
1772702695221281300,3.00628125,0.0012755943462252617,-0.00338875874876976,-0.0031197573989629745
1772702695231331300,3.016331298828125,0.0017866550479084253,0.00017668073996901512,-0.006218877620995045
1772702695241381400,3.02638134765625,0.00021979538723826408,-0.0017177998088300228,-0.005998324137181044
1772702695251431200,3.03643115234375,-0.0007511931471526623,-0.0015726573765277863,-0.003926384728401899
1772702695261481200,3.046481201171875,0.0003608918050304055,-0.004525335971266031,-0.0030974680557847023
1772702695271531300,3.05653125,0.0008607671479694545,-0.0020408728159964085,-0.003411720972508192
1772702695281581300,3.066581298828125,0.0017588965129107237,-0.0031535541638731956,0.0005775321624241769
1772702695291631000,3.076631103515625,0.0016798005672171712,-0.002111725974828005,-0.0005503165884874761
1772702695301680400,3.086680419921875,-0.0004454019945114851,-0.00014684535562992096,0.0007000375771895051
1772702695311730400,3.09673046875,0.00008323555812239647,-0.0016038608737289906,0.00019803171744570136
1772702695321780500,3.106780517578125,-0.0009136970620602369,-0.0026486064307391644,0.00038434876478277147
1772702695331830300,3.116830322265625,-0.0014878746587783098,-0.007512071169912815,-0.005206425208598375
1772702695341880300,3.12688037109375,0.0005913064233027399,-0.007263300009071827,-0.004492040257900953
1772702695351930400,3.136930419921875,-0.0001306765479966998,-0.0015058121643960476,-0.0015098322182893753
1772702695361980400,3.14698046875,-0.0002771369181573391,-0.0008260533213615417,-0.0010169034358114004
1772702695372030200,3.1570302734375,-0.0003879243740811944,-0.0010098116472363472,-0.0005820092628709972
1772702695382080300,3.167080322265625,0.0003893736284226179,0.0014658579602837563,0.0021452540531754494
1772702695392130300,3.17713037109375,-0.0011225028429180384,-0.0000926237553358078,-0.0005685072392225266
1772702695402180400,3.187180419921875,-0.0007307378109544516,0.000060094986110925674,0.0012477455893531442
1772702695412230100,3.197230224609375,-0.0024575316347181797,-0.0002155425027012825,-0.0005983576411381364
1772702695422280200,3.2072802734375,-0.0019565182738006115,-0.0058946567587554455,-0.0002740275231190026
1772702695432330500,3.21733056640625,-0.0017876740312203765,-0.004712745547294617,0.0010383782209828496
1772702695442380500,3.227380615234375,-0.003347508842125535,-0.002984398975968361,-0.0006826543831266463
1772702695452429300,3.23742919921875,-0.0028369806241244078,-0.0015233890153467655,0.004233807325363159
1772702695462479400,3.247479248046875,-0.0026935720816254616,0.0018258383497595787,0.001044610282406211
1772702695472529400,3.257529296875,-0.0017084688879549503,0.006028573028743267,-0.0024342769756913185
1772702695482579200,3.2675791015625,-0.00450345641002059,0.002267656847834587,0.0020249199587851763
1772702695492629200,3.277629150390625,-0.004653638694435358,0.0006154775619506836,0.0012689479626715183
1772702695502679300,3.28767919921875,-0.005651186220347881,0.004841724876314402,-0.0003383129369467497
1772702695512729300,3.297729248046875,-0.0053145624697208405,0.0015428676269948483,0.0053419433534145355
1772702695522779100,3.307779052734375,-0.007587578613311052,0.010811541229486465,0.0037180937360972166
1772702695532829200,3.3178291015625,-0.0065729147754609585,0.008898060768842697,0.0060116080567240715
1772702695542879200,3.327879150390625,-0.003977742977440357,0.0037821242585778236,0.004610706120729446
1772702695552929300,3.33792919921875,-0.006677122786641121,0.0011855429038405418,0.0023965537548065186
1772702695562979300,3.347979248046875,-0.005772310774773359,0.0009692567400634289,0.0007260139682330191
1772702695573029400,3.358029296875,-0.007378463167697191,0.004105128813534975,-0.002924380823969841
1772702695583079400,3.368079345703125,-0.004663381725549698,0.005179591942578554,-0.0005296461167745292
1772702695593129500,3.37812939453125,-0.006539046298712492,0.004954288247972727,0.001589963911101222
1772702695603179500,3.388179443359375,-0.006856163498014212,0.0066591291688382626,-0.0011572509538382292
1772702695613228300,3.398228271484375,-0.004097927361726761,0.0017045843414962292,-0.0027189285028725863
1772702695623278300,3.4082783203125,-0.00641214894130826,-0.00519604841247201,-0.00011931511107832193
1772702695633328400,3.418328369140625,-0.004074692260473967,-0.004295634105801582,-0.0028344078455120325
1772702695643378200,3.428378173828125,-0.002517406363040209,-0.007225146051496267,0.0007971407612785697
1772702695653428200,3.43842822265625,-0.004469503648579121,-0.00716682244092226,-0.0015040966682136059
1772702695663478300,3.448478271484375,-0.0017160563729703426,-0.007191927172243595,0.00008912966586649418
1772702695673528300,3.4585283203125,-0.0014231086242944002,-0.0008330973796546459,-0.0010962432716041803
1772702695683578400,3.468578369140625,-0.004047517664730549,0.0027650631964206696,-0.0008479754324071109
1772702695693628400,3.47862841796875,-0.0018799705430865288,0.00646712351590395,-0.002432822482660413
1772702695703678500,3.488678466796875,0.0002233227714896202,0.006988491863012314,0.0004942988744005561
1772702695713728500,3.498728515625,-0.0013330284273251891,0.010284152813255787,0.0008216013666242361
1772702695723778300,3.5087783203125,-0.0014932856429368258,0.009372171945869923,0.003836135845631361
1772702695733828400,3.518828369140625,-0.0027026268653571606,0.0037699462845921516,0.004115501418709755
1772702695743878400,3.52887841796875,-0.0049918033182621,-0.003954013809561729,0.0027413915377110243
1772702695753928400,3.538928466796875,-0.002976322779431939,-0.0010386514477431774,0.004019176121801138
1772702695763978200,3.548978271484375,-0.004160773009061813,-0.004381874576210976,0.0015465137548744678
1772702695774027300,3.55902734375,-0.0024973624385893345,-0.006781382951885462,0.004124720115214586
1772702695784077300,3.569077392578125,-0.0027839187532663345,-0.00466203922405839,0.002861849032342434
1772702695794127000,3.579127197265625,0.00013330799993127584,-0.0033645471557974815,0.0061631035059690475
1772702695804177400,3.589177490234375,0.002127352636307478,-0.0017698826268315315,0.007363185286521912
1772702695814227500,3.5992275390625,0.0031193802133202553,0.00030898116528987885,0.005070203449577093
1772702695824277500,3.609277587890625,0.005907457321882248,0.00044971564784646034,0.004174026660621166
1772702695834327300,3.619327392578125,0.0058003985323011875,-0.0017798831686377525,0.00007435682346113026
1772702695844377300,3.62937744140625,0.007940378040075302,-0.005233433097600937,0.002119604032486677
1772702695854427400,3.639427490234375,0.006235954351723194,-0.005734373815357685,0.003811243921518326
1772702695864477400,3.6494775390625,0.006337493192404509,-0.013266514986753464,0.002113702706992626
1772702695874527500,3.659527587890625,0.007764681242406368,-0.01042252592742443,0.0008132810471579432
1772702695884577300,3.669577392578125,0.007191087119281292,-0.008808883838355541,0.002092789625748992
1772702695894627300,3.67962744140625,0.0035947542637586594,-0.010888280346989632,0.0014437773497775197
1772702695904677400,3.689677490234375,0.004932856652885675,-0.009473039768636227,-0.0016897595487535
1772702695914727400,3.6997275390625,0.004560280591249466,-0.013458726927638054,-0.0009992019040510058
1772702695924776200,3.709776123046875,0.006170852109789848,-0.010807808488607407,-0.0002626791247166693
1772702695934826500,3.719826416015625,-0.0001136754872277379,-0.007854096591472626,0.0013144449330866337
1772702695944876500,3.72987646484375,0.0041911667212843895,-0.00294936029240489,0.0002106721804011613
1772702695954926300,3.73992626953125,0.004841510206460953,-0.0020231129601597786,0.0028932744171470404
1772702695964976400,3.749976318359375,0.005647774785757065,-0.0013399077579379082,0.0035812491551041603
1772702695975026400,3.7600263671875,0.005964159034192562,-0.006213758606463671,0.002086949534714222
1772702695985076500,3.770076416015625,0.0028355522081255913,-0.004454730078577995,0.0011344203958287835
1772702695995126300,3.780126220703125,0.003823052393272519,-0.0014714570716023445,0.0019197866786271334
1772702696005176300,3.79017626953125,0.0029285179916769266,-0.0009864508174359798,-0.0031411866657435894
1772702696015226400,3.800226318359375,0.0022052035201340914,-0.002869572024792433,0.0016828632215037942
1772702696025276400,3.8102763671875,0.003176008351147175,-0.004391571041196585,0.00486568221822381
1772702696035326200,3.820326171875,0.004220766481012106,-0.006353255361318588,0.004606822971254587
1772702696045376300,3.830376220703125,0.0044068885035812855,-0.007917826063930988,0.002290191128849983
1772702696055426300,3.84042626953125,0.003334966255351901,-0.0007531237788498402,0.004005799535661936
1772702696065476400,3.850476318359375,0.003668005345389247,-0.0013351351954042912,0.0014690542593598366
1772702696075526100,3.860526123046875,0.003375856438651681,-0.0018733600154519081,0.003187059424817562
1772702696085575400,3.870575439453125,0.0021594157442450523,-0.004280935972929001,0.004516970831900835
1772702696095625500,3.88062548828125,-0.0002707187086343765,0.0002477699890732765,0.0017821707297116518
1772702696105675300,3.89067529296875,-0.00033379753585904837,0.005648242775350809,0.0034059109166264534
1772702696115725300,3.900725341796875,-0.00012180989142507315,0.0015562963671982288,0.003196586389094591
1772702696125775400,3.910775390625,-0.0006448617205023766,-0.0004977267235517502,0.002614031545817852
1772702696135825400,3.920825439453125,-0.0005532489158213139,-0.006346561014652252,0.004017783794552088
1772702696145875500,3.93087548828125,-0.0003959138412028551,-0.003691614605486393,0.002316308906301856
1772702696155925200,3.94092529296875,-0.001071291510015726,-0.00005400320515036583,0.007386434823274612
1772702696165975300,3.950975341796875,-0.0010491354623809457,0.0019513890147209167,0.006242998410016298
1772702696176025300,3.961025390625,-0.0012624546652659774,0.005937341600656509,0.005534331314265728
1772702696186075400,3.971075439453125,-0.004041788633912802,0.012960672378540039,0.007893113419413567
1772702696196125200,3.981125244140625,-0.0030044871382415295,0.013060806319117546,0.006500013172626495
1772702696206175200,3.99117529296875,-0.0023588831536471844,0.005731283221393824,0.005550718866288662
1772702696216225300,4.001225341796875,-0.002142900601029396,0.002772245090454817,0.0048947823233902454
1772702696226275300,4.011275390625,-0.004119297955185175,0.000022913329303264618,0.002041636034846306
1772702696236325400,4.021325439453125,-0.004211177118122578,-0.002733458299189806,0.002359617268666625
1772702696246374400,4.03137451171875,0.0009704172844067216,-0.004498249385505915,0.003187101799994707
1772702696256424400,4.041424560546875,-0.000075672403909266,-0.00023665884509682655,0.0006499083247035742
1772702696266474200,4.05147412109375,-0.001529952511191368,0.00576964532956481,0.00004612733027897775
1772702696276524300,4.061524169921875,-0.001960585592314601,0.009162778034806252,-0.0023075744975358248
1772702696286574300,4.07157421875,0.00007241545245051384,0.0051470366306602955,-0.001381576294079423
1772702696296624400,4.081624267578125,-0.0028061955235898495,-0.00006769876927137375,-0.0016809155931696296
1772702696306674200,4.091674072265625,-0.0031803054735064507,0.000450971070677042,-0.0035213229712098837
1772702696316724200,4.10172412109375,-0.0015376675873994827,0.003141030203551054,-0.002722640987485647
1772702696326774300,4.111774169921875,-0.000493320869281888,0.0037374249659478664,-0.0019997735507786274
1772702696336824300,4.12182421875,-0.0009194265585392714,0.0037845629267394543,-0.004457072354853153
1772702696346874000,4.1318740234375,-0.002891379874199629,0.008508924394845963,-0.004107438959181309
1772702696356924400,4.14192431640625,-0.003136657178401947,0.011061031371355057,-0.004734347108751535
1772702696366974500,4.151974365234375,-0.0017205184558406472,0.0015023797750473022,-0.004086337983608246
1772702696377024500,4.1620244140625,0.0003737914375960827,-0.001631894614547491,-0.0031345244497060776
1772702696387074300,4.17207421875,-0.0013125016121193767,0.0025434549897909164,-0.002956526353955269
1772702696397123300,4.182123291015625,0.001575696631334722,0.006672419607639313,-0.0025370786897838116
1772702696407173400,4.19217333984375,-0.001166035421192646,0.012337571009993553,-0.0012218640185892582
1772702696417223400,4.202223388671875,-0.0022435502614825964,0.013179661706089973,-0.004765199963003397
1772702696427273200,4.212273193359375,-0.000015160534530878067,0.00813228264451027,-0.007590197958052158
1772702696437323300,4.2223232421875,0.0006562224007211626,0.005508536472916603,-0.005549417342990637
1772702696447373300,4.232373291015625,-0.002270036842674017,0.004823881667107344,-0.009237797930836678
1772702696457423400,4.24242333984375,-0.0029470124281942844,0.004388454835861921,-0.00981836672872305
1772702696467473200,4.25247314453125,-0.0033143428154289722,-0.0020726420916616917,-0.011544706299901009
1772702696477523200,4.262523193359375,-0.0016653133789077401,-0.0021165842190384865,-0.0054053207859396935
1772702696487573500,4.272573486328125,0.0010834154672920704,-0.0032622739672660828,-0.006074229255318642
1772702696497623600,4.28262353515625,0.0033740003127604723,-0.0002955128438770771,-0.006188745144754648
1772702696507673300,4.29267333984375,0.0040045566856861115,0.000003025401383638382,-0.008248778060078621
1772702696517723400,4.302723388671875,0.0036825803108513355,-0.0029131360352039337,-0.0070466273464262486
1772702696527773400,4.3127734375,0.006618795916438103,-0.004581870511174202,-0.003735707374289632
1772702696537823500,4.322823486328125,0.006713604088872671,0.0019300910644233227,-0.007997830398380756
1772702696547873300,4.332873291015625,0.006150459870696068,-0.0028362483717501163,-0.007797064259648323
1772702696557922300,4.34292236328125,0.006508123129606247,-0.003875680034980178,-0.006194107234477997
1772702696567972400,4.352972412109375,0.005229094065725803,-0.0031106267124414444,-0.006206158548593521
1772702696578022100,4.363022216796875,0.005002725403755903,-0.007557306904345751,-0.0061337207444012165
1772702696588072200,4.373072265625,0.0048116957768797874,-0.01349748857319355,-0.008473118767142296
1772702696598122200,4.383122314453125,0.004201565869152546,-0.014702835120260715,-0.0072864145040512085
1772702696608172500,4.393172607421875,0.0021191108971834183,-0.013294592499732971,-0.005739323794841766
1772702696618222300,4.403222412109375,0.004284527152776718,-0.0006301966495811939,-0.001234054216183722
1772702696628272400,4.4132724609375,0.004718407057225704,0.006428011227399111,-0.0002280528424307704
1772702696638322400,4.423322509765625,0.0038627334870398045,0.003131550271064043,-0.004737317096441984
1772702696648372500,4.43337255859375,0.0032784664072096348,-0.00004563247784972191,-0.0018041604198515415
1772702696658422300,4.44342236328125,0.00645215529948473,-0.0017471262253820896,-0.004316320177167654
1772702696668472300,4.453472412109375,0.003674526233226061,-0.013120917603373528,-0.0024700877256691456
1772702696678522400,4.4635224609375,0.003092092927545309,-0.020208122208714485,0.0003291609464213252
1772702696688572400,4.473572509765625,0.004274601116776466,-0.021570976823568344,-0.000017479818779975176
1772702696698622200,4.483622314453125,0.004933467134833336,-0.02305462211370468,0.002068307949230075
1772702696708672300,4.49367236328125,0.00354249170050025,-0.01853969320654869,0.005166507791727781
1772702696718722300,4.503722412109375,0.0038895015604794025,-0.0103158513084054,0.0025542129296809435
1772702696728771300,4.513771240234375,0.0008643018663860857,-0.010370365343987942,0.0009776582010090351
1772702696738821400,4.5238212890625,0.0017266334034502506,-0.015436230227351189,0.003163314424455166
1772702696748871400,4.533871337890625,0.0016746938927099109,-0.006357438862323761,0.0027341588865965605
1772702696758921500,4.54392138671875,0.0027969498187303543,0.010642318055033684,0.0047565633431077
1772702696768971500,4.553971435546875,0.001255297800526023,0.00903912540525198,0.004458946641534567
1772702696779021300,4.564021240234375,0.0014518389943987131,0.0010272720828652382,0.006216366775333881
1772702696789071400,4.5740712890625,0.0006053053075447679,-0.006480248644948006,0.005103101022541523
1772702696799121400,4.584121337890625,-0.0015454634558409452,-0.0015251711010932922,0.005192317068576813
1772702696809171500,4.59417138671875,-0.0016457999590784311,0.003466810565441847,0.002133779227733612
1772702696819221200,4.60422119140625,-0.0027483487501740456,0.0000827317126095295,0.002446168102324009
1772702696829271300,4.614271240234375,-0.0006498500006273389,-0.004196779802441597,0.0030100017320364714
1772702696839321300,4.6243212890625,-0.0034962366335093975,0.0014283489435911179,0.0044398526661098
1772702696849371400,4.634371337890625,-0.004729013890028,0.003759413957595825,0.003886447986587882
1772702696859421200,4.644421142578125,-0.003155085723847151,0.0010320711880922318,0.0025751073844730854
1772702696869471200,4.65447119140625,-0.0004196633817628026,-0.0017475453205406666,0.0017300171311944723
1772702696879520500,4.6645205078125,-0.004155012778937817,0.002587814349681139,0.00042267137905582786
1772702696889570300,4.6745703125,-0.0032532266341149807,-0.0007306383922696114,0.001299925148487091
1772702696899620400,4.684620361328125,-0.002554412931203842,0.0001985379494726658,0.0010218911338597536
1772702696909670100,4.694670166015625,-0.0034118713811039925,0.003430553711950779,0.0010494005400687456
1772702696919720200,4.70472021484375,-0.0017892074538394809,-0.000619315542280674,0.002902694046497345
1772702696929770000,4.71477001953125,-0.0024467972107231617,-0.0038148043677210808,0.0014606087934225798
1772702696939820000,4.724820068359375,-0.002695270348340273,-0.0033761817030608654,0.0002512672508601099
1772702696949870000,4.7348701171875,-0.003095372812822461,-0.002797862980514765,-0.00207825331017375
1772702696959920000,4.744920166015625,0.0016573045868426561,-0.0052908482030034065,-0.0015091357054188848
1772702696969970000,4.754969970703125,-0.001830090768635273,-0.00615838635712862,-0.0011917100055143237
1772702696980020000,4.76502001953125,0.0025183185935020447,-0.0068827662616968155,-0.001597043126821518
1772702696990070000,4.775070068359375,0.0008680152823217213,-0.0023549003526568413,0.0000013678509276360273
1772702697000120000,4.7851201171875,0.002688285894691944,-0.0023216111585497856,-0.002360323444008827
1772702697010169900,4.795169921875,-0.0012898200657218695,-0.0017955279909074306,-0.00034822290763258934
1772702697020220200,4.80522021484375,-0.000019758474081754684,-0.003615532536059618,-0.000213466992136091
1772702697030270200,4.815270263671875,0.0005725484224967659,-0.005222171079367399,0.0018284779507666826
1772702697040319200,4.8253193359375,0.0012079786974936724,-0.004245323594659567,0.0006343166460283101
1772702697050369000,4.835369140625,0.0005283324862830341,-0.0012870095670223236,0.002794285537675023
1772702697060419000,4.845419189453125,-0.0010778199648484588,0.012755571864545345,0.004418015014380217
1772702697070469000,4.85546923828125,0.00019488739781081676,0.014142230153083801,0.0010482147336006165
1772702697080519200,4.865519287109375,0.002924627624452114,0.007544780150055885,0.003659976879134774
1772702697090569000,4.87556884765625,0.0039041806012392044,0.003315503243356943,0.0010659877443686128
1772702697100619000,4.885618896484375,0.0016269118059426546,0.0036739646457135677,-0.0018586956430226564
1772702697110669000,4.8956689453125,-0.001696738530881703,0.005893670953810215,-0.003950702492147684
1772702697120719000,4.905718994140625,0.0013720219722017646,0.0024320948868989944,-0.0024380269460380077
1772702697130769000,4.915768798828125,0.00025960709899663925,-0.004007283598184586,-0.0019221510738134384
1772702697140819200,4.925819091796875,0.00010807323269546032,0.0022271769121289253,-0.0028292236384004354
1772702697150869200,4.935869140625,-0.0016828966327011585,0.009243469685316086,-0.005657111760228872
1772702697160919300,4.945919189453125,-0.0013191087637096643,0.0042159538716077805,-0.005291459616273642
1772702697170969000,4.955968994140625,0.0008760765194892883,-0.005016918294131756,-0.0024807401932775974
1772702697181019100,4.96601904296875,0.0018475977703928947,-0.003114089835435152,-0.0027406648732721806
1772702697191069200,4.976069091796875,0.0005744212539866567,-0.0038728234358131886,-0.006226132623851299
1772702697201118000,4.986117919921875,0.0018780386308208108,-0.004994280636310577,-0.0021818564273416996
1772702697211168000,4.99616796875,0.00081264553591609,-0.005235334392637014,-0.0038473375607281923
1772702697221218000,5.006218017578125,0.005649744998663664,-0.008666817098855972,-0.00042996933916583657
1772702697231268000,5.01626806640625,0.0027035195380449295,-0.00898614339530468,-0.0026073420885950327
1772702697241318000,5.02631787109375,0.0027072480879724026,-0.006317389663308859,-0.004253176040947437
1772702697251368000,5.036367919921875,0.0024177327286452055,-0.007611140608787537,-0.006229268852621317
1772702697261418000,5.04641796875,0.004820170346647501,-0.007382907439023256,-0.005412477068603039
1772702697271468300,5.05646826171875,0.0017413849709555507,-0.006524699740111828,-0.008817997761070728
1772702697281518000,5.06651806640625,0.001792783965356648,-0.0076408302411437035,-0.007494673598557711
1772702697291568000,5.076568115234375,0.0036954530514776707,-0.0012524640187621117,-0.0033598162699490786
1772702697301618200,5.0866181640625,0.0013271039351820946,-0.004877292551100254,-0.0025853689294308424
1772702697311668200,5.096668212890625,0.0010647092713043094,-0.007349047809839249,-0.0007711797952651978
1772702697321718000,5.106718017578125,0.003986995667219162,-0.006971944123506546,-0.0015791828045621514
1772702697331768000,5.11676806640625,0.0036719441413879395,-0.00017848657444119453,-0.002315280493348837
1772702697341818000,5.126818115234375,0.0028146724216639996,0.0034940126352012157,-0.000411919376347214
1772702697351868200,5.1368681640625,0.0019336109980940819,0.0025047208182513714,0.0019572959281504154
1772702697361917000,5.1469169921875,-0.00019212428014725447,0.0014176187105476856,-0.0015828440664336085
1772702697371967000,5.156967041015625,0.00035943102557212114,-0.0017162715084850788,0.0023088091984391212
1772702697382017000,5.16701708984375,0.003069730009883642,-0.008100135251879692,-0.00004089769208803773
1772702697392067000,5.177067138671875,0.0018332889303565025,-0.00626746192574501,-0.0002788812853395939
1772702697402117000,5.1871171875,-0.0026501426473259926,-0.0003129001706838608,-0.004776161164045334
1772702697412167200,5.197167236328125,-0.002049470553174615,-0.0017405827529728413,-0.0002579026040621102
1772702697422217200,5.20721728515625,0.0009572382550686598,0.0007731751538813114,0.00002039773971773684
1772702697432267300,5.217267333984375,-0.0034958161413669586,0.001071031205356121,0.003227615961804986
1772702697442317000,5.227317138671875,0.0006616442697122693,-0.004244638606905937,0.0003484726184979081
1772702697452367000,5.2373671875,-0.00032805069349706173,0.0021521211601793766,0.0015558464219793677
1772702697462417200,5.247417236328125,-0.0042972257360816,-0.0013579251244664192,-0.00014325033407658339
1772702697472467200,5.25746728515625,-0.004096625372767448,-0.008531262166798115,0.0029106999281793833
1772702697482517000,5.26751708984375,-0.002882224041968584,-0.010240213014185429,0.0011373008601367474
1772702697492567000,5.277567138671875,-0.0032132072374224663,-0.007729880511760712,0.0005273001734167337
1772702697502617000,5.2876171875,-0.00198708800598979,-0.005574317649006844,0.0007286351174116135
1772702697512667100,5.297667236328125,-0.0021561821922659874,-0.008789969608187675,0.004015482496470213
1772702697522717000,5.307717041015625,-0.0021649706177413464,-0.0011778566986322403,0.005833090282976627
1772702697532766200,5.31776611328125,-0.0020957286469638348,0.003523155115544796,0.005082877818495035
1772702697542816300,5.327816162109375,-0.002790546976029873,0.005227046087384224,0.006556404754519463
1772702697552866000,5.337865966796875,-0.00028065568767488003,0.00474318815395236,0.007764354348182678
1772702697562916000,5.347916015625,-0.0028556659817695618,0.0051048449240624905,0.008724158629775047
1772702697572966100,5.357966064453125,-0.003392853308469057,-0.0029021878726780415,0.006939885672181845
1772702697583016200,5.36801611328125,-0.002338507678359747,-0.004723790101706982,0.002924904227256775
1772702697593066000,5.37806591796875,-0.003557013813406229,-0.0027535725384950638,0.0035857949405908585
1772702697603116000,5.388115966796875,-0.001491732313297689,-0.006632200442254543,0.00963942613452673
1772702697613166000,5.398166015625,-0.0032227137126028538,-0.0025361827574670315,0.008456673473119736
1772702697623216000,5.408216064453125,-0.0010391880059614778,0.00029688747599720955,0.003069364931434393
1772702697633266000,5.418265869140625,-0.0015143768396228552,0.00165110407397151,0.0030682221986353397
1772702697643315200,5.428315185546875,0.001383941387757659,0.0015464420430362225,0.0016205278225243092
1772702697653365200,5.438365234375,0.0016487404936924577,-0.0027870526537299156,0.0050009554252028465
1772702697663415300,5.448415283203125,0.00010996602941304445,-0.006330388598144054,0.002185727935284376
1772702697673465000,5.458465087890625,-0.001418172032572329,-0.008239458315074444,0.004235322121530771
1772702697683515100,5.46851513671875,0.001533675822429359,-0.006753680296242237,0.0034427654463797808
1772702697693565200,5.478565185546875,0.00011322589125484228,-0.00905038882046938,0.0034420443698763847
1772702697703615200,5.488615234375,0.003917285241186619,-0.004567755851894617,0.0015783640556037426
1772702697713665000,5.4986650390625,0.0034918056335300207,0.004317798651754856,-0.00012906250776723027
1772702697723715000,5.508715087890625,0.002314954763278365,0.00695672444999218,-0.0003490395611152053
1772702697733765000,5.51876513671875,0.002749804873019457,0.005725129973143339,-0.0008428542059846222
1772702697743815200,5.528815185546875,0.0021601810585707426,0.001566337887197733,0.003058144124224782
1772702697753865000,5.538864990234375,0.0030512819066643715,-0.0004801088944077492,0.00015249053831212223
1772702697763915000,5.5489150390625,0.0014009209116920829,0.0003047245554625988,0.00008963994332589209
1772702697773965000,5.558965087890625,-0.0016353022074326873,-0.001956196967512369,-0.005305390805006027
1772702697784015000,5.56901513671875,-0.0006488674553111196,-0.00027600862085819244,-0.0026752527337521315
1772702697794065000,5.57906494140625,0.0017076283693313599,-0.002255502622574568,0.0007423194474540651
1772702697804115000,5.589114990234375,0.0019707486499100924,-0.004367122892290354,-0.0016848855884745717
1772702697814164200,5.599164306640625,0.004510355647653341,-0.00719215115532279,0.0015259247738867998
1772702697824214000,5.609214111328125,0.005338066257536411,-0.0060853417962789536,-0.002247774275019765
1772702697834264000,5.61926416015625,0.006194740068167448,-0.005201590247452259,-0.0007213533390313387
1772702697844314000,5.629314208984375,0.007013129536062479,-0.0032867775298655033,0.0004602912813425064
1772702697854364200,5.6393642578125,0.00902183074504137,-0.00020720995962619781,-0.0016788449138402939
1772702697864414000,5.6494140625,0.008301977999508381,0.003078864887356758,0.0014226724160835147
1772702697874464000,5.659464111328125,0.00976874865591526,0.0012007937766611576,0.002293407218530774
1772702697884514000,5.66951416015625,0.00781132560223341,-0.004007816314697266,-0.0014432740863412619
1772702697894564000,5.679564208984375,0.005146507639437914,-0.006329559721052647,-0.005475873127579689
1772702697904614400,5.689614501953125,0.006102049723267555,-0.011634577065706253,-0.0024023191072046757
1772702697914664400,5.69966455078125,0.005410511512309313,-0.01557212881743908,-0.0029251615051180124
1772702697924714500,5.709714599609375,0.003935120068490505,-0.01232094131410122,-0.0030500637367367744
1772702697934764500,5.7197646484375,0.004552809055894613,-0.00435212254524231,-0.0047073024325072765
1772702697944814300,5.729814453125,0.0028933933936059475,-0.0035901921801269054,-0.0032018176279962063
1772702697954864400,5.739864501953125,0.00456174835562706,0.001777714118361473,-0.0029440470971167088
1772702697964914700,5.749914794921875,0.005340722389519215,0.0021974286064505577,-0.0028921151533722878
1772702697974964700,5.75996484375,0.0071694571524858475,0.002562323585152626,-0.00130831403657794
1772702697985014500,5.7700146484375,0.005546793341636658,0.002802274189889431,-0.001248659216798842
1772702697995064600,5.780064697265625,0.004770571365952492,-0.004571561701595783,0.001758779282681644
1772702698005114600,5.790114501953125,0.003650978207588196,-0.005614189431071281,-0.0017645827028900385
1772702698015164700,5.80016455078125,0.001208899891935289,-0.006112354341894388,-0.003916674759238958
1772702698025214500,5.81021435546875,0.0008826626581139863,-0.011120961979031563,-0.0005610917578451335
1772702698035264500,5.820264404296875,0.0022764387540519238,-0.00879480130970478,0.003859671065583825
1772702698045314600,5.830314453125,0.0042583635076880455,-0.006632581353187561,0.0014084975700825453
1772702698055364600,5.840364501953125,0.002768591046333313,-0.008076281286776066,-0.001682899659499526
1772702698065413400,5.850413330078125,0.00366380182094872,-0.005971206817775965,-0.0004500379436649382
1772702698075463400,5.86046337890625,0.0053641581907868385,-0.0035842941142618656,0.0025833440013229847
1772702698085513500,5.870513427734375,0.003456802573055029,-0.007488754577934742,0.001429396215826273
1772702698095563500,5.8805634765625,0.00477827712893486,-0.008958433754742146,0.0011691823601722717
1772702698105613600,5.890613525390625,0.0010519821662455797,-0.008170937187969685,-0.0005983576411381364
1772702698115663600,5.90066357421875,-0.0016378826694563031,-0.0061526051722466946,-0.0024966164492070675
1772702698125713700,5.910713623046875,-0.0012075159465894103,-0.004446051549166441,0.00006640976062044501
1772702698135763500,5.920763427734375,-0.0016575373010709882,-0.00599252013489604,0.0012010401114821434
1772702698145813500,5.9308134765625,-0.002878862898796797,-0.009787257760763168,-0.0021156605798751116
1772702698155863600,5.940863525390625,-0.0008091846248134971,-0.009199532680213451,0.0015366601292043924
1772702698165913600,5.95091357421875,-0.0011268997332081199,-0.0020537390373647213,-0.002240234985947609
1772702698175963400,5.96096337890625,-0.0015830605989322066,-0.0015624947845935822,-0.004061233717948198
1772702698186013400,5.971013427734375,-0.00023683265317231417,-0.004270663484930992,0.0006874488899484277
1772702698196063500,5.9810634765625,-0.0014119984116405249,-0.004155933856964111,-0.0008947256719693542
1772702698206113500,5.991113525390625,-0.0032059040386229753,-0.003317571245133877,-0.00026568700559437275
1772702698216163300,6.001163330078125,-0.004606170114129782,-0.002194004599004984,-0.0004364374908618629
1772702698226213400,6.01121337890625,-0.0011840078514069319,-0.008376266807317734,0.0029564297292381525
1772702698236262700,6.0212626953125,-0.0009026487823575735,-0.008159714750945568,-0.0008029488380998373
1772702698246312700,6.031312744140625,-0.0019767016638070345,-0.007853717543184757,0.001164860907010734
1772702698256362500,6.041362548828125,-0.0034740741830319166,-0.0044652679935097694,0.00005147670162841678
1772702698266412500,6.05141259765625,-0.001502269646152854,-0.0022346042096614838,0.00032418439514003694
1772702698276462600,6.061462646484375,-0.0008182189194485545,-0.00041558360680937767,0.00007921090582385659
1772702698286512600,6.0715126953125,-0.000801174552179873,0.0004688519984483719,0.004421229008585215
1772702698296562400,6.0815625,-0.00016355677507817745,0.002680833451449871,0.002717320341616869
1772702698306612500,6.091612548828125,-0.002629377879202366,0.004109087400138378,0.0052228220738470554
1772702698316662500,6.10166259765625,-0.0009165690280497074,0.0004131891764700413,0.0010871386621147394
1772702698326712600,6.111712646484375,-0.0022862327750772238,0.0024491758085787296,0.0033505591563880444
1772702698336762400,6.121762451171875,-0.00040836608968675137,-0.0002626432105898857,0.003500186838209629
1772702698346812400,6.1318125,-0.00019344897009432316,-0.0015950226224958897,0.005997166503220797
1772702698356862500,6.141862548828125,-0.0029021427035331726,-0.0034401356242597103,0.005918724462389946
1772702698366912500,6.15191259765625,-0.002964193932712078,-0.0017602136358618736,0.004292597994208336
1772702698376962300,6.16196240234375,-0.00014936982188373804,0.0022084671072661877,0.0044065210968256
1772702698387012600,6.1720126953125,-0.0017406085971742868,0.004460968542844057,0.006369536742568016
1772702698397062700,6.182062744140625,0.0002087784232571721,0.015707990154623985,0.006098829209804535
1772702698407111400,6.192111328125,-0.0019718180410563946,0.015045395120978355,0.0049720462411642075
1772702698417161500,6.202161376953125,0.0028752638027071953,0.01171435508877039,0.006376804318279028
1772702698427211500,6.21221142578125,-0.002593537326902151,0.003782927989959717,0.003984220325946808
1772702698437261600,6.222261474609375,-0.0010832827538251877,-0.0061001041904091835,0.001061838585883379
1772702698447311400,6.232311279296875,-0.0016665151342749596,-0.006582402624189854,0.001070627011358738
1772702698457361400,6.242361328125,-0.003380575217306614,-0.009290605783462524,0.00012800659169442952
1772702698467411500,6.252411376953125,0.0006322760018520057,-0.008638929575681686,0.00044518907088786364
1772702698477461500,6.26246142578125,0.0008819354698061943,-0.00654770340770483,0.00630529411137104
1772702698487511300,6.27251123046875,0.002627104986459017,-0.002271998208016157,0.006283190101385117
1772702698497561300,6.282561279296875,0.006707764230668545,-0.00041231513023376465,0.006198919843882322
1772702698507611400,6.292611328125,0.006682464852929115,0.006866370793431997,0.0014622214948758483
1772702698517661700,6.30266162109375,0.004237204324454069,0.007588052190840244,0.0013815127313137054
1772702698527711500,6.31271142578125,0.006642038933932781,-0.0012805401347577572,0.0034646373242139816
1772702698537761500,6.322761474609375,0.006671111099421978,-0.008809618651866913,0.004403070546686649
1772702698547811600,6.3328115234375,0.007478581741452217,-0.011775847524404526,0.0029415281023830175
1772702698557861600,6.342861572265625,0.004950972273945808,-0.012159708887338638,0.0005594026879407465
1772702698567911400,6.352911376953125,0.00824263971298933,-0.012374093756079674,-0.001578849391080439
1772702698577961500,6.36296142578125,0.005784840788692236,-0.01730736903846264,0.0015324698761105537
1772702698588010500,6.373010498046875,0.004767513368278742,-0.016566744074225426,0.000021658604964613914
1772702698598060500,6.383060546875,0.0060432786121964455,-0.006841487251222134,-0.00003270222805440426
1772702698608110300,6.3931103515625,0.003405683906748891,0.0014297585003077984,0.0012959488667547703
1772702698618160400,6.403160400390625,0.0074172113090753555,0.007372260559350252,0.00016635612701065838
1772702698628210400,6.41321044921875,0.006745029706507921,0.007797833997756243,-0.003311465959995985
1772702698638260500,6.423260498046875,0.005644685123115778,0.006516129709780216,-0.0012012207880616188
1772702698648310500,6.433310546875,0.004735215567052364,0.001865185797214508,-0.0011144017335027456
1772702698658360600,6.443360595703125,0.0036340460646897554,-0.002335913944989443,-0.0010705965105444193
1772702698668410600,6.45341064453125,0.0025040670298039913,-0.007554111536592245,-0.00023409759160131216
1772702698678460700,6.463460693359375,0.00010611861944198608,-0.009954800829291344,-0.002601924818009138
1772702698688510500,6.473510498046875,0.00114049029070884,-0.011453094892203808,-0.004227784927934408
1772702698698560500,6.483560546875,0.0014874815242365003,-0.014517972245812416,-0.003749186173081398
1772702698708610600,6.493610595703125,0.0011375421890988946,-0.0037095327861607075,-0.004317238461226225
1772702698718660600,6.50366064453125,0.0020552524365484715,0.0024624918587505817,-0.0011120997369289398
1772702698728710400,6.51371044921875,0.0030850968323647976,0.0017394437454640865,0.0016583865508437157
1772702698738760400,6.523760498046875,0.0037453826516866684,0.005076310597360134,-0.0002439772360958159
1772702698748810500,6.533810546875,0.0050428747199475765,0.002517545595765114,0.0029179940465837717
1772702698758859500,6.543859619140625,0.0013103599194437265,-0.004311452154070139,0.0023429628927260637
1772702698768909600,6.55390966796875,0.0016214171191677451,-0.008540552109479904,0.0017922210972756147
1772702698778959600,6.563959716796875,0.0022771088406443596,-0.0064499257132411,0.0010077519109472632
1772702698789009700,6.574009765625,0.0013458014000207186,-0.001254897564649582,0.002884215209633112
1772702698799059500,6.5840595703125,-0.001371317426674068,0.002163107506930828,0.003885340876877308
1772702698809109500,6.594109619140625,-0.0018877043621614575,0.0067498693242669106,0.004916783422231674
1772702698819159600,6.60415966796875,-0.002137347124516964,0.008723701350390911,0.0028061845805495977
1772702698829209600,6.614209716796875,-0.0030201845802366734,0.006332448683679104,0.005314616020768881
1772702698839259400,6.62425927734375,-0.0030540069565176964,0.004686614498496056,0.004143091384321451
1772702698849309400,6.634309326171875,-0.0032763807103037834,0.0030144164338707924,0.0056493752636015415
1772702698859359500,6.644359375,-0.002644428052008152,0.00046272343024611473,0.005386279430240393
1772702698869409500,6.654409423828125,-0.0008217603899538517,0.0016904412768781185,0.008279005065560341
1772702698879459600,6.66445947265625,-0.0038935081101953983,0.004309967625886202,0.006749836262315512
1772702698889509400,6.67450927734375,-0.001949134049937129,0.007210682611912489,0.009115789085626602
1772702698899559400,6.684559326171875,-0.0051373885944485664,0.016882482916116714,0.006144043989479542
1772702698909609200,6.694609130859375,-0.0038750506937503815,0.011310619302093983,0.008530235849320889
1772702698919659300,6.7046591796875,-0.006606276147067547,0.009728356264531612,0.007512608077377081
1772702698929708500,6.71470849609375,-0.005988689139485359,0.007388237863779068,0.00769050745293498
1772702698939758300,6.72475830078125,-0.00862601026892662,0.004343637265264988,0.006483417470008135
1772702698949808400,6.734808349609375,-0.005361773539334536,0.0015033753588795662,0.005681805778294802
1772702698959858400,6.7448583984375,-0.006421120837330818,0.00209082942456007,0.004319048020988703
1772702698969908500,6.754908447265625,-0.006006999872624874,0.0021709902212023735,0.008267982862889767
1772702698979958300,6.764958251953125,-0.007872335612773895,0.0002184007316827774,0.006299126427620649
1772702698990008300,6.77500830078125,-0.0053846766240894794,0.0016943244263529778,0.006981428246945143
1772702699000058400,6.785058349609375,-0.005361651070415974,0.011438408866524696,0.0056864176876842976
1772702699010108400,6.7951083984375,-0.0037890546955168247,0.01128261350095272,0.00430024228990078
1772702699020158200,6.805158203125,-0.003135514911264181,0.012272777035832405,0.006657139863818884
1772702699030208300,6.815208251953125,-0.0032502971589565277,0.009752893820405006,0.004785203840583563
1772702699040258300,6.82525830078125,-0.002487488090991974,0.00019747577607631683,0.008120358921587467
1772702699050308400,6.835308349609375,-0.0026281033642590046,0.0025964519008994102,0.005575176328420639
1772702699060358400,6.8453583984375,-0.0009486631024628878,0.005590943619608879,0.006071982439607382
1772702699070408400,6.855408447265625,-0.0021974192932248116,0.010784907266497612,0.0038064313121140003
1772702699080458500,6.86545849609375,-0.002412934321910143,0.009893128648400307,0.004260930232703686
1772702699090508500,6.875508544921875,-0.002368725836277008,0.003214187454432249,0.001965019153431058
1772702699100558300,6.885558349609375,-0.0017805479001253843,0.0013721589930355549,0.000657443015370518
1772702699110607400,6.895607421875,-0.00019064079970121384,0.002628637943416834,0.0005376007757149637
1772702699120657400,6.905657470703125,-0.0040532066486775875,0.0021178415045142174,0.00008174244430847466
1772702699130707200,6.915707275390625,-0.006587737239897251,-0.004262560047209263,-0.0023329455871134996
1772702699140757200,6.92575732421875,0.000014624791219830513,-0.00918982457369566,0.002458435483276844
1772702699150807300,6.935807373046875,0.002319058170542121,-0.007195916026830673,0.0020286014769226313
1772702699160857300,6.945857421875,0.0018856886308640242,-0.0060468376614153385,-0.0007791259558871388
1772702699170907400,6.955907470703125,0.002854546532034874,0.0008494183421134949,-0.0018467871705070138
1772702699180957400,6.96595751953125,0.0050881486386060715,0.003572956658899784,-0.00017047394067049026
1772702699191007500,6.976007568359375,0.0063669984228909016,0.0029013073071837425,-0.001576356589794159
1772702699201057500,6.9860576171875,0.004863131325691938,-0.001920502632856369,-0.002132188528776169
1772702699211107600,6.996107666015625,0.003066828940063715,-0.0059850187972188,-0.0008283047936856747
1772702699221157400,7.006157470703125,0.0012516470160335302,-0.0035102167166769505,-0.0021751730237156153
1772702699231207400,7.01620751953125,0.00011341203935444355,-0.001470235176384449,-0.0010172304464504123
1772702699241257500,7.026257568359375,-0.0002283001085743308,-0.007564273662865162,-0.0016919678309932351
1772702699251307500,7.0363076171875,0.00042364175897091627,-0.013951599597930908,-0.0053487541154026985
1772702699261357300,7.046357421875,0.003682926995679736,-0.018689699470996857,-0.004561820067465305
1772702699271407400,7.056407470703125,0.0008732920396141708,-0.01034601591527462,-0.0027383535634726286
1772702699281456400,7.066456298828125,0.0008982921717688441,-0.003635239787399769,-0.0011348800035193563
1772702699291506200,7.076506103515625,0.005182785913348198,0.0017848252318799496,0.0013317398261278868
1772702699301556200,7.08655615234375,0.0051069194450974464,0.004849981050938368,0.0022859659511595964
1772702699311606500,7.0966064453125,0.005538085009902716,0.0030169268138706684,-0.0004120824742130935
1772702699321656600,7.106656494140625,0.005769927520304918,0.005188618320971727,0.0033436857629567385
1772702699331706400,7.116706298828125,0.007036260329186916,0.0033696792088449,-0.0015477421693503857
1772702699341756400,7.12675634765625,0.002400633879005909,-0.0019388389773666859,-0.0044710347428917885
1772702699351806500,7.136806396484375,0.001577184651978314,-0.00928516872227192,-0.0027620848268270493
1772702699361856500,7.1468564453125,0.0015141131589189172,-0.01129288412630558,-0.004035476129502058
1772702699371906300,7.15690625,0.0013599161757156253,-0.006833154708147049,-0.004760122392326593
1772702699381956400,7.166956298828125,0.0028016320429742336,-0.003542136400938034,-0.0064483871683478355
1772702699392006400,7.17700634765625,0.003263424150645733,-0.001170325092971325,-0.006679017096757889
1772702699402056400,7.187056396484375,0.003432822646573186,0.0035012331791222095,-0.006672124844044447
1772702699412106200,7.197106201171875,0.003015238791704178,0.0071340505965054035,-0.006546156946569681
1772702699422156300,7.20715625,0.0014515288639813662,0.00895939115434885,-0.005704212933778763
1772702699432206300,7.217206298828125,0.004783143289387226,0.0011131856590509415,-0.0034208185970783234
1772702699442256400,7.22725634765625,0.0013408057857304811,-0.003789542242884636,-0.006352855823934078
1772702699452306200,7.23730615234375,0.0025618651416152716,-0.00820106826722622,-0.005135790910571814
1772702699462355500,7.24735546875,-0.0001578007359057665,-0.005547268781810999,-0.005305033642798662
1772702699472405500,7.257405517578125,-0.00043450307566672564,-0.007213342469185591,-0.00484004570171237
1772702699482455600,7.26745556640625,0.000016876147128641605,-0.0014774627052247524,-0.004169819876551628
1772702699492505300,7.27750537109375,-0.002279834123328328,0.0023793275468051434,-0.0016078588087111712
1772702699502555400,7.287555419921875,-0.00030842528212815523,0.003415791317820549,-0.004845137242227793
1772702699512605400,7.29760546875,0.00019917322788387537,0.0062720319256186485,-0.003718353807926178
1772702699522655500,7.307655517578125,-0.00045586179476231337,0.004602336790412664,-0.0029515845235437155
1772702699532705300,7.317705322265625,-0.002937661949545145,0.013355348259210587,-0.003208579495549202
1772702699542755300,7.32775537109375,-0.0005693330895155668,0.010347999632358551,-0.00011502084089443088
1772702699552805400,7.337805419921875,-0.0028740328270941973,0.006532755214720964,0.00044823772623203695
1772702699562855400,7.34785546875,-0.005192856304347515,0.003980990964919329,0.0016782325692474842
1772702699572905200,7.3579052734375,-0.0053744837641716,0.003921602386981249,0.001371170161291957
1772702699582955300,7.367955322265625,-0.004475167952477932,0.006546823773533106,-0.00030796852661296725
1772702699593005300,7.37800537109375,-0.0040328167378902435,0.01113491877913475,-0.002645957749336958
1772702699603055400,7.388055419921875,-0.003282817779108882,0.011296804994344711,-0.0017705898499116302
1772702699613105400,7.39810546875,-0.0028362057637423277,0.007988626137375832,-0.0021934998221695423
1772702699623155500,7.408155517578125,-0.005432852078229189,0.007151973899453878,-0.0005389816360548139
1772702699633204500,7.41820458984375,-0.0013603460974991322,0.00850432738661766,-0.0020905393175780773
1772702699643254300,7.428254150390625,-0.004025463946163654,0.007182414643466473,-0.006726497318595648
1772702699653304300,7.43830419921875,-0.001714638783596456,0.003021758049726486,-0.0024409382604062557
1772702699663354400,7.448354248046875,-0.0034214083570986986,-0.0007955827750265598,-0.002819779794663191
1772702699673404400,7.458404296875,-0.003044837387278676,0.004950986243784428,-0.003171849763020873
1772702699683454200,7.4684541015625,-0.0034041297622025013,0.0013611228205263615,-0.004508911166340113
1772702699693504300,7.478504150390625,-0.0008664039196446538,0.0032146829180419445,-0.004743002820760012
1772702699703554300,7.48855419921875,-0.0022938032634556293,0.0014569605700671673,-0.004593880847096443
1772702699713604400,7.498604248046875,-0.0007371854735538363,0.004847164731472731,-0.005965941585600376
1772702699723654100,7.508654052734375,0.00037575862370431423,0.012673851102590561,-0.004990573041141033
1772702699733704400,7.518704345703125,-0.0017707491060718894,0.015598800033330917,-0.0065634362399578094
1772702699743754500,7.52875439453125,-0.0026971250772476196,0.012026664800941944,-0.0015707488637417555
1772702699753804500,7.538804443359375,-0.0017759372713044286,0.007613540627062321,-0.0010511663276702166
1772702699763854300,7.548854248046875,-0.0030679749324917793,0.005421264562755823,-0.00342277018353343
1772702699773904400,7.558904296875,-0.004135369788855314,0.005896373186260462,-0.0036446114536374807
1772702699783954400,7.568954345703125,-0.009174887090921402,0.0067945439368486404,-0.00497989309951663
1772702699794004500,7.57900439453125,-0.004735663998872042,0.0020170994102954865,-0.0046203662641346455
1772702699804053200,7.58905322265625,-0.003001693869009614,-0.005238800775259733,-0.004544442985206842
1772702699814103300,7.599103271484375,-0.0006780859548598528,-0.00959892850369215,-0.0018828797619789839
1772702699824153300,7.6091533203125,-0.0014117727987468243,-0.0030144108459353447,-0.002769469516351819
1772702699834203400,7.619203369140625,-0.00009191024582833052,0.005184397101402283,-0.0021904981695115566
1772702699844253200,7.629253173828125,0.005610680673271418,0.007726798765361309,-0.0058717988431453705
1772702699854303200,7.63930322265625,0.004758468829095364,0.004756574518978596,0.00018955543055199087
1772702699864353500,7.649353515625,0.004218029789626598,0.005571506917476654,0.0006542035262100399
1772702699874403600,7.659403564453125,0.0033972435630857944,0.0043642958626151085,-0.0025064360816031694
1772702699884453400,7.669453369140625,0.0018412225181236863,0.0037854770198464394,-0.0014631722588092089
1772702699894503400,7.67950341796875,0.006223454140126705,-0.007386484183371067,-0.0015041849110275507
1772702699904553500,7.689553466796875,0.0025776063557714224,-0.010588559322059155,-0.0008940848056226969
1772702699914603000,7.69960302734375,0.0024473778903484344,-0.012345446273684502,-0.0036834795027971268
1772702699924653000,7.709653076171875,0.00215527368709445,-0.013728650286793709,-0.0022273962385952473
1772702699934702800,7.719702880859375,0.002910546027123928,-0.005306403152644634,-0.004011713899672031
1772702699944753000,7.7297529296875,-0.0011703746858984232,0.0009549488313496113,-0.002704792656004429
1772702699954803000,7.739802978515625,0.0026286246720701456,0.006879683118313551,-0.004267801996320486
1772702699964853000,7.74985302734375,0.0007967143319547176,0.004601087886840105,-0.0030053830705583096
1772702699974902800,7.75990283203125,0.0024241721257567406,0.0023176935501396656,-0.000534235849045217
1772702699984952000,7.7699521484375,0.0009593766881152987,0.0038021793588995934,-0.00043248559813946486
1772702699995002000,7.780002197265625,0.0014051898615434766,-0.0008466346189379692,-0.002860489534214139
1772702700005052000,7.790052001953125,0.00020864058751612902,-0.0027695135213434696,-0.000937035249080509
1772702700015102000,7.80010205078125,0.0024891053326427937,-0.003452614415436983,-0.005027916748076677
1772702700025152000,7.810152099609375,-0.0006327163428068161,-0.0009251614101231098,-0.00429218914359808
1772702700035202000,7.8202021484375,0.0013622576370835304,-0.0037297364324331284,-0.002013321965932846
1772702700045251800,7.830251953125,-0.00016194279305636883,0.0011714701540768147,-0.004344076383858919
1772702700055302000,7.840302001953125,0.0001467176480218768,-0.0006400123238563538,-0.0013256499078124762
1772702700065352000,7.85035205078125,0.002220956841483712,0.0028798766434192657,-0.002176916692405939
1772702700075402000,7.860402099609375,0.003419112879782915,0.0006010094657540321,-0.00011110276682302356
1772702700085452000,7.8704521484375,0.0020284911151975393,-0.0016073882579803467,0.0027695181779563427
1772702700095501800,7.880501708984375,0.0018910720245912671,0.0000035581178963184357,0.0006624251836910844
1772702700105552000,7.8905517578125,0.002030711155384779,0.0008538304828107357,0.0010871300473809242
1772702700115602000,7.900601806640625,-0.0012548307422548532,-0.003825610037893057,0.0009366614976897836
1772702700125652000,7.91065185546875,-0.0008810124127194285,-0.006601880304515362,-0.00204654224216938
1772702700135702000,7.920701904296875,0.00008997623808681965,-0.004977618344128132,-0.0010209588799625635
1772702700145752000,7.930751953125,-0.00022974761668592691,-0.0008702734485268593,0.003402035217732191
1772702700155802000,7.940802001953125,-0.000626292428933084,-0.0013395226560533047,-0.0011772704310715199
1772702700165851000,7.950850830078125,-0.000305220833979547,-0.002362544648349285,0.001825668616220355
1772702700175901000,7.96090087890625,-0.00121868506539613,-0.006081382744014263,0.002497317735105753
1772702700185951000,7.970950927734375,-0.002379290759563446,0.001661225687712431,0.0016925105592235923
1772702700196001000,7.9810009765625,-0.002713251393288374,0.007032022345811129,0.0011018214281648397
1772702700206050800,7.99105078125,-0.0019391786772757769,0.004491969011723995,0.0021641855128109455
1772702700216100900,8.001100830078125,-0.0030364010017365217,0.002830423414707184,0.007084375713020563
1772702700226151000,8.01115087890625,-0.004020216874778271,-0.0007508788257837296,0.005181482061743736
1772702700236201000,8.021200927734375,-0.0018627902027219534,-0.0025663557462394238,0.004893860779702663
1772702700246250800,8.031250732421874,-0.0032892832532525063,-0.001170857809484005,0.004121166188269854
1772702700256300800,8.04130078125,-0.0012943096226081252,0.002810301724821329,0.0053981514647603035
1772702700266351000,8.05135107421875,-0.001744714449159801,0.004388072062283754,0.004488844890147448
1772702700276401200,8.061401123046876,-0.0016025014920160174,0.003651974257081747,0.0018938607536256313
1772702700286451000,8.071450927734375,0.00007616309449076653,-0.00416539516299963,0.0027617402374744415
1772702700296501000,8.0815009765625,0.0002362190280109644,-0.00046093808487057686,0.0023164595477283
1772702700306551000,8.091551025390626,-0.0012011631624773145,-0.00006473343819379807,-0.0008143076556734741
1772702700316601000,8.10160107421875,-0.00118172203656286,-0.0030863559804856777,-0.00018180691404268146
1772702700326651000,8.11165087890625,-0.0033035269007086754,-0.004224742762744427,0.0003059806185774505
1772702700336701000,8.121700927734375,-0.0027791503816843033,-0.0022422857582569122,0.0013619239907711744
1772702700346750000,8.13175,-0.004052086267620325,0.006331725046038628,0.002805075841024518
1772702700356800000,8.141800048828125,-0.0032161204144358635,0.006178326904773712,0.002456468064337969
1772702700366849800,8.151849853515625,-0.0017170814098790288,0.004329330287873745,0.0016466157976537943
1772702700376899800,8.16189990234375,-0.002024676650762558,0.005007637664675713,0.003276204224675894
1772702700386950100,8.1719501953125,-0.0008313881698995829,0.01190195418894291,0.0002628817455843091
1772702700397000200,8.182000244140625,-0.002676958916708827,0.010025490075349808,-0.0006822741124778986
1772702700407050000,8.192050048828126,-0.004192112945020199,0.0006240000948309898,0.0008114168304018676
1772702700417100000,8.20210009765625,-0.0010381313040852547,0.0012937849387526512,0.0003690657904371619
1772702700427150000,8.212150146484374,-0.0030106527265161276,-0.0039534419775009155,-0.0012218306073918939
1772702700437200100,8.2222001953125,-0.0030407465528696775,-0.006722064223140478,-0.0042841993272304535
1772702700447250000,8.23225,-0.005883889738470316,-0.005204023793339729,-0.0075608231127262115
1772702700457300000,8.242300048828126,-0.0011282830964773893,-0.0046484884805977345,-0.0029303845949470997
1772702700467350000,8.25235009765625,-0.0005875889910385013,0.0005591334775090218,-0.005912368651479483
1772702700477400000,8.262400146484374,-0.00006028322968631983,-0.0013333088718354702,-0.0057006473653018475
1772702700487449900,8.272449951171875,0.003968886565417051,-0.0038880035281181335,-0.003096652217209339
1772702700497500000,8.2825,0.0038847303949296474,-0.0027548284269869328,-0.0040580532513558865
1772702700507550000,8.292550048828126,0.002599480329081416,-0.001339548733085394,-0.0021875686943531036
1772702700517599000,8.302598876953125,0.0029121353290975094,-0.003396308049559593,-0.0031601551454514265
1772702700527649000,8.31264892578125,0.004543991293758154,-0.009165018796920776,-0.00021250848658382893
1772702700537699000,8.322698974609375,0.0036025638692080975,-0.009295779280364513,-0.0024663417134433985
1772702700547749000,8.3327490234375,-0.0001113977050408721,-0.011056930758059025,-0.0024180631153285503
1772702700557799000,8.342798828125,0.0009208435076288879,-0.007491756696254015,-0.0037578996270895004
1772702700567849000,8.352848876953125,0.0021219756454229355,-0.007569747511297464,-0.003199569880962372
1772702700577899000,8.36289892578125,0.0026191878132522106,-0.006398489233106375,-0.001026164274662733
1772702700587949000,8.372948974609375,0.002729984000325203,0.00004388764500617981,-0.002795714884996414
1772702700597998800,8.382998779296875,0.0033390489406883717,0.001817020121961832,0.003961523529142141
1772702700608049000,8.393048828125,0.0016392817487940192,0.005560930818319321,0.0025462601333856583
1772702700618099000,8.403098876953125,0.0036012325435876846,0.006589709781110287,0.00529490876942873
1772702700628149000,8.41314892578125,0.0006168942200019956,0.005778777413070202,0.003032020526006818
1772702700638198800,8.42319873046875,0.0014145401073619723,0.002420562319457531,0.0036869808100163937
1772702700648248800,8.433248779296875,0.0003170144045725465,0.003759643528610468,0.006096399389207363
1772702700658299000,8.443298828125,0.0002959753619506955,0.00157585134729743,0.0062972018495202065
1772702700668349000,8.453348876953125,0.00016914424486458302,0.0022841007448732853,0.005901885684579611
1772702700678398700,8.463398681640625,-0.0010681604035198689,0.0037765358574688435,0.005998292472213507
1772702700688449000,8.473448974609376,-0.001859918236732483,0.00417787441983819,0.00543050654232502
1772702700698499000,8.4834990234375,-0.001312372274696827,0.006095083896070719,0.00422808900475502
1772702700708548000,8.493548095703124,-0.001062567811459303,0.005255922209471464,0.0034509787801653147
1772702700718598000,8.503597900390625,-0.0006228799466043711,0.0038481750525534153,0.0015191216953098774
1772702700728648000,8.51364794921875,-0.0006487492937594652,-0.0010111471638083458,0.00023892775061540306
1772702700738698000,8.523697998046876,-0.0008077400270849466,-0.006749993190169334,0.0012852837098762393
1772702700748748000,8.533748046875,0.0003410198260098696,-0.0022229249589145184,0.002115449635311961
1772702700758797800,8.5437978515625,0.0028302764985710382,0.0019364003092050552,0.0004893235163763165
1772702700768848000,8.553847900390625,0.0006642530206590891,0.006244522053748369,0.0024119047448039055
1772702700778898000,8.56389794921875,0.002256557112559676,0.0037083937786519527,0.0003506180364638567
1772702700788948000,8.573947998046876,0.00015749887097626925,0.006424061022698879,0.0014349229168146849
1772702700798997800,8.583997802734375,-0.00019616889767348766,0.0018173251301050186,-0.00008387782145291567
1772702700809048000,8.594048095703124,0.0023304452188313007,-0.00013576168566942215,0.002293216297402978
1772702700819098000,8.60409814453125,0.000436138769146055,-0.0027515185065567493,0.0006468501524068415
1772702700829148200,8.614148193359375,-0.0043800026178359985,-0.011036879383027554,0.003170118434354663
1772702700839198000,8.624197998046874,-0.0017176407855004072,-0.01887589320540428,0.004026857204735279
1772702700849248000,8.634248046875,-0.0015807276358827949,-0.0016587874852120876,-0.001968891592696309
1772702700859298000,8.644298095703125,-0.0012470335932448506,0.00763990543782711,-0.00010654306970536709
1772702700869348000,8.65434814453125,-0.00031169329304248095,0.00003935955464839935,0.001069253426976502
1772702700879398000,8.66439794921875,-0.004479806870222092,0.0018359278328716755,0.003485805820673704
1772702700889447000,8.674447021484376,-0.0013100762153044343,0.00586418341845274,0.0018550963141024113
1772702700899497000,8.6844970703125,0.001365601783618331,0.005364041775465012,-0.004094937816262245
1772702700909547000,8.694547119140625,0.0008488741586916149,0.003238765522837639,-0.0046653421595692635
1772702700919597000,8.70459716796875,0.0014369001146405935,-0.0007357359863817692,0.00007348664803430438
1772702700929647000,8.714647216796875,-0.0004200580297037959,-0.002699398435652256,-0.00036689662374556065
1772702700939697200,8.724697265625,0.0007623854326084256,-0.000283112283796072,-0.0033951769582927227
1772702700949747200,8.734747314453125,-0.002303583547472954,-0.0039680893532931805,-0.0020777706522494555
1772702700959797200,8.74479736328125,-0.0031115866731852293,-0.002510807476937771,-0.004507638514041901
1772702700969847300,8.754847412109376,-0.0010553691536188126,0.0040710060857236385,-0.004875540733337402
1772702700979897000,8.76489697265625,0.00171325309202075,0.006989830639213324,-0.005763438530266285
1772702700989947100,8.774947021484374,-0.00009048683568835258,0.002447654027491808,-0.008610120043158531
1772702700999997200,8.7849970703125,0.0016493563307449222,0.007309786509722471,-0.0063277906738221645
1772702701010047200,8.795047119140625,0.0020477380603551865,0.0033799917437136173,-0.006175816059112549
1772702701020097000,8.805096923828126,0.0020863539539277554,0.012171618640422821,-0.0076149883680045605
1772702701030147000,8.81514697265625,0.001767122419551015,0.007275396957993507,-0.005658287089318037
1772702701040197000,8.825197021484374,0.0023532842751592398,-0.009693199768662453,-0.0026635625399649143
1772702701050247200,8.8352470703125,-0.0015615528682246804,-0.016589799895882607,-0.001350239384919405
1772702701060297000,8.845296875,0.0016957593616098166,0.014039481990039349,-0.006611047778278589
1772702701070347000,8.855346923828124,-0.0019563809037208557,0.03192618861794472,-0.008986765518784523
1772702701080396300,8.865396240234375,-0.0015497159911319613,0.017964830622076988,-0.006265547126531601
1772702701090446300,8.8754462890625,-0.0003213927848264575,0.04728630930185318,0.07976969331502914
1772702701100496100,8.88549609375,-0.00655212439596653,0.027693167328834534,0.12172006815671921
1772702701110546200,8.895546142578125,-0.004150042776018381,-0.050702229142189026,0.03747423738241196
1772702701120596200,8.90559619140625,0.00017732789274305105,-0.033604204654693604,-0.03641996532678604
1772702701130646300,8.915646240234375,-0.00030367798171937466,-0.0012037670239806175,-0.05628768727183342
1772702701140696000,8.925696044921875,0.004671639762818813,-0.01881258748471737,-0.05294249206781387
1772702701150746000,8.93574609375,0.0025027613155543804,-0.0187073927372694,-0.0505690835416317
1772702701160796200,8.945796142578125,0.0035565742291510105,-0.00000374671071767807,-0.03743916377425194
1772702701170846200,8.95584619140625,0.003954440820962191,0.01597236841917038,-0.011775464750826359
1772702701180896000,8.96589599609375,0.004066559951752424,0.008898213505744934,0.024687204509973526
