time,seconds_elapsed,z,y,x
1772702676068611800,0.05961181640625,-0.2493896484375,0.465545654296875,0.8503265380859375
1772702676078662000,0.069661865234375,-0.255157470703125,0.465240478515625,0.8456878662109375
1772702676088711700,0.079711669921875,-0.2570037841796875,0.4655303955078125,0.845977783203125
1772702676098761700,0.08976171875,-0.2561187744140625,0.4642181396484375,0.8497314453125
1772702676108811800,0.099811767578125,-0.253143310546875,0.4638214111328125,0.8516082763671875
1772702676118861800,0.10986181640625,-0.2511444091796875,0.4623565673828125,0.8524322509765625
1772702676128912000,0.119911865234375,-0.252532958984375,0.4629669189453125,0.85125732421875
1772702676138961000,0.1299609375,-0.2508544921875,0.462554931640625,0.8491973876953125
1772702676149011000,0.140010986328125,-0.253692626953125,0.4646453857421875,0.8501129150390625
1772702676159061000,0.15006103515625,-0.2553558349609375,0.4684600830078125,0.8508453369140625
1772702676169110800,0.16011083984375,-0.253875732421875,0.4707183837890625,0.848907470703125
1772702676179160800,0.170160888671875,-0.2523345947265625,0.46905517578125,0.8496246337890625
1772702676189211000,0.1802109375,-0.2519378662109375,0.4665985107421875,0.8486175537109375
1772702676199261000,0.190260986328125,-0.251312255859375,0.4653472900390625,0.848876953125
1772702676209310700,0.200310791015625,-0.250091552734375,0.46331787109375,0.8521881103515625
1772702676219360800,0.21036083984375,-0.2498626708984375,0.465667724609375,0.8507537841796875
1772702676229410800,0.220410888671875,-0.2530517578125,0.4669952392578125,0.85040283203125
1772702676239459800,0.2304599609375,-0.2519683837890625,0.465057373046875,0.84881591796875
1772702676249510000,0.240510009765625,-0.2535247802734375,0.46551513671875,0.8475494384765625
1772702676259560000,0.250559814453125,-0.254669189453125,0.4651947021484375,0.8471527099609375
1772702676269610000,0.26060986328125,-0.254119873046875,0.4659881591796875,0.851043701171875
1772702676279659800,0.27065966796875,-0.2528533935546875,0.465423583984375,0.8497314453125
1772702676289709800,0.280709716796875,-0.2506256103515625,0.4666748046875,0.849884033203125
1772702676299759900,0.290759765625,-0.24774169921875,0.4637298583984375,0.84991455078125
1772702676309810000,0.300809814453125,-0.249237060546875,0.4654541015625,0.8515472412109375
1772702676319859700,0.310859619140625,-0.249420166015625,0.4632415771484375,0.8521270751953125
1772702676329909800,0.32090966796875,-0.251800537109375,0.465362548828125,0.85113525390625
1772702676339959800,0.330959716796875,-0.2530975341796875,0.4665374755859375,0.8508758544921875
1772702676350009000,0.341009033203125,-0.2534942626953125,0.4660491943359375,0.8492431640625
1772702676360059000,0.351058837890625,-0.253326416015625,0.46539306640625,0.8502197265625
1772702676370109000,0.36110888671875,-0.2516632080078125,0.4644775390625,0.8520355224609375
1772702676380159000,0.371158935546875,-0.2498626708984375,0.4635467529296875,0.8522491455078125
1772702676390209000,0.381208984375,-0.2478179931640625,0.46417236328125,0.852783203125
1772702676400258800,0.3912587890625,-0.2465057373046875,0.4626007080078125,0.85302734375
1772702676410308900,0.401308837890625,-0.2487335205078125,0.4641571044921875,0.8526611328125
1772702676420359000,0.41135888671875,-0.25,0.46490478515625,0.849884033203125
1772702676430409000,0.421408935546875,-0.25335693359375,0.4641571044921875,0.846710205078125
1772702676440457700,0.431457763671875,-0.256072998046875,0.4644622802734375,0.8489990234375
1772702676450507800,0.4415078125,-0.255584716796875,0.4643096923828125,0.85125732421875
1772702676460557800,0.451557861328125,-0.24993896484375,0.46624755859375,0.8516845703125
1772702676470608000,0.46160791015625,-0.2501678466796875,0.4666900634765625,0.8550262451171875
1772702676480658000,0.471657958984375,-0.2475738525390625,0.46441650390625,0.8534088134765625
1772702676490708000,0.4817080078125,-0.2469482421875,0.465545654296875,0.85284423828125
1772702676500758000,0.491758056640625,-0.2474517822265625,0.4651336669921875,0.8506622314453125
1772702676510807800,0.501807861328125,-0.2503662109375,0.464569091796875,0.8511505126953125
1772702676520857900,0.51185791015625,-0.2519683837890625,0.46380615234375,0.8527374267578125
1772702676530908000,0.521907958984375,-0.251983642578125,0.4628448486328125,0.8516998291015625
1772702676540958000,0.5319580078125,-0.2516326904296875,0.462310791015625,0.8514862060546875
1772702676551006700,0.5420068359375,-0.2513580322265625,0.461395263671875,0.849700927734375
1772702676561056800,0.552056884765625,-0.2520751953125,0.4637298583984375,0.84979248046875
1772702676571106800,0.56210693359375,-0.25146484375,0.4631500244140625,0.849212646484375
1772702676581156900,0.572156982421875,-0.2512054443359375,0.46319580078125,0.8509979248046875
1772702676591207000,0.58220703125,-0.2490997314453125,0.46429443359375,0.853668212890625
1772702676601257000,0.592257080078125,-0.248809814453125,0.4635009765625,0.853179931640625
1772702676611307000,0.60230712890625,-0.2479400634765625,0.4655303955078125,0.8549346923828125
1772702676621357000,0.612357177734375,-0.2490081787109375,0.4659423828125,0.856719970703125
1772702676631406800,0.62240673828125,-0.250762939453125,0.467010498046875,0.85528564453125
1772702676641457000,0.632456787109375,-0.2529144287109375,0.4690704345703125,0.85150146484375
1772702676651506000,0.642505859375,-0.253509521484375,0.46844482421875,0.850311279296875
1772702676661555700,0.6525556640625,-0.251007080078125,0.4671783447265625,0.849029541015625
1772702676671605800,0.662605712890625,-0.2492218017578125,0.46551513671875,0.849334716796875
1772702676681655800,0.67265576171875,-0.2480010986328125,0.4651641845703125,0.8509368896484375
1772702676691705900,0.682705810546875,-0.2466583251953125,0.4666290283203125,0.849853515625
1772702676701755600,0.692755615234375,-0.2496490478515625,0.466461181640625,0.8497314453125
1772702676711805700,0.7028056640625,-0.2513580322265625,0.463531494140625,0.8497772216796875
1772702676721856000,0.71285595703125,-0.2513427734375,0.4648590087890625,0.8498992919921875
1772702676731906000,0.722906005859375,-0.2510528564453125,0.4650115966796875,0.851715087890625
1772702676741955800,0.732955810546875,-0.2494354248046875,0.46392822265625,0.853057861328125
1772702676752006000,0.743005859375,-0.2489776611328125,0.466339111328125,0.852752685546875
1772702676762055000,0.753054931640625,-0.2491302490234375,0.466796875,0.852294921875
1772702676772104700,0.763104736328125,-0.2490234375,0.4665069580078125,0.8503875732421875
1772702676782154800,0.77315478515625,-0.252410888671875,0.46783447265625,0.8513946533203125
1772702676792204800,0.783204833984375,-0.2518157958984375,0.466796875,0.8489837646484375
1772702676802254800,0.7932548828125,-0.24908447265625,0.46746826171875,0.848876953125
1772702676812305000,0.803304931640625,-0.250030517578125,0.46392822265625,0.8500518798828125
1772702676822354700,0.813354736328125,-0.25067138671875,0.4625244140625,0.8513031005859375
1772702676832404700,0.82340478515625,-0.2485504150390625,0.4630889892578125,0.85125732421875
1772702676842454800,0.833454833984375,-0.2481536865234375,0.4661102294921875,0.8515777587890625
1772702676852505000,0.843505126953125,-0.247344970703125,0.468597412109375,0.8523406982421875
1772702676862553900,0.853553955078125,-0.25152587890625,0.4691314697265625,0.8520965576171875
1772702676872604000,0.86360400390625,-0.251068115234375,0.4686737060546875,0.849029541015625
1772702676882653700,0.87365380859375,-0.2491912841796875,0.46734619140625,0.85009765625
1772702676892703500,0.883703369140625,-0.2473907470703125,0.4684600830078125,0.8497772216796875
1772702676902753500,0.89375341796875,-0.247161865234375,0.4655914306640625,0.851593017578125
1772702676912803600,0.903803466796875,-0.246856689453125,0.46588134765625,0.8501129150390625
1772702676922853600,0.913853515625,-0.2509765625,0.4658966064453125,0.8485565185546875
1772702676932903400,0.9239033203125,-0.2508392333984375,0.4641876220703125,0.8477325439453125
1772702676942953500,0.933953369140625,-0.2497406005859375,0.464508056640625,0.84912109375
1772702676953003500,0.94400341796875,-0.2474822998046875,0.4669189453125,0.850067138671875
1772702676963053800,0.9540537109375,-0.2470245361328125,0.466522216796875,0.851409912109375
1772702676973102600,0.9641025390625,-0.2497406005859375,0.4650726318359375,0.8518829345703125
1772702676983152600,0.974152587890625,-0.249847412109375,0.465423583984375,0.8516845703125
1772702676993202700,0.98420263671875,-0.249908447265625,0.466278076171875,0.8519439697265625
1772702677003252500,0.99425244140625,-0.251129150390625,0.4644927978515625,0.8532257080078125
1772702677013302500,1.004302490234375,-0.250335693359375,0.463897705078125,0.8519744873046875
1772702677023352600,1.0143525390625,-0.2498626708984375,0.4653778076171875,0.8496551513671875
1772702677033402600,1.024402587890625,-0.2514190673828125,0.4638214111328125,0.8503570556640625
1772702677043452400,1.034452392578125,-0.2501373291015625,0.462799072265625,0.8520050048828125
1772702677053502500,1.04450244140625,-0.246673583984375,0.463836669921875,0.8538360595703125
1772702677063552500,1.054552490234375,-0.247802734375,0.46435546875,0.8539886474609375
1772702677073602600,1.0646025390625,-0.2479248046875,0.46484375,0.853271484375
1772702677083651600,1.074651611328125,-0.248992919921875,0.4674072265625,0.850860595703125
1772702677093701600,1.08470166015625,-0.24969482421875,0.46551513671875,0.848236083984375
1772702677103751700,1.094751708984375,-0.252471923828125,0.462371826171875,0.84747314453125
1772702677113801700,1.1048017578125,-0.251800537109375,0.4647979736328125,0.8487396240234375
1772702677123851500,1.1148515625,-0.25115966796875,0.465057373046875,0.8517913818359375
1772702677133901600,1.124901611328125,-0.2497100830078125,0.464813232421875,0.852874755859375
1772702677143951600,1.13495166015625,-0.246673583984375,0.46551513671875,0.8529205322265625
1772702677154001700,1.145001708984375,-0.24517822265625,0.4661407470703125,0.8514251708984375
1772702677164051500,1.155051513671875,-0.2463531494140625,0.4641265869140625,0.850311279296875
1772702677174101500,1.1651015625,-0.250823974609375,0.46588134765625,0.8516693115234375
1772702677184150800,1.17515087890625,-0.2541351318359375,0.464874267578125,0.85003662109375
1772702677194200600,1.18520068359375,-0.2508544921875,0.464263916015625,0.8520050048828125
1772702677204250600,1.195250732421875,-0.24969482421875,0.464691162109375,0.8497314453125
1772702677214300700,1.20530078125,-0.2490234375,0.46490478515625,0.84844970703125
1772702677224350700,1.215350830078125,-0.248016357421875,0.4678802490234375,0.8464508056640625
1772702677234400500,1.225400390625,-0.250396728515625,0.466796875,0.8473358154296875
1772702677244450600,1.235450439453125,-0.2534637451171875,0.4644317626953125,0.8477935791015625
1772702677254500600,1.24550048828125,-0.252044677734375,0.4633026123046875,0.849700927734375
1772702677264550700,1.255550537109375,-0.2495574951171875,0.46136474609375,0.8528900146484375
1772702677274600400,1.265600341796875,-0.2504425048828125,0.4624786376953125,0.8523101806640625
1772702677284650500,1.275650390625,-0.2510986328125,0.4622650146484375,0.8551025390625
1772702677294699800,1.28569970703125,-0.2492523193359375,0.4649505615234375,0.8543701171875
1772702677304749600,1.29574951171875,-0.2485198974609375,0.4683837890625,0.8538818359375
1772702677314799600,1.305799560546875,-0.251007080078125,0.4674224853515625,0.8516998291015625
1772702677324849700,1.315849609375,-0.2516937255859375,0.4680023193359375,0.8494873046875
1772702677334899700,1.325899658203125,-0.252685546875,0.4666748046875,0.847442626953125
1772702677344949800,1.33594970703125,-0.251617431640625,0.4655914306640625,0.8480377197265625
1772702677354999600,1.34599951171875,-0.2510833740234375,0.46380615234375,0.8498077392578125
1772702677365049600,1.356049560546875,-0.250457763671875,0.462310791015625,0.8489227294921875
1772702677375099600,1.366099609375,-0.249053955078125,0.4610443115234375,0.8479766845703125
1772702677385149700,1.376149658203125,-0.2473602294921875,0.4644927978515625,0.850860595703125
1772702677395198500,1.386198486328125,-0.248626708984375,0.4673004150390625,0.8520050048828125
1772702677405248800,1.396248779296875,-0.2496185302734375,0.4676513671875,0.850555419921875
1772702677415298800,1.406298828125,-0.25262451171875,0.4665374755859375,0.849334716796875
1772702677425348600,1.4163486328125,-0.2537384033203125,0.4685211181640625,0.85009765625
1772702677435398700,1.426398681640625,-0.2539825439453125,0.4665985107421875,0.8508453369140625
1772702677445448700,1.43644873046875,-0.252349853515625,0.4658050537109375,0.850189208984375
1772702677455498800,1.446498779296875,-0.250213623046875,0.4635009765625,0.8516387939453125
1772702677465548500,1.456548583984375,-0.250152587890625,0.463165283203125,0.8516998291015625
1772702677475598600,1.4665986328125,-0.2494659423828125,0.4633331298828125,0.84912109375
1772702677485648600,1.476648681640625,-0.2487640380859375,0.4632415771484375,0.8522186279296875
1772702677495698700,1.48669873046875,-0.2497711181640625,0.46673583984375,0.8520965576171875
1772702677505747500,1.49674755859375,-0.2517242431640625,0.4681549072265625,0.8511962890625
1772702677515797500,1.506797607421875,-0.25390625,0.4674835205078125,0.85009765625
1772702677525847600,1.51684765625,-0.25286865234375,0.4673919677734375,0.849884033203125
1772702677535897600,1.526897705078125,-0.2522735595703125,0.4649658203125,0.849151611328125
1772702677545947600,1.53694775390625,-0.2551727294921875,0.464111328125,0.8506927490234375
1772702677555997700,1.546997802734375,-0.253662109375,0.4640350341796875,0.8503265380859375
1772702677566047700,1.5570478515625,-0.2501220703125,0.465087890625,0.8475799560546875
1772702677576097500,1.56709765625,-0.2506561279296875,0.4636077880859375,0.84808349609375
1772702677586147600,1.577147705078125,-0.2509613037109375,0.4651336669921875,0.8496551513671875
1772702677596197600,1.58719775390625,-0.253082275390625,0.466156005859375,0.851654052734375
1772702677606246700,1.59724658203125,-0.2552032470703125,0.46527099609375,0.852874755859375
1772702677616296400,1.60729638671875,-0.25445556640625,0.4633636474609375,0.8507232666015625
1772702677626346500,1.617346435546875,-0.251800537109375,0.4654388427734375,0.8512115478515625
1772702677636396500,1.627396484375,-0.2523956298828125,0.4671630859375,0.84954833984375
1772702677646446600,1.637446533203125,-0.25152587890625,0.465911865234375,0.8472747802734375
1772702677656496600,1.64749658203125,-0.248626708984375,0.463836669921875,0.8497314453125
1772702677666546700,1.657546630859375,-0.2510223388671875,0.4645538330078125,0.8495635986328125
1772702677676596700,1.6675966796875,-0.250885009765625,0.465362548828125,0.84930419921875
1772702677686646800,1.677646728515625,-0.25445556640625,0.46343994140625,0.848785400390625
1772702677696696600,1.687696533203125,-0.2539520263671875,0.4619293212890625,0.8517303466796875
1772702677706745600,1.69774560546875,-0.25384521484375,0.4625091552734375,0.849609375
1772702677716795600,1.707795654296875,-0.251373291015625,0.4643096923828125,0.849853515625
1772702677726845400,1.717845458984375,-0.2530364990234375,0.46392822265625,0.8529510498046875
1772702677736895500,1.7278955078125,-0.2529144287109375,0.4651336669921875,0.8535308837890625
1772702677746945500,1.737945556640625,-0.2528533935546875,0.4635009765625,0.8533477783203125
1772702677756995600,1.74799560546875,-0.2533111572265625,0.46429443359375,0.8521575927734375
1772702677767045400,1.75804541015625,-0.2510833740234375,0.4642791748046875,0.8495025634765625
1772702677777095700,1.768095703125,-0.252960205078125,0.461578369140625,0.8484649658203125
1772702677787145700,1.778145751953125,-0.253936767578125,0.46099853515625,0.8495025634765625
1772702677797195800,1.78819580078125,-0.25421142578125,0.4612579345703125,0.849029541015625
1772702677807245600,1.79824560546875,-0.253082275390625,0.463897705078125,0.850433349609375
1772702677817294600,1.808294677734375,-0.2519073486328125,0.4626617431640625,0.8516387939453125
1772702677827344600,1.8183447265625,-0.250823974609375,0.461578369140625,0.850494384765625
1772702677837394700,1.828394775390625,-0.2500762939453125,0.4616241455078125,0.8525390625
1772702677847444500,1.838444580078125,-0.2493743896484375,0.4642181396484375,0.852874755859375
1772702677857494500,1.84849462890625,-0.250823974609375,0.46466064453125,0.8533477783203125
1772702677867544600,1.858544677734375,-0.2518310546875,0.464935302734375,0.85186767578125
1772702677877594600,1.8685947265625,-0.2530517578125,0.463836669921875,0.850921630859375
1772702677887644400,1.87864453125,-0.25311279296875,0.461578369140625,0.850250244140625
1772702677897694500,1.888694580078125,-0.25299072265625,0.462310791015625,0.849456787109375
1772702677907744500,1.89874462890625,-0.25372314453125,0.4627838134765625,0.850250244140625
1772702677917793500,1.90879345703125,-0.2515411376953125,0.461212158203125,0.8503875732421875
1772702677927843600,1.918843505859375,-0.2494964599609375,0.4610137939453125,0.850799560546875
1772702677937893600,1.9288935546875,-0.25128173828125,0.4612884521484375,0.8531341552734375
1772702677947943400,1.938943359375,-0.2540740966796875,0.46112060546875,0.85382080078125
1772702677957993500,1.948993408203125,-0.2545623779296875,0.460235595703125,0.85546875
1772702677968043500,1.95904345703125,-0.254058837890625,0.462982177734375,0.8531341552734375
1772702677978093600,1.969093505859375,-0.25250244140625,0.464080810546875,0.8561859130859375
1772702677988143400,1.979143310546875,-0.2511444091796875,0.463958740234375,0.85552978515625
1772702677998193400,1.989193359375,-0.250762939453125,0.4648590087890625,0.8535614013671875
1772702678008243500,1.999243408203125,-0.2509002685546875,0.4646148681640625,0.8505096435546875
1772702678018293500,2.00929345703125,-0.2544097900390625,0.461822509765625,0.850982666015625
1772702678028342500,2.019342529296875,-0.254425048828125,0.4636688232421875,0.8509674072265625
1772702678038392600,2.029392578125,-0.253753662109375,0.4632415771484375,0.8491668701171875
1772702678048442600,2.039442626953125,-0.2533721923828125,0.460723876953125,0.8489837646484375
1772702678058492400,2.049492431640625,-0.2511749267578125,0.460357666015625,0.8493499755859375
1772702678068542500,2.05954248046875,-0.2525634765625,0.4643096923828125,0.8506011962890625
1772702678078592500,2.069592529296875,-0.2527618408203125,0.46563720703125,0.8497467041015625
1772702678088642600,2.079642578125,-0.252105712890625,0.4656524658203125,0.8497467041015625
1772702678098692400,2.0896923828125,-0.2501983642578125,0.466644287109375,0.8523101806640625
1772702678108742400,2.099742431640625,-0.250335693359375,0.4668426513671875,0.852294921875
1772702678118792400,2.10979248046875,-0.2506256103515625,0.4651336669921875,0.8536834716796875
1772702678128842500,2.119842529296875,-0.2517852783203125,0.464508056640625,0.8512725830078125
1772702678138891500,2.1298916015625,-0.2542877197265625,0.46343994140625,0.8510894775390625
1772702678148941600,2.139941650390625,-0.2556915283203125,0.4648590087890625,0.8491668701171875
1772702678158991600,2.14999169921875,-0.25482177734375,0.465576171875,0.846343994140625
1772702678169041700,2.160041748046875,-0.254638671875,0.46331787109375,0.846893310546875
1772702678179091500,2.170091552734375,-0.2518463134765625,0.4643707275390625,0.8489227294921875
1772702678189141500,2.1801416015625,-0.250518798828125,0.463134765625,0.8485260009765625
1772702678199191600,2.190191650390625,-0.252288818359375,0.4630126953125,0.8505859375
1772702678209241600,2.20024169921875,-0.2547760009765625,0.4631805419921875,0.85003662109375
1772702678219291400,2.21029150390625,-0.254241943359375,0.4639892578125,0.8493499755859375
1772702678229341400,2.220341552734375,-0.25445556640625,0.46624755859375,0.8510589599609375
1772702678239390700,2.230390625,-0.2547149658203125,0.466278076171875,0.850616455078125
1772702678249440500,2.2404404296875,-0.2563323974609375,0.465087890625,0.8502960205078125
1772702678259490600,2.250490478515625,-0.253875732421875,0.4633941650390625,0.8521728515625
1772702678269540600,2.26054052734375,-0.2517852783203125,0.4653472900390625,0.8504180908203125
1772702678279590700,2.270590576171875,-0.24908447265625,0.4672698974609375,0.8505859375
1772702678289640400,2.280640380859375,-0.2499847412109375,0.4658203125,0.85076904296875
1772702678299690500,2.2906904296875,-0.250762939453125,0.465545654296875,0.852203369140625
1772702678309740500,2.300740478515625,-0.2532196044921875,0.4646453857421875,0.8520355224609375
1772702678319790600,2.31079052734375,-0.256134033203125,0.465240478515625,0.8505706787109375
1772702678329840400,2.32084033203125,-0.2552032470703125,0.4656219482421875,0.849334716796875
1772702678339889400,2.330889404296875,-0.2519683837890625,0.4651641845703125,0.8490753173828125
1772702678349939700,2.340939697265625,-0.251495361328125,0.46575927734375,0.8482666015625
1772702678359989800,2.35098974609375,-0.25299072265625,0.462921142578125,0.8484344482421875
1772702678370039600,2.36103955078125,-0.254119873046875,0.4611358642578125,0.850341796875
1772702678380089600,2.371089599609375,-0.254486083984375,0.4590301513671875,0.851837158203125
1772702678390139600,2.3811396484375,-0.252410888671875,0.4601593017578125,0.8485870361328125
1772702678400189700,2.391189697265625,-0.251800537109375,0.4625396728515625,0.8472137451171875
1772702678410239500,2.401239501953125,-0.253082275390625,0.46337890625,0.85040283203125
1772702678420289500,2.41128955078125,-0.254913330078125,0.4638824462890625,0.8545379638671875
1772702678430339600,2.421339599609375,-0.25445556640625,0.46466064453125,0.852325439453125
1772702678440389600,2.4313896484375,-0.2529296875,0.4640350341796875,0.8495635986328125
1772702678450438400,2.4414384765625,-0.254364013671875,0.4640960693359375,0.8512725830078125
1772702678460488400,2.451488525390625,-0.254486083984375,0.4629974365234375,0.8524017333984375
1772702678470538500,2.46153857421875,-0.2529296875,0.46295166015625,0.849853515625
1772702678480588500,2.471588623046875,-0.254852294921875,0.463043212890625,0.8503265380859375
1772702678490638600,2.481638671875,-0.2555389404296875,0.4650115966796875,0.8513336181640625
1772702678500688600,2.491688720703125,-0.253692626953125,0.463531494140625,0.85125732421875
1772702678510738700,2.50173876953125,-0.2537078857421875,0.4633941650390625,0.8535003662109375
1772702678520788500,2.51178857421875,-0.2541046142578125,0.4655303955078125,0.8540802001953125
1772702678530838500,2.521838623046875,-0.2524261474609375,0.464874267578125,0.850128173828125
1772702678540888600,2.531888671875,-0.2537078857421875,0.4632415771484375,0.8489227294921875
1772702678550938600,2.541938720703125,-0.2546844482421875,0.46197509765625,0.8490753173828125
1772702678560987400,2.5519873046875,-0.2567138671875,0.4621429443359375,0.84857177734375
1772702678571037400,2.562037353515625,-0.2570343017578125,0.4624481201171875,0.849029541015625
1772702678581087500,2.57208740234375,-0.257659912109375,0.4621124267578125,0.84796142578125
1772702678591137500,2.582137451171875,-0.2584991455078125,0.4641571044921875,0.848236083984375
1772702678601187600,2.5921875,-0.25653076171875,0.461822509765625,0.848602294921875
1772702678611237600,2.602237548828125,-0.2541351318359375,0.462554931640625,0.848602294921875
1772702678621287700,2.61228759765625,-0.2487030029296875,0.464935302734375,0.851654052734375
1772702678631337700,2.622337646484375,-0.25115966796875,0.4651641845703125,0.8522491455078125
1772702678641387500,2.632387451171875,-0.2561187744140625,0.4633636474609375,0.854522705078125
1772702678651437600,2.6424375,-0.2601470947265625,0.4610443115234375,0.8561553955078125
1772702678661486600,2.652486572265625,-0.2608184814453125,0.4643707275390625,0.854339599609375
1772702678671536400,2.662536376953125,-0.254302978515625,0.468048095703125,0.853668212890625
1772702678681586400,2.67258642578125,-0.2522430419921875,0.46771240234375,0.8551025390625
1772702678691636500,2.682636474609375,-0.251251220703125,0.464935302734375,0.8517608642578125
1772702678701686500,2.6926865234375,-0.253326416015625,0.465789794921875,0.8502655029296875
1772702678711736300,2.702736328125,-0.2558746337890625,0.46636962890625,0.8485870361328125
1772702678721786600,2.71278662109375,-0.256988525390625,0.4635162353515625,0.8499298095703125
1772702678731836700,2.722836669921875,-0.2544097900390625,0.4640960693359375,0.84906005859375
1772702678741886700,2.73288671875,-0.2537689208984375,0.462310791015625,0.84637451171875
1772702678751936500,2.7429365234375,-0.2523345947265625,0.4615325927734375,0.8495025634765625
1772702678761986600,2.752986572265625,-0.25299072265625,0.4644927978515625,0.8511962890625
1772702678772035600,2.76303564453125,-0.253021240234375,0.46478271484375,0.8498077392578125
1772702678782085400,2.77308544921875,-0.2544708251953125,0.46484375,0.851318359375
1772702678792135400,2.783135498046875,-0.2543182373046875,0.464111328125,0.8512115478515625
1772702678802185500,2.793185546875,-0.253570556640625,0.46533203125,0.8507080078125
1772702678812235500,2.803235595703125,-0.2536773681640625,0.4640045166015625,0.849212646484375
1772702678822285300,2.813285400390625,-0.254302978515625,0.464447021484375,0.8461761474609375
1772702678832335400,2.82333544921875,-0.2569580078125,0.46490478515625,0.84735107421875
1772702678842385400,2.833385498046875,-0.25665283203125,0.4643707275390625,0.8483734130859375
1772702678852435700,2.843435791015625,-0.251800537109375,0.4629974365234375,0.8501434326171875
1772702678862485500,2.853485595703125,-0.2509765625,0.4653778076171875,0.8498992919921875
1772702678872535600,2.86353564453125,-0.2501373291015625,0.4658050537109375,0.8515472412109375
1772702678882584600,2.87358447265625,-0.2494659423828125,0.4638824462890625,0.850250244140625
1772702678892633900,2.8836337890625,-0.253082275390625,0.4647979736328125,0.8506622314453125
1772702678902684000,2.893683837890625,-0.2528228759765625,0.466522216796875,0.85186767578125
1772702678912734000,2.90373388671875,-0.254486083984375,0.4655914306640625,0.8516082763671875
1772702678922784000,2.913783935546875,-0.25665283203125,0.4651031494140625,0.8491973876953125
1772702678932833800,2.923833740234375,-0.255279541015625,0.4647064208984375,0.8493194580078125
1772702678942884000,2.933884033203125,-0.2528228759765625,0.4639892578125,0.8484649658203125
1772702678952934100,2.94393408203125,-0.2517547607421875,0.465240478515625,0.8502044677734375
1772702678962984200,2.953984130859375,-0.2515411376953125,0.4634552001953125,0.84991455078125
1772702678973034000,2.964033935546875,-0.2510833740234375,0.4637451171875,0.848907470703125
1772702678983084000,2.974083984375,-0.2520294189453125,0.463531494140625,0.8494415283203125
1772702678993133000,2.984133056640625,-0.254638671875,0.4638824462890625,0.8495635986328125
1772702679003183000,2.99418310546875,-0.2535400390625,0.4625244140625,0.85107421875
1772702679013233000,3.00423291015625,-0.25384521484375,0.4647064208984375,0.8508148193359375
1772702679023283000,3.014282958984375,-0.2531280517578125,0.4625091552734375,0.8518524169921875
1772702679033333000,3.0243330078125,-0.253509521484375,0.4653167724609375,0.849578857421875
1772702679043383000,3.034383056640625,-0.254547119140625,0.4634246826171875,0.8481597900390625
1772702679053432800,3.044432861328125,-0.255096435546875,0.4641571044921875,0.851165771484375
1772702679063483000,3.05448291015625,-0.2537841796875,0.4621734619140625,0.8512420654296875
1772702679073533200,3.064533203125,-0.2528228759765625,0.4609222412109375,0.84912109375
1772702679083583200,3.074583251953125,-0.25384521484375,0.461517333984375,0.85107421875
1772702679093632000,3.084632080078125,-0.2547607421875,0.4619903564453125,0.8532867431640625
1772702679103682000,3.09468212890625,-0.2532196044921875,0.4613037109375,0.8524322509765625
1772702679113732000,3.104732177734375,-0.2522125244140625,0.4608917236328125,0.8503570556640625
1772702679123782000,3.114781982421875,-0.2515869140625,0.4616851806640625,0.8505096435546875
1772702679133832000,3.12483203125,-0.2513275146484375,0.4657135009765625,0.850921630859375
1772702679143882000,3.134882080078125,-0.253021240234375,0.464447021484375,0.84765625
1772702679153932000,3.14493212890625,-0.2549591064453125,0.4627532958984375,0.8468017578125
1772702679163981800,3.15498193359375,-0.2555694580078125,0.463775634765625,0.8481292724609375
1772702679174032000,3.165031982421875,-0.256317138671875,0.463897705078125,0.8505859375
1772702679184082000,3.17508203125,-0.256134033203125,0.462860107421875,0.8503570556640625
1772702679194132000,3.185132080078125,-0.252960205078125,0.464599609375,0.8531494140625
1772702679204181000,3.195180908203125,-0.2510986328125,0.4641876220703125,0.8511962890625
1772702679214231000,3.20523095703125,-0.250518798828125,0.46343994140625,0.8496551513671875
1772702679224281000,3.215281005859375,-0.251953125,0.46270751953125,0.8513031005859375
1772702679234331100,3.2253310546875,-0.2546539306640625,0.462249755859375,0.851806640625
1772702679244381000,3.235380859375,-0.255279541015625,0.4610748291015625,0.8526611328125
1772702679254431000,3.245430908203125,-0.256683349609375,0.46221923828125,0.8491363525390625
1772702679264481000,3.25548095703125,-0.2570343017578125,0.4634857177734375,0.8498382568359375
1772702679274531000,3.265531005859375,-0.2576446533203125,0.463348388671875,0.84991455078125
1772702679284580900,3.275580810546875,-0.2580108642578125,0.4627227783203125,0.8469696044921875
1772702679294631000,3.285630859375,-0.25738525390625,0.4598388671875,0.8482666015625
1772702679304681000,3.295680908203125,-0.254364013671875,0.460235595703125,0.851593017578125
1772702679314730000,3.30572998046875,-0.2532958984375,0.4610443115234375,0.853485107421875
1772702679324780000,3.315780029296875,-0.2523651123046875,0.461181640625,0.8534088134765625
1772702679334830000,3.325830078125,-0.2537384033203125,0.4633026123046875,0.85406494140625
1772702679344880000,3.335880126953125,-0.2568206787109375,0.4653778076171875,0.85614013671875
1772702679354930000,3.345929931640625,-0.2568817138671875,0.4651641845703125,0.852874755859375
1772702679364980000,3.35597998046875,-0.2577972412109375,0.4635009765625,0.849212646484375
1772702679375030000,3.366030029296875,-0.2565155029296875,0.4639434814453125,0.848846435546875
1772702679385080000,3.376080078125,-0.2575225830078125,0.46453857421875,0.84869384765625
1772702679395129900,3.3861298828125,-0.2562408447265625,0.46484375,0.8489837646484375
1772702679405180000,3.396179931640625,-0.255035400390625,0.4625091552734375,0.8505096435546875
1772702679415230000,3.40622998046875,-0.2541961669921875,0.46221923828125,0.8480987548828125
1772702679425279200,3.416279296875,-0.253509521484375,0.4630584716796875,0.847137451171875
1772702679435329000,3.4263291015625,-0.256134033203125,0.4653472900390625,0.8461151123046875
1772702679445379000,3.436379150390625,-0.2560577392578125,0.4647369384765625,0.8491363525390625
1772702679455429000,3.44642919921875,-0.255706787109375,0.46368408203125,0.8525238037109375
1772702679465479200,3.456479248046875,-0.2555999755859375,0.46258544921875,0.8521881103515625
1772702679475529000,3.466529052734375,-0.2539825439453125,0.462646484375,0.85052490234375
1772702679485579000,3.4765791015625,-0.2543792724609375,0.463165283203125,0.8509979248046875
1772702679495629000,3.486629150390625,-0.254852294921875,0.46453857421875,0.85113525390625
1772702679505679000,3.49667919921875,-0.2564697265625,0.4652557373046875,0.8516693115234375
1772702679515729000,3.50672900390625,-0.2564697265625,0.4623870849609375,0.8512115478515625
1772702679525779000,3.516779052734375,-0.25628662109375,0.4629669189453125,0.849334716796875
1772702679535828200,3.526828125,-0.255767822265625,0.4650115966796875,0.849212646484375
1772702679545878000,3.5368779296875,-0.2554931640625,0.4647216796875,0.8501129150390625
1772702679555928000,3.546927978515625,-0.2554473876953125,0.46380615234375,0.849884033203125
1772702679565978000,3.55697802734375,-0.2548980712890625,0.4631805419921875,0.853729248046875
1772702679576028200,3.567028076171875,-0.2535858154296875,0.46380615234375,0.8538360595703125
1772702679586078000,3.577077880859375,-0.2529449462890625,0.4648895263671875,0.8524169921875
1772702679596128000,3.5871279296875,-0.2523956298828125,0.4640960693359375,0.850555419921875
1772702679606178000,3.597177978515625,-0.2539825439453125,0.4636993408203125,0.8478546142578125
1772702679616228000,3.60722802734375,-0.2564544677734375,0.4651947021484375,0.850006103515625
1772702679626278000,3.61727783203125,-0.2554779052734375,0.4633026123046875,0.8483123779296875
1772702679636328000,3.627327880859375,-0.2531585693359375,0.463958740234375,0.8497314453125
1772702679646377000,3.637376953125,-0.2518157958984375,0.4633636474609375,0.8506011962890625
1772702679656427000,3.647427001953125,-0.25335693359375,0.4624481201171875,0.8497467041015625
1772702679666477000,3.65747705078125,-0.2540283203125,0.4614715576171875,0.850128173828125
1772702679676527000,3.667527099609375,-0.2533416748046875,0.4603729248046875,0.8514404296875
1772702679686577200,3.6775771484375,-0.2530059814453125,0.4631805419921875,0.8519439697265625
1772702679696627200,3.687627197265625,-0.253814697265625,0.462554931640625,0.852294921875
1772702679706677000,3.697677001953125,-0.2527618408203125,0.46319580078125,0.8546905517578125
1772702679716727000,3.70772705078125,-0.2524871826171875,0.464599609375,0.850738525390625
1772702679726777000,3.717777099609375,-0.2522125244140625,0.463958740234375,0.84808349609375
1772702679736827100,3.7278271484375,-0.2536163330078125,0.4627838134765625,0.850433349609375
1772702679746877000,3.737876953125,-0.2545928955078125,0.46173095703125,0.851165771484375
1772702679756926000,3.747926025390625,-0.253173828125,0.4613494873046875,0.8525390625
1772702679766976000,3.75797607421875,-0.2515106201171875,0.4593658447265625,0.85491943359375
1772702679777026000,3.768026123046875,-0.249053955078125,0.459625244140625,0.85504150390625
1772702679787076000,3.778076171875,-0.2484893798828125,0.462493896484375,0.8507232666015625
1772702679797126100,3.788126220703125,-0.248565673828125,0.46234130859375,0.8483428955078125
1772702679807176200,3.79817626953125,-0.2522735595703125,0.4647064208984375,0.8470306396484375
1772702679817226000,3.80822607421875,-0.2570953369140625,0.46417236328125,0.8464202880859375
1772702679827276000,3.818276123046875,-0.258575439453125,0.4632720947265625,0.846923828125
1772702679837326000,3.828326171875,-0.2568359375,0.4640350341796875,0.8521881103515625
1772702679847376100,3.838376220703125,-0.2546539306640625,0.4634857177734375,0.8531646728515625
1772702679857426000,3.848426025390625,-0.2508544921875,0.4609375,0.8520050048828125
1772702679867475000,3.858474853515625,-0.2498016357421875,0.4603118896484375,0.8505401611328125
1772702679877525000,3.86852490234375,-0.247955322265625,0.4627227783203125,0.8506622314453125
1772702679887575800,3.878575927734375,-0.2508392333984375,0.4653167724609375,0.85076904296875
1772702679897625900,3.8886259765625,-0.2529754638671875,0.4651031494140625,0.850494384765625
1772702679907676000,3.898676025390625,-0.25653076171875,0.4640350341796875,0.8483734130859375
1772702679917726000,3.908725830078125,-0.2572784423828125,0.462982177734375,0.8476104736328125
1772702679927776000,3.91877587890625,-0.258331298828125,0.4648895263671875,0.8470611572265625
1772702679937825800,3.92882568359375,-0.255828857421875,0.4629058837890625,0.8476409912109375
1772702679947876000,3.9388759765625,-0.25457763671875,0.4608306884765625,0.847991943359375
1772702679957926100,3.948926025390625,-0.2546539306640625,0.4605560302734375,0.8507537841796875
1772702679967976200,3.95897607421875,-0.253265380859375,0.4610595703125,0.853729248046875
1772702679978025000,3.96902490234375,-0.25311279296875,0.46173095703125,0.853271484375
1772702679988075000,3.979074951171875,-0.253082275390625,0.4629974365234375,0.855377197265625
1772702679998125000,3.989125,-0.2559967041015625,0.4639892578125,0.85546875
1772702680008174800,3.9991748046875,-0.256683349609375,0.46209716796875,0.854644775390625
1772702680018225000,4.009224853515625,-0.257171630859375,0.4638824462890625,0.851898193359375
1772702680028275000,4.01927490234375,-0.25799560546875,0.4657440185546875,0.8496551513671875
1772702680038325000,4.029324951171875,-0.2542877197265625,0.464874267578125,0.8484649658203125
1772702680048374800,4.039374755859375,-0.2542572021484375,0.4646148681640625,0.847503662109375
1772702680058424800,4.0494248046875,-0.2543792724609375,0.4638671875,0.850067138671875
1772702680068475100,4.05947509765625,-0.254364013671875,0.4610595703125,0.848358154296875
1772702680078525200,4.069525146484375,-0.2536468505859375,0.461395263671875,0.8480377197265625
1772702680088574000,4.079573974609375,-0.25299072265625,0.4607086181640625,0.849334716796875
1772702680098624000,4.0896240234375,-0.25628662109375,0.4629364013671875,0.8487091064453125
1772702680108674000,4.099674072265625,-0.2578887939453125,0.46319580078125,0.849151611328125
1772702680118723800,4.109723876953125,-0.2577056884765625,0.465423583984375,0.8497467041015625
1772702680128774000,4.11977392578125,-0.2537994384765625,0.4649810791015625,0.8500518798828125
1772702680138824000,4.129823974609375,-0.253631591796875,0.4659576416015625,0.8500213623046875
1772702680148874000,4.1398740234375,-0.2536163330078125,0.4660186767578125,0.851104736328125
1772702680158923800,4.149923828125,-0.2550048828125,0.465362548828125,0.8516998291015625
1772702680168973800,4.159973876953125,-0.2557373046875,0.4643096923828125,0.8486328125
1772702680179024000,4.17002392578125,-0.2568206787109375,0.4628753662109375,0.8477783203125
1772702680189074000,4.180073974609375,-0.2583465576171875,0.4635772705078125,0.8493499755859375
1772702680199123000,4.190123046875,-0.2570953369140625,0.463714599609375,0.848358154296875
1772702680209173000,4.200173095703125,-0.2549591064453125,0.461822509765625,0.8488922119140625
1772702680219223000,4.21022314453125,-0.2559967041015625,0.4635467529296875,0.84796142578125
1772702680229273000,4.220273193359375,-0.2547454833984375,0.4664764404296875,0.8466796875
1772702680239323000,4.230322998046875,-0.2553558349609375,0.4654388427734375,0.85003662109375
1772702680249373000,4.240373046875,-0.256561279296875,0.4639892578125,0.849639892578125
1772702680259423000,4.250423095703125,-0.2565765380859375,0.4646759033203125,0.850921630859375
1772702680269473000,4.26047314453125,-0.2549896240234375,0.4635162353515625,0.850311279296875
1772702680279522800,4.270522705078125,-0.256378173828125,0.4637451171875,0.8506927490234375
1772702680289572900,4.28057275390625,-0.2552490234375,0.4647674560546875,0.8504638671875
1772702680299623000,4.290622802734375,-0.25543212890625,0.4647064208984375,0.8498077392578125
1772702680309672000,4.300671875,-0.2550811767578125,0.4638824462890625,0.849029541015625
1772702680319722000,4.310721923828125,-0.2551422119140625,0.465118408203125,0.848480224609375
1772702680329772000,4.32077197265625,-0.253814697265625,0.4625091552734375,0.848388671875
1772702680339822000,4.330822021484375,-0.2552642822265625,0.4638519287109375,0.8483123779296875
1772702680349871900,4.340871826171875,-0.2565155029296875,0.463653564453125,0.84796142578125
1772702680359922000,4.350921875,-0.2556915283203125,0.4619903564453125,0.84869384765625
1772702680369972000,4.360971923828125,-0.255767822265625,0.4633331298828125,0.85101318359375
1772702680380022000,4.37102197265625,-0.25653076171875,0.4629974365234375,0.8502044677734375
1772702680390071800,4.38107177734375,-0.25469970703125,0.4637298583984375,0.850433349609375
1772702680400121900,4.391121826171875,-0.2530364990234375,0.4626617431640625,0.8499908447265625
1772702680410172000,4.401171875,-0.2538604736328125,0.4628753662109375,0.8486785888671875
1772702680420221200,4.41122119140625,-0.256683349609375,0.4629364013671875,0.850067138671875
1772702680430271000,4.42127099609375,-0.2560882568359375,0.463714599609375,0.8494720458984375
1772702680440321000,4.431321044921875,-0.254547119140625,0.4624176025390625,0.8529815673828125
1772702680450371000,4.44137109375,-0.253662109375,0.4625396728515625,0.851593017578125
1772702680460421000,4.451421142578125,-0.2523651123046875,0.4618072509765625,0.8499298095703125
1772702680470471000,4.461470947265625,-0.25634765625,0.4617156982421875,0.848876953125
1772702680480521000,4.47152099609375,-0.2572174072265625,0.4610748291015625,0.847564697265625
1772702680490571000,4.481571044921875,-0.2564239501953125,0.46478271484375,0.8492889404296875
1772702680500621000,4.49162109375,-0.2574615478515625,0.4632720947265625,0.849639892578125
1772702680510670800,4.5016708984375,-0.256103515625,0.4641876220703125,0.8520355224609375
1772702680520721000,4.511720947265625,-0.25482177734375,0.4625244140625,0.85101318359375
1772702680530770200,4.521770263671875,-0.254364013671875,0.4613037109375,0.8521270751953125
1772702680540820000,4.531820068359375,-0.2531890869140625,0.4616241455078125,0.852935791015625
1772702680550870000,4.5418701171875,-0.2551116943359375,0.4632415771484375,0.8531646728515625
1772702680560920000,4.551920166015625,-0.255523681640625,0.4651641845703125,0.8511962890625
1772702680570970000,4.56197021484375,-0.2555084228515625,0.4632415771484375,0.8499298095703125
1772702680581020000,4.57202001953125,-0.256195068359375,0.46343994140625,0.8485107421875
1772702680591070000,4.582070068359375,-0.2588043212890625,0.4626312255859375,0.84747314453125
1772702680601120000,4.5921201171875,-0.257598876953125,0.462982177734375,0.847991943359375
1772702680611170000,4.602170166015625,-0.2550048828125,0.463836669921875,0.8464813232421875
1772702680621219800,4.6122197265625,-0.256500244140625,0.4618072509765625,0.848541259765625
1772702680631270000,4.622269775390625,-0.256011962890625,0.4590606689453125,0.8517608642578125
1772702680641320000,4.63231982421875,-0.2550048828125,0.460052490234375,0.8526763916015625
1772702680651369200,4.642369140625,-0.25567626953125,0.459442138671875,0.853057861328125
1772702680661419000,4.6524189453125,-0.25653076171875,0.461456298828125,0.8545684814453125
1772702680671469000,4.662468994140625,-0.25726318359375,0.4635162353515625,0.8560638427734375
1772702680681519000,4.67251904296875,-0.2564544677734375,0.4649658203125,0.852813720703125
1772702680691569200,4.682569091796875,-0.2546539306640625,0.463592529296875,0.851348876953125
1772702680701619000,4.692618896484375,-0.2550201416015625,0.462646484375,0.8489227294921875
1772702680711669000,4.7026689453125,-0.2543182373046875,0.4636077880859375,0.85162353515625
1772702680721719000,4.712718994140625,-0.255340576171875,0.462249755859375,0.851287841796875
1772702680731769000,4.72276904296875,-0.2552490234375,0.4615478515625,0.85015869140625
1772702680741819000,4.73281884765625,-0.2554779052734375,0.4610595703125,0.8493499755859375
1772702680751869000,4.742868896484375,-0.2552947998046875,0.4614410400390625,0.84893798828125
1772702680761918000,4.75291796875,-0.2530670166015625,0.4637603759765625,0.849395751953125
1772702680771968000,4.762968017578125,-0.253631591796875,0.464324951171875,0.8489227294921875
1772702680782018000,4.77301806640625,-0.2545318603515625,0.4658660888671875,0.8508758544921875
1772702680792068000,4.783068115234375,-0.255889892578125,0.4645233154296875,0.8499908447265625
1772702680802118100,4.7931181640625,-0.255340576171875,0.4642791748046875,0.85107421875
1772702680812168000,4.80316796875,-0.252655029296875,0.464691162109375,0.850067138671875
1772702680822218000,4.813218017578125,-0.2521209716796875,0.4652252197265625,0.8507232666015625
1772702680832268000,4.82326806640625,-0.2540435791015625,0.4644317626953125,0.849761962890625
1772702680842318000,4.833318115234375,-0.2540283203125,0.464080810546875,0.8502197265625
1772702680852368000,4.843367919921875,-0.255889892578125,0.463897705078125,0.8494873046875
1772702680862418000,4.85341796875,-0.2576751708984375,0.4634857177734375,0.8488006591796875
1772702680872467000,4.863467041015625,-0.2559051513671875,0.4626617431640625,0.848724365234375
1772702680882517000,4.87351708984375,-0.25323486328125,0.463348388671875,0.8505859375
1772702680892566300,4.883566162109375,-0.2513885498046875,0.4639892578125,0.8505096435546875
1772702680902616300,4.8936162109375,-0.2528839111328125,0.464752197265625,0.851654052734375
1772702680912666400,4.903666259765625,-0.254608154296875,0.46441650390625,0.852508544921875
1772702680922716400,4.91371630859375,-0.2523651123046875,0.4644927978515625,0.850982666015625
1772702680932766200,4.92376611328125,-0.2540435791015625,0.4649810791015625,0.849365234375
1772702680942816300,4.933816162109375,-0.2562103271484375,0.4649810791015625,0.85040283203125
1772702680952866300,4.9438662109375,-0.25469970703125,0.464263916015625,0.8507080078125
1772702680962916400,4.953916259765625,-0.2534332275390625,0.4640655517578125,0.8502655029296875
1772702680972966100,4.963966064453125,-0.250732421875,0.4648590087890625,0.8493194580078125
1772702680983015400,4.974015380859375,-0.2514801025390625,0.46466064453125,0.850341796875
1772702680993065500,4.9840654296875,-0.2533721923828125,0.464813232421875,0.8494873046875
1772702681003115300,4.994115234375,-0.2523040771484375,0.4623870849609375,0.849853515625
1772702681013165300,5.004165283203125,-0.25335693359375,0.4620819091796875,0.8508148193359375
1772702681023215400,5.01421533203125,-0.251953125,0.464111328125,0.850555419921875
1772702681033265400,5.024265380859375,-0.251953125,0.462066650390625,0.8498382568359375
1772702681043315200,5.034315185546875,-0.2519683837890625,0.4632720947265625,0.851165771484375
1772702681053365200,5.044365234375,-0.25244140625,0.4632415771484375,0.851898193359375
1772702681063415300,5.054415283203125,-0.2519683837890625,0.4629669189453125,0.8497467041015625
1772702681073465300,5.06446533203125,-0.25250244140625,0.4629669189453125,0.8516845703125
1772702681083515100,5.07451513671875,-0.2531585693359375,0.46337890625,0.8504791259765625
1772702681093564200,5.084564208984375,-0.2538299560546875,0.4613037109375,0.8501434326171875
1772702681103614200,5.0946142578125,-0.25189208984375,0.4623260498046875,0.8505096435546875
1772702681113664500,5.10466455078125,-0.2529144287109375,0.4619903564453125,0.850555419921875
1772702681123714300,5.11471435546875,-0.254302978515625,0.463897705078125,0.850250244140625
1772702681133764400,5.124764404296875,-0.25445556640625,0.463226318359375,0.8522796630859375
1772702681143814400,5.134814453125,-0.253631591796875,0.4643096923828125,0.8501739501953125
1772702681153864400,5.144864501953125,-0.2509918212890625,0.464569091796875,0.848541259765625
1772702681163914200,5.154914306640625,-0.2502899169921875,0.4618377685546875,0.84765625
1772702681173964300,5.16496435546875,-0.252471923828125,0.4625701904296875,0.8502044677734375
1772702681184014300,5.175014404296875,-0.2557373046875,0.4629058837890625,0.851226806640625
1772702681194064400,5.185064453125,-0.25665283203125,0.462921142578125,0.850006103515625
1772702681204114200,5.1951142578125,-0.256134033203125,0.4635467529296875,0.85321044921875
1772702681214163200,5.2051630859375,-0.2523345947265625,0.463836669921875,0.8515472412109375
1772702681224213200,5.215213134765625,-0.250518798828125,0.4628143310546875,0.8505096435546875
1772702681234263300,5.22526318359375,-0.2519378662109375,0.46307373046875,0.85162353515625
1772702681244313300,5.235313232421875,-0.25299072265625,0.464813232421875,0.8502044677734375
1772702681254363400,5.24536328125,-0.2537078857421875,0.4630279541015625,0.84906005859375
1772702681264413400,5.255413330078125,-0.2526397705078125,0.462310791015625,0.848785400390625
1772702681274463200,5.265463134765625,-0.2518157958984375,0.4625701904296875,0.8501129150390625
1772702681284513300,5.27551318359375,-0.253265380859375,0.4630126953125,0.851470947265625
1772702681294563300,5.285563232421875,-0.2571258544921875,0.4636688232421875,0.8492889404296875
1772702681304613400,5.29561328125,-0.2578582763671875,0.4622802734375,0.848602294921875
1772702681314663200,5.3056630859375,-0.258087158203125,0.461883544921875,0.8465423583984375
1772702681324713200,5.315713134765625,-0.2552642822265625,0.461883544921875,0.8509368896484375
1772702681334762200,5.32576220703125,-0.25213623046875,0.4604339599609375,0.851348876953125
1772702681344812300,5.335812255859375,-0.25250244140625,0.4598846435546875,0.85089111328125
1772702681354862300,5.3458623046875,-0.25128173828125,0.4626007080078125,0.8532257080078125
1772702681364911400,5.355911376953125,-0.2509918212890625,0.46539306640625,0.8518829345703125
1772702681374961400,5.36596142578125,-0.25469970703125,0.465789794921875,0.8527374267578125
1772702681385011200,5.37601123046875,-0.256011962890625,0.46368408203125,0.8534393310546875
1772702681395061200,5.386061279296875,-0.2559661865234375,0.4648895263671875,0.85107421875
1772702681405111300,5.396111328125,-0.2543792724609375,0.466064453125,0.85113525390625
1772702681415161300,5.406161376953125,-0.251495361328125,0.4662628173828125,0.8512420654296875
1772702681425211100,5.416211181640625,-0.2511749267578125,0.46337890625,0.849029541015625
1772702681435261200,5.42626123046875,-0.2529449462890625,0.4615020751953125,0.8509979248046875
1772702681445311200,5.436311279296875,-0.253875732421875,0.4636688232421875,0.8508148193359375
1772702681455361300,5.446361328125,-0.2554168701171875,0.4618682861328125,0.84906005859375
1772702681465411000,5.4564111328125,-0.2541046142578125,0.4654083251953125,0.8482513427734375
1772702681475460400,5.46646044921875,-0.2537994384765625,0.4642333984375,0.849395751953125
1772702681485510400,5.476510498046875,-0.2513580322265625,0.4662017822265625,0.8503570556640625
1772702681495560200,5.486560302734375,-0.2502288818359375,0.4644775390625,0.8509674072265625
1772702681505610200,5.4966103515625,-0.251800537109375,0.465118408203125,0.8516693115234375
1772702681515660300,5.506660400390625,-0.2519073486328125,0.466949462890625,0.8523101806640625
1772702681525710300,5.51671044921875,-0.251953125,0.4675750732421875,0.8536376953125
1772702681535760100,5.526760009765625,-0.254241943359375,0.46600341796875,0.8509979248046875
1772702681545810200,5.53681005859375,-0.255645751953125,0.4645538330078125,0.848175048828125
1772702681555860200,5.546860107421875,-0.2546844482421875,0.46478271484375,0.84783935546875
1772702681565910300,5.55691015625,-0.254058837890625,0.46368408203125,0.8483734130859375
1772702681575960000,5.5669599609375,-0.250396728515625,0.4651031494140625,0.8507232666015625
1772702681586010000,5.577010009765625,-0.24896240234375,0.4643707275390625,0.8527984619140625
1772702681596059400,5.587059326171875,-0.2469635009765625,0.4662628173828125,0.8521575927734375
1772702681606109400,5.597109375,-0.246307373046875,0.4675750732421875,0.8526153564453125
1772702681616159200,5.6071591796875,-0.2500457763671875,0.4661407470703125,0.851654052734375
1772702681626209300,5.617209228515625,-0.2516021728515625,0.464385986328125,0.851318359375
1772702681636259300,5.62725927734375,-0.2540283203125,0.466583251953125,0.8501434326171875
1772702681646309400,5.637309326171875,-0.2523345947265625,0.4656219482421875,0.849029541015625
1772702681656359200,5.647359130859375,-0.2496185302734375,0.4666290283203125,0.849334716796875
1772702681666409200,5.6574091796875,-0.249053955078125,0.465606689453125,0.8499603271484375
1772702681676459300,5.667459228515625,-0.2486572265625,0.4643707275390625,0.8505096435546875
1772702681686509300,5.67750927734375,-0.2465362548828125,0.46441650390625,0.851776123046875
1772702681696559000,5.68755908203125,-0.2470550537109375,0.4657745361328125,0.8516387939453125
1772702681706608400,5.6976083984375,-0.24761962890625,0.468353271484375,0.8489532470703125
1772702681716659200,5.7076591796875,-0.2491912841796875,0.4681549072265625,0.84918212890625
1772702681726709200,5.717709228515625,-0.2522125244140625,0.466156005859375,0.8495941162109375
1772702681736759300,5.72775927734375,-0.2508392333984375,0.4663238525390625,0.850830078125
1772702681746809300,5.737809326171875,-0.2493438720703125,0.4658050537109375,0.849273681640625
1772702681756859400,5.747859375,-0.2477569580078125,0.4656982421875,0.8506011962890625
1772702681766909400,5.757909423828125,-0.247589111328125,0.465972900390625,0.8510894775390625
1772702681776959200,5.767959228515625,-0.2475738525390625,0.4654388427734375,0.849761962890625
1772702681787009300,5.77800927734375,-0.2487945556640625,0.4649200439453125,0.8497772216796875
1772702681797058300,5.788058349609375,-0.248046875,0.464752197265625,0.84991455078125
1772702681807108000,5.798108154296875,-0.247283935546875,0.4624786376953125,0.850799560546875
1772702681817158100,5.808158203125,-0.2479095458984375,0.4640045166015625,0.8513641357421875
1772702681827208200,5.818208251953125,-0.2483978271484375,0.4658203125,0.8516845703125
1772702681837258200,5.82825830078125,-0.2486114501953125,0.4664459228515625,0.851654052734375
1772702681847308000,5.83830810546875,-0.244720458984375,0.46722412109375,0.850830078125
1772702681857358300,5.8483583984375,-0.2447509765625,0.467010498046875,0.8521881103515625
1772702681867408400,5.858408447265625,-0.2458648681640625,0.4674835205078125,0.848968505859375
1772702681877458400,5.86845849609375,-0.24859619140625,0.4660491943359375,0.848358154296875
1772702681887509000,5.878509033203125,-0.2498321533203125,0.4651947021484375,0.8487701416015625
1772702681897559000,5.88855908203125,-0.2499542236328125,0.4651031494140625,0.8507232666015625
1772702681907609300,5.898609375,-0.247528076171875,0.46478271484375,0.852813720703125
1772702681917658000,5.908658203125,-0.246429443359375,0.465423583984375,0.85455322265625
1772702681927708200,5.918708251953125,-0.24456787109375,0.467193603515625,0.8542938232421875
1772702681937758200,5.92875830078125,-0.244659423828125,0.46881103515625,0.8516387939453125
1772702681947808000,5.93880810546875,-0.2466278076171875,0.466796875,0.8481903076171875
1772702681957858000,5.948858154296875,-0.2497406005859375,0.46466064453125,0.8484039306640625
1772702681967908000,5.958908203125,-0.250244140625,0.4660491943359375,0.849517822265625
1772702681977958100,5.968958251953125,-0.252105712890625,0.465911865234375,0.85040283203125
1772702681988008000,5.979008056640625,-0.2490692138671875,0.46441650390625,0.8460693359375
1772702681998058000,5.98905810546875,-0.245513916015625,0.4638671875,0.8471527099609375
1772702682008108000,5.99910791015625,-0.2447967529296875,0.4652252197265625,0.847412109375
1772702682018158000,6.009157958984375,-0.24847412109375,0.4657745361328125,0.846282958984375
1772702682028207000,6.01920703125,-0.2491607666015625,0.4645843505859375,0.848968505859375
1772702682038257200,6.029257080078125,-0.25006103515625,0.46539306640625,0.8486175537109375
1772702682048307200,6.03930712890625,-0.248809814453125,0.4643707275390625,0.852996826171875
1772702682058357000,6.04935693359375,-0.247100830078125,0.466949462890625,0.8572540283203125
1772702682068407000,6.059406982421875,-0.2463836669921875,0.467254638671875,0.856689453125
1772702682078457000,6.06945703125,-0.2464447021484375,0.4684906005859375,0.8568572998046875
1772702682088507100,6.079507080078125,-0.2488555908203125,0.4677276611328125,0.8561859130859375
1772702682098557000,6.089556884765625,-0.2491455078125,0.46783447265625,0.8529052734375
1772702682108607000,6.09960693359375,-0.246002197265625,0.4676666259765625,0.849273681640625
1772702682118657000,6.109656982421875,-0.2457427978515625,0.4674835205078125,0.85064697265625
1772702682128707000,6.11970703125,-0.2452392578125,0.467498779296875,0.8495635986328125
1772702682138756900,6.1297568359375,-0.2456207275390625,0.4673614501953125,0.8503875732421875
1772702682148806100,6.13980615234375,-0.24481201171875,0.467376708984375,0.84747314453125
1772702682158856200,6.149856201171875,-0.2445831298828125,0.4652252197265625,0.8475494384765625
1772702682168906200,6.15990625,-0.24346923828125,0.46697998046875,0.847259521484375
1772702682178956000,6.1699560546875,-0.2447967529296875,0.469146728515625,0.84857177734375
1772702682189006000,6.180006103515625,-0.2465972900390625,0.468658447265625,0.8504638671875
1772702682199056100,6.19005615234375,-0.24395751953125,0.4677886962890625,0.8521728515625
1772702682209106200,6.200106201171875,-0.2442474365234375,0.4681549072265625,0.85345458984375
1772702682219156000,6.210156005859375,-0.24542236328125,0.4693450927734375,0.85150146484375
1772702682229206000,6.2202060546875,-0.246185302734375,0.4682159423828125,0.8493804931640625
1772702682239256000,6.230256103515625,-0.24444580078125,0.4681549072265625,0.8497314453125
1772702682249306000,6.24030615234375,-0.2439422607421875,0.469329833984375,0.849517822265625
1772702682259356000,6.25035595703125,-0.2458648681640625,0.4682769775390625,0.8496856689453125
1772702682269405200,6.2604052734375,-0.246826171875,0.4683685302734375,0.85028076171875
1772702682279455200,6.270455322265625,-0.2451629638671875,0.4674530029296875,0.848968505859375
1772702682289505000,6.280505126953125,-0.244049072265625,0.4697418212890625,0.851409912109375
1772702682299555000,6.29055517578125,-0.245086669921875,0.47039794921875,0.8524017333984375
1772702682309605000,6.300605224609375,-0.2446136474609375,0.4688873291015625,0.850616455078125
1772702682319655200,6.3106552734375,-0.244384765625,0.469757080078125,0.8499755859375
1772702682329705000,6.320705078125,-0.2459259033203125,0.4690399169921875,0.8500823974609375
1772702682339755000,6.330755126953125,-0.2448272705078125,0.47015380859375,0.85272216796875
1772702682349805000,6.34080517578125,-0.2447357177734375,0.4688720703125,0.8527984619140625
1772702682359855000,6.350855224609375,-0.2425384521484375,0.470184326171875,0.8515777587890625
1772702682369905000,6.36090478515625,-0.2434234619140625,0.4694366455078125,0.847930908203125
1772702682379955000,6.370954833984375,-0.2432403564453125,0.468292236328125,0.8487091064453125
1772702682390005000,6.3810048828125,-0.2433929443359375,0.4697113037109375,0.85101318359375
1772702682400054300,6.39105419921875,-0.244873046875,0.4707183837890625,0.849151611328125
1772702682410104000,6.40110400390625,-0.24365234375,0.4701690673828125,0.8495330810546875
1772702682420154000,6.411154052734375,-0.244415283203125,0.4697265625,0.8495941162109375
1772702682430204200,6.4212041015625,-0.2447967529296875,0.4695281982421875,0.851898193359375
1772702682440254200,6.431254150390625,-0.2408905029296875,0.469268798828125,0.8526153564453125
1772702682450304000,6.441303955078125,-0.24139404296875,0.468994140625,0.850830078125
1772702682460354000,6.45135400390625,-0.2409210205078125,0.4672088623046875,0.8532562255859375
1772702682470404000,6.461404052734375,-0.2441253662109375,0.4687347412109375,0.8546295166015625
1772702682480454100,6.4714541015625,-0.244140625,0.470611572265625,0.8512725830078125
1772702682490504000,6.48150390625,-0.242156982421875,0.4684906005859375,0.8497314453125
1772702682500554000,6.491553955078125,-0.23876953125,0.467926025390625,0.8500518798828125
1772702682510603300,6.501603271484375,-0.2386016845703125,0.46783447265625,0.8513641357421875
1772702682520653000,6.511653076171875,-0.24163818359375,0.4668121337890625,0.8555450439453125
1772702682530703000,6.521703125,-0.2434539794921875,0.4676666259765625,0.8560028076171875
1772702682540753200,6.531753173828125,-0.2428741455078125,0.466827392578125,0.8554229736328125
1772702682550803200,6.54180322265625,-0.2396087646484375,0.4687957763671875,0.852386474609375
1772702682560853000,6.55185302734375,-0.239593505859375,0.468170166015625,0.8481292724609375
1772702682570903000,6.561903076171875,-0.2417755126953125,0.4683685302734375,0.8508453369140625
1772702682580953000,6.571953125,-0.243255615234375,0.46942138671875,0.8496246337890625
1772702682591003100,6.582003173828125,-0.2429351806640625,0.46893310546875,0.8502960205078125
1772702682601053000,6.592052978515625,-0.243865966796875,0.4693756103515625,0.8497161865234375
1772702682611103000,6.60210302734375,-0.242523193359375,0.4689483642578125,0.8522186279296875
1772702682621153000,6.612153076171875,-0.23974609375,0.467742919921875,0.85400390625
1772702682631202300,6.622202392578125,-0.238250732421875,0.466796875,0.8531036376953125
1772702682641252000,6.632252197265625,-0.2401580810546875,0.468170166015625,0.8514862060546875
1772702682651302100,6.64230224609375,-0.2407989501953125,0.47052001953125,0.853668212890625
1772702682661352200,6.652352294921875,-0.24298095703125,0.470489501953125,0.85205078125
1772702682671402200,6.66240234375,-0.2420654296875,0.4698333740234375,0.8512725830078125
1772702682681452000,6.6724521484375,-0.2399444580078125,0.4678192138671875,0.8506317138671875
1772702682691502000,6.682502197265625,-0.240264892578125,0.468017578125,0.8524932861328125
1772702682701552000,6.69255224609375,-0.2420806884765625,0.4686737060546875,0.8508148193359375
1772702682711602200,6.702602294921875,-0.241302490234375,0.4680023193359375,0.85028076171875
1772702682721652000,6.71265185546875,-0.242279052734375,0.4700775146484375,0.8484954833984375
1772702682731702000,6.722701904296875,-0.2415313720703125,0.46942138671875,0.8491363525390625
1772702682741752000,6.732751953125,-0.2404937744140625,0.462677001953125,0.854888916015625
1772702682751801000,6.742801025390625,-0.23974609375,0.4658355712890625,0.8578338623046875
1772702682761851100,6.75285107421875,-0.24163818359375,0.4691314697265625,0.8520965576171875
1772702682771901200,6.762901123046875,-0.2425384521484375,0.4666290283203125,0.852996826171875
1772702682781951200,6.772951171875,-0.242950439453125,0.4686431884765625,0.8553009033203125
1772702682792001000,6.7830009765625,-0.2404327392578125,0.474365234375,0.8543853759765625
1772702682802051000,6.793051025390625,-0.23846435546875,0.473785400390625,0.8509368896484375
1772702682812101000,6.80310107421875,-0.2400360107421875,0.47113037109375,0.849365234375
1772702682822151200,6.813151123046875,-0.2428436279296875,0.469696044921875,0.8501739501953125
1772702682832201000,6.823200927734375,-0.2436370849609375,0.4680938720703125,0.8505706787109375
1772702682842251000,6.8332509765625,-0.2398834228515625,0.46527099609375,0.849029541015625
1772702682852301000,6.843301025390625,-0.2417755126953125,0.4654541015625,0.85028076171875
1772702682862351000,6.85335107421875,-0.235076904296875,0.46551513671875,0.8461761474609375
1772702682872400100,6.863400146484375,-0.21380615234375,0.4745025634765625,0.8565673828125
1772702682882450200,6.8734501953125,-0.24578857421875,0.4730377197265625,0.8583831787109375
1772702682892499200,6.883499267578125,-0.28668212890625,0.46710205078125,0.8414764404296875
1772702682902549200,6.89354931640625,-0.26904296875,0.471954345703125,0.8427734375
1772702682912599000,6.90359912109375,-0.2339324951171875,0.46844482421875,0.8583984375
1772702682922649000,6.913649169921875,-0.22503662109375,0.4677581787109375,0.85791015625
1772702682932699100,6.92369921875,-0.23370361328125,0.4709930419921875,0.84979248046875
1772702682942749200,6.933749267578125,-0.2380828857421875,0.4694976806640625,0.846954345703125
