time,seconds_elapsed,z,y,x
1772702676068611800,0.05961181640625,0.002508697798475623,0.005819273181259632,-0.009943976998329163
1772702676078662000,0.069661865234375,0.0015403723809868097,0.005312473513185978,-0.01142868958413601
1772702676088711700,0.079711669921875,0.0021920478902757168,0.006690925918519497,-0.011935489252209663
1772702676098761700,0.08976171875,-0.0005496764206327498,0.00506799528375268,-0.007077616639435291
1772702676108811800,0.099811767578125,0.0008500810363329947,0.011183411814272404,-0.005034439731389284
1772702676118861800,0.10986181640625,-0.00008548746700398624,0.012973322533071041,-0.0002743055811151862
1772702676128912000,0.119911865234375,0.0036823528353124857,0.013737117871642113,-0.002382730133831501
1772702676138961000,0.1299609375,0.0029113676864653826,0.01182017382234335,-0.002755572786554694
1772702676149011000,0.140010986328125,-0.0005419532535597682,0.00595456175506115,-0.002326537622138858
1772702676159061000,0.15006103515625,-0.0015733955660834908,0.001716673607006669,-0.00493217445909977
1772702676169110800,0.16011083984375,-0.002557966159656644,0.004983040504157543,-0.0038778288289904594
1772702676179160800,0.170160888671875,-0.0007930893916636705,0.005437109619379044,-0.0036253612488508224
1772702676189211000,0.1802109375,-0.0010634001810103655,0.005275189410895109,-0.001930791768245399
1772702676199261000,0.190260986328125,-0.0022887205705046654,0.012428440153598785,-0.001785116852261126
1772702676209310700,0.200310791015625,-0.002457298804074526,0.02081553265452385,-0.001487375469878316
1772702676219360800,0.21036083984375,0.0012098740553483367,0.00863023940473795,-0.002632800955325365
1772702676229410800,0.220410888671875,-0.0022216090001165867,0.012569587677717209,-0.00005459480235003866
1772702676239459800,0.2304599609375,-0.003094326937571168,0.00942119862884283,-0.001050084363669157
1772702676249510000,0.240510009765625,-0.004578240215778351,0.01136796921491623,-0.0021347899455577135
1772702676259560000,0.250559814453125,-0.0031960594933480024,0.014427408576011658,0.0021086910273879766
1772702676269610000,0.26060986328125,-0.0015835155500099063,0.007220895029604435,0.0014748586108908057
1772702676279659800,0.27065966796875,-0.0035324168857187033,0.014935806393623352,0.0027656927704811096
1772702676289709800,0.280709716796875,-0.002843989757820964,0.019993415102362633,0.0010130665032193065
1772702676299759900,0.290759765625,-0.0029912625905126333,0.01974520832300186,-0.0011108045000582933
1772702676309810000,0.300809814453125,-0.0030511836521327496,0.015426094643771648,0.004204598721116781
1772702676319859700,0.310859619140625,-0.004992628004401922,0.013519004918634892,0.002968625631183386
1772702676329909800,0.32090966796875,-0.005122323986142874,0.010869425721466541,0.0014317154418677092
1772702676339959800,0.330959716796875,-0.0054301852360367775,0.012553076259791851,0.004957740660756826
1772702676350009000,0.341009033203125,-0.004247475415468216,0.012119513005018234,-0.0006213154993019998
1772702676360059000,0.351058837890625,-0.002852778183296323,0.012026302516460419,0.0013970943400636315
1772702676370109000,0.36110888671875,-0.006205698009580374,0.0100212087854743,-0.0008274441352114081
1772702676380159000,0.371158935546875,-0.002862365450710058,0.015026086941361427,0.0030631679110229015
1772702676390209000,0.381208984375,-0.004572381265461445,0.02010473608970642,-0.0018394453218206763
1772702676400258800,0.3912587890625,-0.0031787490006536245,0.01685621216893196,-0.000966993800830096
1772702676410308900,0.401308837890625,-0.002029062481597066,0.014839932322502136,0.0026296053547412157
1772702676420359000,0.41135888671875,-0.0029111013282090425,0.014535266906023026,0.0008170577930286527
1772702676430409000,0.421408935546875,-0.00439048744738102,0.006473079323768616,0.0005185174522921443
1772702676440457700,0.431457763671875,-0.0037614486645907164,0.012404205277562141,-0.0020703414920717478
1772702676450507800,0.4415078125,-0.0019688750617206097,0.011640144512057304,-0.003147589974105358
1772702676460557800,0.451557861328125,-0.003910852130502462,0.010100305080413818,-0.002225870033726096
1772702676470608000,0.46160791015625,-0.00166607357095927,0.01299329660832882,-0.0008066715090535581
1772702676480658000,0.471657958984375,-0.0035113778430968523,0.011987687088549137,0.0006154565489850938
1772702676490708000,0.4817080078125,-0.002126534003764391,0.0228738896548748,-0.0017861821688711643
1772702676500758000,0.491758056640625,-0.002834402257576585,0.0265373345464468,-0.005789712071418762
1772702676510807800,0.501807861328125,-0.0018431737553328276,0.016043948009610176,-0.0017393104499205947
1772702676520857900,0.51185791015625,-0.004746019374579191,0.012190619483590126,-0.005791043862700462
1772702676530908000,0.521907958984375,-0.0038578552193939686,0.010834005661308765,-0.008130364120006561
1772702676540958000,0.5319580078125,-0.0016535567119717598,0.004729773849248886,-0.005763346794992685
1772702676551006700,0.5420068359375,-0.0026730147656053305,0.0038863508962094784,-0.011170363053679466
1772702676561056800,0.552056884765625,0.0001752359967213124,0.001654355670325458,-0.007299990858882666
1772702676571106800,0.56210693359375,-0.0010607370641082525,0.004599279258400202,-0.0049063414335250854
1772702676581156900,0.572156982421875,0.0024285365361720324,0.012164787389338017,-0.007468569092452526
1772702676591207000,0.58220703125,0.005358013790100813,0.015932627022266388,-0.0068331388756632805
1772702676601257000,0.592257080078125,0.0006628608098253608,0.01631159521639347,-0.004611529875546694
1772702676611307000,0.60230712890625,0.00567040266469121,0.014646320603787899,-0.003922836389392614
1772702676621357000,0.612357177734375,0.003605653764680028,0.00971760880202055,-0.005974003113806248
1772702676631406800,0.62240673828125,0.0011499529937282205,0.007868043147027493,-0.006554838269948959
1772702676641457000,0.632456787109375,0.005803826730698347,0.0027896612882614136,-0.004487160127609968
1772702676651506000,0.642505859375,0.002356098499149084,0.0024375913199037313,-0.002189651131629944
1772702676661555700,0.6525556640625,0.00012836436508223414,0.003287672298029065,-0.005526059307157993
1772702676671605800,0.662605712890625,0.002028796123340726,0.004767857491970062,-0.0025417208671569824
1772702676681655800,0.67265576171875,0.0009286442655138671,0.007370564620941877,-0.005043494515120983
1772702676691705900,0.682705810546875,-0.0012599414912983775,0.005109540652483702,-0.005037102848291397
1772702676701755600,0.692755615234375,0.00019201391842216253,0.004954811185598373,-0.006454703398048878
1772702676711805700,0.7028056640625,0.0004958806093782187,0.007000385317951441,-0.005558017175644636
1772702676721856000,0.71285595703125,0.0024706146214157343,0.006569219287484884,-0.005633650813251734
1772702676731906000,0.722906005859375,-0.001058872789144516,0.01053360104560852,-0.00603392394259572
1772702676741955800,0.732955810546875,0.0009108011145144701,0.006902913562953472,-0.0029265477787703276
1772702676752006000,0.743005859375,0.0007366303470917046,0.010311760008335114,-0.0025901903863996267
1772702676762055000,0.753054931640625,0.0012213257141411304,0.0036634444259107113,-0.004977980628609657
1772702676772104700,0.763104736328125,-0.0023307986557483673,0.0007693872321397066,-0.009052084758877754
1772702676782154800,0.77315478515625,-0.0013632721966132522,0.0014386395923793316,-0.007230482529848814
1772702676792204800,0.783204833984375,0.000015712650565546937,-0.000651675509288907,-0.004606469534337521
1772702676802254800,0.7932548828125,-0.0013262542197480798,-0.0030546458438038826,-0.004838697146624327
1772702676812305000,0.803304931640625,0.0002591255761217326,0.002569684060290456,-0.0054605454206466675
1772702676822354700,0.813354736328125,0.0007568703731521964,0.0059777311980724335,-0.0017920411191880703
1772702676832404700,0.82340478515625,0.0013275857781991363,0.008304002694785595,-0.006603574380278587
1772702676842454800,0.833454833984375,0.0014719291357323527,0.004938832018524408,0.000910268456209451
1772702676852505000,0.843505126953125,-0.0010373012628406286,0.0016133430181071162,-0.0007962851668708026
1772702676862553900,0.853553955078125,-0.001978995045647025,0.0035092474427074194,-0.002597380895167589
1772702676872604000,0.86360400390625,0.0014506238512694836,0.007156978826969862,-0.0032916669733822346
1772702676882653700,0.87365380859375,-0.003051982494071126,0.006667223758995533,0.00034914040588773787
1772702676892703500,0.883703369140625,0.0003656520275399089,0.0038189729675650597,0.001984587637707591
1772702676902753500,0.89375341796875,-0.0016583503456786275,5.326322138898831e-7,0.002627741079777479
1772702676912803600,0.903803466796875,-0.00392683083191514,0.0014426343841478229,0.0001739044237183407
1772702676922853600,0.913853515625,-0.0023132218047976494,0.0025739450938999653,-0.0010186590952798724
1772702676932903400,0.9239033203125,-0.0021254688035696745,0.007678159512579441,0.0009246495319530368
1772702676942953500,0.933953369140625,0.0002061286650132388,0.006898918654769659,0.0037292244378477335
1772702676953003500,0.94400341796875,-0.0006532734259963036,0.009968211874365807,0.006083192303776741
1772702676963053800,0.9540537109375,-0.0041489386931061745,0.009031045250594616,0.004508465528488159
1772702676973102600,0.9641025390625,-0.002348109148442745,0.011299792677164078,0.005770004820078611
1772702676983152600,0.974152587890625,-0.003634682158008218,0.011751997284591198,0.006620352156460285
1772702676993202700,0.98420263671875,-0.0029379993211477995,0.003912716172635555,0.003998470026999712
1772702677003252500,0.99425244140625,-0.0027164241764694452,0.0017302557826042175,0.0032716933637857437
1772702677013302500,1.004302490234375,-0.000892425247002393,0.002864762442186475,0.004223773255944252
1772702677023352600,1.0143525390625,-0.0017470336752012372,0.0023334617726504803,-0.00027377295191399753
1772702677033402600,1.024402587890625,-0.003686880227178335,0.007476558443158865,0.0024620923213660717
1772702677043452400,1.034452392578125,-0.0023209447972476482,0.008017712272703648,0.0016990967560559511
1772702677053502500,1.04450244140625,-0.0008503473363816738,0.008127701468765736,0.0013840447645634413
1772702677063552500,1.054552490234375,-0.0011400992516428232,0.00872238539159298,-0.0011536814272403717
1772702677073602600,1.0646025390625,-0.004318848252296448,0.006724747829139233,-0.004424575716257095
1772702677083651600,1.074651611328125,0.0025457157753407955,-0.0016325177857652307,0.00007243797881528735
1772702677093701600,1.08470166015625,0.0019835224375128746,0.0005065332516096532,-0.0007731156656518579
1772702677103751700,1.094751708984375,0.0008404936525039375,0.0022101574577391148,0.00005725796290789731
1772702677113801700,1.1048017578125,0.0022154836915433407,-0.003102049930021167,-0.001996838254854083
1772702677123851500,1.1148515625,0.0024405207950621843,-0.007168963085860014,0.00002370213405811228
1772702677133901600,1.124901611328125,-0.0015643407823517919,-0.001407480682246387,0.0006487460341304541
1772702677143951600,1.13495166015625,0.0003683151735458523,0.00854475237429142,-0.001820536912418902
1772702677154001700,1.145001708984375,-0.0017715347930788994,0.013669739477336407,-0.000907338981050998
1772702677164051500,1.155051513671875,0.00005619269722956233,0.013002084568142891,-0.0004215783847030252
1772702677174101500,1.1651015625,-0.0014751249691471457,0.00580702256411314,-0.0054754591546952724
1772702677184150800,1.17515087890625,0.0024983114562928677,0.0065290057100355625,-0.0026141589041799307
1772702677194200600,1.18520068359375,0.0006117281154729426,0.007349791936576366,-0.002892725635319948
1772702677204250600,1.195250732421875,0.0012828446924686432,0.010735468938946724,-0.0017204020405188203
1772702677214300700,1.20530078125,-0.003151052165776491,0.00791438203305006,-0.0005874933558516204
1772702677224350700,1.215350830078125,-0.00307621737010777,0.00020000340009573847,0.0013590110465884209
1772702677234400500,1.225400390625,-0.001341700553894043,0.0034562505315989256,-0.0022248048335313797
1772702677244450600,1.235450439453125,0.000027696874894900247,0.006423011887818575,-0.00023675501870457083
1772702677254500600,1.24550048828125,0.003668770659714937,0.004057059530168772,-0.001877262257039547
1772702677264550700,1.255550537109375,0.004483697935938835,0.005913815461099148,0.003422162029892206
1772702677274600400,1.265600341796875,0.0076118470169603825,0.001669003046117723,0.005014998838305473
1772702677284650500,1.275650390625,0.00618306128308177,0.010367952287197113,0.004056793171912432
1772702677294699800,1.28569970703125,0.005791310220956802,0.018282867968082428,0.00029534456552937627
1772702677304749600,1.29574951171875,0.005161738954484463,0.008254201151430607,-0.0003904194163624197
1772702677314799600,1.305799560546875,0.002501773415133357,0.003126551164314151,-0.0020927118603140116
1772702677324849700,1.315849609375,0.0016101471846923232,-0.0002820287481881678,-0.0007856325246393681
1772702677334899700,1.325899658203125,0.0032413334120064974,-0.006154298782348633,-0.0005478122038766742
1772702677344949800,1.33594970703125,0.005005144979804754,-0.008973787538707256,-0.004859469830989838
1772702677354999600,1.34599951171875,0.003905259305611253,-0.006022738758474588,0.0008471515611745417
1772702677365049600,1.356049560546875,0.003906324505805969,-0.0008588694618083537,-0.0017172062071040273
1772702677375099600,1.366099609375,0.00261895265430212,0.009259544312953949,-0.0035659726709127426
1772702677385149700,1.376149658203125,0.0050687943585217,0.013736052438616753,-0.0015984292840585113
1772702677395198500,1.386198486328125,0.0007211840129457414,0.012406602501869202,-0.0059865196235477924
1772702677405248800,1.396248779296875,0.004770254250615835,0.0060296631418168545,-0.003233876544982195
1772702677415298800,1.406298828125,0.0029372002463787794,0.0031220237724483013,-0.0009978864109143615
1772702677425348600,1.4163486328125,0.004793956410139799,-0.0014245248166844249,-0.0029081718530505896
1772702677435398700,1.426398681640625,-0.0003914846747647971,-0.008620918728411198,-0.0033095101825892925
1772702677445448700,1.43644873046875,0.0020072245970368385,-0.006422479171305895,-0.004005128052085638
1772702677455498800,1.446498779296875,0.0027366643771529198,-0.0011491540353745222,-0.003674629610031843
1772702677465548500,1.456548583984375,-0.00013262542779557407,0.0032258869614452124,-0.00544403400272131
1772702677475598600,1.4665986328125,0.002275937469676137,0.0022149509750306606,-0.00440939562395215
1772702677485648600,1.476648681640625,0.0014599448768422008,0.009489375166594982,-0.007864048704504967
1772702677495698700,1.48669873046875,0.0002335592289455235,0.009850233793258667,-0.005982791539281607
1772702677505747500,1.49674755859375,0.0017683389596641064,0.004317250568419695,-0.006053631659597158
1772702677515797500,1.506797607421875,0.0001155811914941296,0.005081311333924532,-0.003338538808748126
1772702677525847600,1.51684765625,0.0016413062112405896,0.011059575714170933,-0.00387410051189363
1772702677535897600,1.526897705078125,0.0004724447790067643,-0.0003755057114176452,-0.0043745082803070545
1772702677545947600,1.53694775390625,-0.0035278894938528538,0.0015600797487422824,-0.0014058827655389905
1772702677555997700,1.546997802734375,0.0010042780777439475,-0.0004854942671954632,-0.0038330876268446445
1772702677566047700,1.5570478515625,-0.0005877596559002995,0.010868893004953861,-0.00589730404317379
1772702677576097500,1.56709765625,-0.0035388083197176456,0.00959590170532465,-0.0023869911674410105
1772702677586147600,1.577147705078125,-0.0017560884589329362,0.0033358754590153694,-0.0016916398890316486
1772702677596197600,1.58719775390625,-0.0015949672088027,0.0037417414132505655,0.0013875069562345743
1772702677606246700,1.59724658203125,-0.002189118415117264,0.007728226948529482,0.0005885586142539978
1772702677616296400,1.60729638671875,-0.0007787083159200847,0.006223008502274752,-0.0004956142511218786
1772702677626346500,1.617346435546875,-0.0015686018159613013,0.006073072552680969,0.00005725796290789731
1772702677636396500,1.627396484375,-0.0003813646617345512,0.007680290378630161,0.0029696908313781023
1772702677646446600,1.637446533203125,-0.0013795174891129136,0.013018064200878143,0.002926813904196024
1772702677656496600,1.64749658203125,-0.005240035708993673,0.014511298388242722,0.004303401801735163
1772702677666546700,1.657546630859375,-0.0027268105186522007,0.006941795814782381,0.0023965786676853895
1772702677676596700,1.6675966796875,-0.0054213968105614185,0.012141884304583073,0.0009126652730628848
1772702677686646800,1.677646728515625,-0.0026999127585440874,0.010435597039759159,0.004683434963226318
1772702677696696600,1.687696533203125,-0.002891926560550928,0.013101154938340187,0.002016279147937894
1772702677706745600,1.69774560546875,-0.0035627768374979496,0.013727263547480106,0.0035300198942422867
1772702677716795600,1.707795654296875,-0.0022767363116145134,0.011168498545885086,0.0023555660154670477
1772702677726845400,1.717845458984375,-0.0016200009267777205,0.006431533955037594,0.0032740901224315166
1772702677736895500,1.7278955078125,-0.004382497631013393,0.0062397862784564495,0.0025004418566823006
1772702677746945500,1.737945556640625,-0.0013496900210157037,0.0027438548859208822,0.004279167391359806
1772702677756995600,1.74799560546875,-0.00316010694950819,0.005132710561156273,0.0044133905321359634
1772702677767045400,1.75804541015625,0.000018109494703821838,0.005164934787899256,-0.0004189152386970818
1772702677777095700,1.768095703125,-0.002674612682312727,0.007149788551032543,0.0021752698812633753
1772702677787145700,1.778145751953125,-0.0027542412281036377,-0.00005459480235003866,0.0007150587625801563
1772702677797195800,1.78819580078125,0.000919323181733489,-0.001898034941405058,0.0006828344776295125
1772702677807245600,1.79824560546875,-0.0020216056145727634,-0.000261788722127676,-0.0027686222456395626
1772702677817294600,1.808294677734375,-0.0024810009635984898,0.00221974472515285,0.0012460930738598108
1772702677827344600,1.8183447265625,-0.0013401026371866465,0.010337325744330883,-0.00015819176041986793
1772702677837394700,1.828394775390625,-0.002395247109234333,0.018500713631510735,0.001484712352976203
1772702677847444500,1.838444580078125,-0.0038480013608932495,0.01818166673183441,0.0029622339643538
1772702677857494500,1.84849462890625,-0.0033193640410900116,0.0122441491112113,0.004670385736972094
1772702677867544600,1.858544677734375,-0.0038754320703446865,0.009048888459801674,0.0035606464371085167
1772702677877594600,1.8685947265625,-0.003029345767572522,0.0068299430422484875,-0.0014980280539020896
1772702677887644400,1.87864453125,-0.004081294406205416,0.002615224104374647,-0.0013848437229171395
1772702677897694500,1.888694580078125,-0.0016237293602898717,-0.0010921623324975371,-0.003165965899825096
1772702677907744500,1.89874462890625,0.0009568737586960196,0.0041060615330934525,0.0007843009079806507
1772702677917793500,1.90879345703125,0.0011619371362030506,0.013874003663659096,0.0009321063989773393
1772702677927843600,1.918843505859375,0.001253017340786755,0.010819357819855213,0.001455151243135333
1772702677937893600,1.9288935546875,0.001981391804292798,0.007932225242257118,0.0012716593919321895
1772702677947943400,1.938943359375,0.0020093549974262714,0.005597964394837618,0.0004013383586425334
1772702677957993500,1.948993408203125,0.003555586328729987,0.0038807583041489124,-0.0020088222809135914
1772702677968043500,1.95904345703125,0.0028607675340026617,0.004822718445211649,-0.001243696198798716
1772702677978093600,1.969093505859375,0.003213370218873024,0.0022738068364560604,-0.003385144053027034
1772702677988143400,1.979143310546875,0.002132392954081297,-0.002900448627769947,-0.0027454528026282787
1772702677998193400,1.989193359375,0.0014152037911117077,-0.003400324145331979,-0.0016524913953617215
1772702678008243500,1.999243408203125,-0.0003989415417890996,-0.003065032185986638,-0.00481472909450531
1772702678018293500,2.00929345703125,-0.001793905277736485,-0.005458415020257235,-0.004539357963949442
1772702678028342500,2.019342529296875,0.0014615427935495973,-0.007906658574938774,-0.008534366264939308
1772702678038392600,2.029392578125,0.004863731097429991,-0.0019137475173920393,-0.00851652305573225
1772702678048442600,2.039442626953125,0.0013161342358216643,0.0026698189321905375,-0.004539357963949442
1772702678058492400,2.049492431640625,0.0020793962758034468,0.00196354859508574,-0.006328469607979059
1772702678068542500,2.05954248046875,0.0020516992080956697,0.0008053398923948407,-0.0034413367975503206
1772702678078592500,2.069592529296875,0.002663427498191595,0.007842742837965488,-0.004847219679504633
1772702678088642600,2.079642578125,-0.00046392265358008444,0.011688347905874252,-0.004481301177293062
1772702678098692400,2.0896923828125,0.000758734589908272,0.011838283389806747,-0.007457649800926447
1772702678108742400,2.099742431640625,-0.00006498113361885771,0.0029169602785259485,-0.006218214984983206
1772702678118792400,2.10979248046875,0.0013675332302227616,-0.0011896340874955058,-0.004442152567207813
1772702678128842500,2.119842529296875,0.0008993495139293373,-0.0008450209861621261,-0.0008319715270772576
1772702678138891500,2.1298916015625,0.0015102786710485816,-0.00506826164200902,-0.005505819339305162
1772702678148941600,2.139941650390625,-0.0024234766606241465,-0.0031273500062525272,-0.0008111988427117467
1772702678158991600,2.14999169921875,-0.00007696535612922162,-0.0011614045361056924,-0.0014809839194640517
1772702678169041700,2.160041748046875,0.00029827404068782926,0.006364156026393175,0.00013156015484128147
1772702678179091500,2.170091552734375,-0.0015225291717797518,0.010269681923091412,0.0004993426846340299
1772702678189141500,2.1801416015625,0.0012945625931024551,0.009297095239162445,-0.0005464806454256177
1772702678199191600,2.190191650390625,0.00015765913121867925,0.012117116712033749,0.0026165556628257036
1772702678209241600,2.20024169921875,-0.00010918960470007733,0.009919209405779839,0.0016056197928264737
1772702678219291400,2.21029150390625,-0.0018200043123215437,0.001990979304537177,0.001583249308168888
1772702678229341400,2.220341552734375,-0.002398176584392786,-0.003975833300501108,0.003840810852125287
1772702678239390700,2.230390625,-0.0021667478140443563,-0.010104299522936344,0.0021193434949964285
1772702678249440500,2.2404404296875,-0.00016298545233439654,-0.00851519126445055,0.004284493625164032
1772702678259490600,2.250490478515625,-0.0010439591715112329,-0.002757703186944127,0.0057249972596764565
1772702678269540600,2.26054052734375,-0.0020658141002058983,0.007529288996011019,0.002049036091193557
1772702678279590700,2.270590576171875,-0.0038008634001016617,0.011495268903672695,0.0030056436080485582
1772702678289640400,2.280640380859375,-0.0018232000293210149,0.006396113894879818,0.0038368161767721176
1772702678299690500,2.2906904296875,-0.004485296085476875,0.0027595674619078636,0.004354534670710564
1772702678309740500,2.300740478515625,-0.002319879597052932,-0.0014146711910143495,0.005188902840018272
1772702678319790600,2.31079052734375,-0.005776662845164537,-0.00096113485051319,0.004215251188725233
1772702678329840400,2.32084033203125,-0.006115150637924671,0.007645136676728725,0.00021172130072955042
1772702678339889400,2.330889404296875,-0.006800648290663958,0.005681854207068682,0.0031473238486796618
1772702678349939700,2.340939697265625,-0.007870174013078213,0.0037705034483224154,0.003126284806057811
1772702678359989800,2.35098974609375,-0.003010703483596444,0.0008780442294664681,0.005631520412862301
1772702678370039600,2.36103955078125,-0.00213585514575243,0.005982258822768927,0.006081594619899988
1772702678380089600,2.371089599609375,-0.0033161682076752186,0.013709686696529388,0.003990480676293373
1772702678390139600,2.3811396484375,-0.005883987993001938,0.015162174589931965,0.002094576135277748
1772702678400189700,2.391189697265625,-0.005846437532454729,0.012018846347928047,0.004029096569865942
1772702678410239500,2.401239501953125,-0.004455734975636005,0.009443036280572414,0.005261341109871864
1772702678420289500,2.41128955078125,-0.0054552191868424416,0.016342753544449806,0.004224572330713272
1772702678430339600,2.421339599609375,-0.0017307883827015758,0.013458817265927792,0.0054794540628790855
1772702678440389600,2.4313896484375,-0.0025009745731949806,0.010404970496892929,0.006985737942159176
1772702678450438400,2.4414384765625,-0.003713778220117092,0.00577959232032299,0.005514341406524181
1772702678460488400,2.451488525390625,-0.006380933802574873,0.009564210660755634,0.005609150044620037
1772702678470538500,2.46153857421875,-0.005651494022458792,0.011754926294088364,0.0043622576631605625
1772702678480588500,2.471588623046875,-0.005948436446487904,0.016441291198134422,0.0011387676931917667
1772702678490638600,2.481638671875,-0.007130081299692392,0.012487029656767845,0.000022370553779182956
1772702678500688600,2.491688720703125,-0.0051992894150316715,0.009093630127608776,0.0024804682470858097
1772702678510738700,2.50173876953125,-0.0016586167039349675,0.007407316006720066,0.0035366779193282127
1772702678520788500,2.51178857421875,-0.005310076754540205,0.013249492272734642,0.002014681464061141
1772702678530838500,2.521838623046875,-0.002829608740285039,0.01932602748274803,0.007005178835242987
1772702678540888600,2.531888671875,-0.0011672634864225984,0.021159080788493156,0.006357498001307249
1772702678550938600,2.541938720703125,-0.0018082864116877317,0.013375992886722088,0.006370014976710081
1772702678560987400,2.5519873046875,-0.00336090917699039,0.012224708683788776,0.005730323493480682
1772702678571037400,2.562037353515625,-0.005742574110627174,0.004396346397697926,0.006363623309880495
1772702678581087500,2.57208740234375,-0.005651760380715132,-0.0027422569692134857,0.0043955473229289055
1772702678591137500,2.582137451171875,-0.0049156625755131245,-0.0035505264531821012,0.0026618295814841986
1772702678601187600,2.5921875,-0.0036706349346786737,0.0075820195488631725,0.004763596225529909
1772702678611237600,2.602237548828125,-0.0015414375811815262,0.02424675039947033,0.005759884603321552
1772702678621287700,2.61228759765625,-0.0004854942671954632,0.018819494172930717,0.005121791269630194
1772702678631337700,2.622337646484375,0.0022708773612976074,0.013094496913254261,0.005584648810327053
1772702678641387500,2.632387451171875,0.0005701828049495816,0.006046973634511232,0.0032410670537501574
1772702678651437600,2.6424375,0.003690076060593128,0.009396431036293507,0.0067575047723948956
1772702678661486600,2.652486572265625,0.0027337349019944668,0.014887869358062744,0.005628324579447508
1772702678671536400,2.662536376953125,0.003564641112461686,0.011712316423654556,0.007847003638744354
1772702678681586400,2.67258642578125,0.003556119045242667,0.004219246096909046,0.010953581891953945
1772702678691636500,2.682636474609375,0.0012402341235429049,0.0016463662032037973,0.00287461606785655
1772702678701686500,2.6926865234375,0.002225870033726096,0.0013763216556981206,0.009076053276658058
1772702678711736300,2.702736328125,0.0021015002857893705,-0.0022130869328975677,0.005290103144943714
1772702678721786600,2.71278662109375,0.0028485171496868134,-0.003200853243470192,0.002825613832101226
1772702678731836700,2.722836669921875,0.0021169467363506556,-0.0048799761570990086,0.004278634674847126
1772702678741886700,2.73288671875,0.0044016726315021515,-0.0039015309885144234,0.007832356728613377
1772702678751936500,2.7429365234375,0.0030799456872045994,0.00330285239033401,0.00624058535322547
1772702678761986600,2.752986572265625,0.003433613572269678,0.008687231689691544,0.0010996191995218396
1772702678772035600,2.76303564453125,0.00606268597766757,0.009371130727231503,0.00216488353908062
1772702678782085400,2.77308544921875,0.004020840395241976,0.008116782642900944,0.002389121800661087
1772702678792135400,2.783135498046875,0.001981125446036458,0.005005411338061094,-0.0007821703911758959
1772702678802185500,2.793185546875,0.00318940170109272,0.003743072971701622,-0.002513491315767169
1772702678812235500,2.803235595703125,0.003742273896932602,-0.003899666713550687,0.0014229270163923502
1772702678822285300,2.813285400390625,0.0010498181218281388,-0.003922303672879934,0.0013214604696258903
1772702678832335400,2.82333544921875,0.002007757080718875,-0.009501093067228794,0.0030684941448271275
1772702678842385400,2.833385498046875,0.002347310073673725,-0.006044310517609119,-0.0004942826926708221
1772702678852435700,2.843435791015625,0.0010101370280608535,0.0021843246649950743,0.0005928196478635073
1772702678862485500,2.853485595703125,0.0019768644124269485,0.000931307440623641,0.0035417377948760986
1772702678872535600,2.86353564453125,0.003941744565963745,0.001517202821560204,0.0024016385432332754
1772702678882584600,2.87358447265625,-0.0008535431115888059,0.006232596002519131,0.002085787709802389
1772702678892633900,2.8836337890625,0.0022338596172630787,0.003754790872335434,0.00276196445338428
1772702678902684000,2.893683837890625,-0.0012599414912983775,0.0005158542771823704,0.0012298477813601494
1772702678912734000,2.90373388671875,-0.0014032195322215557,-0.0029587720055133104,0.00011185276525793597
1772702678922784000,2.913783935546875,0.000016777914424892515,0.002442385070025921,-0.00022210762836039066
1772702678932833800,2.923833740234375,-0.0013827132061123848,0.0015811186749488115,0.0006878945278003812
1772702678942884000,2.933884033203125,-0.0024740765802562237,0.002950782421976328,-0.0026525084394961596
1772702678952934100,2.94393408203125,0.0014444985426962376,0.007932491600513458,0.00027510453946888447
1772702678962984200,2.953984130859375,-0.0008761800127103925,0.005302886478602886,0.0004021373169962317
1772702678973034000,2.964033935546875,-0.001719603082165122,0.00666429428383708,0.0024343954864889383
1772702678983084000,2.974083984375,-0.0003350256592966616,0.01389877125620842,0.00126766471657902
1772702678993133000,2.984133056640625,-0.0007869640830904245,0.013372796587646008,0.0017861821688711643
1772702679003183000,2.99418310546875,-0.002980609890073538,0.010360495187342167,0.004844556096941233
1772702679013233000,3.00423291015625,-0.0015970977256074548,0.009241701103746891,0.0017678063595667481
1772702679023283000,3.014282958984375,-0.0006833671359345317,0.008772186003625393,0.0019856528379023075
1772702679033333000,3.0243330078125,-0.0027089675422757864,0.007453655358403921,0.001029311795718968
1772702679043383000,3.034383056640625,-0.0022216090001165867,0.00760998297482729,0.00017736652807798237
1772702679053432800,3.044432861328125,-0.0003733751946128905,0.01037674117833376,-0.0008186557097360492
1772702679063483000,3.05448291015625,-0.0029284118209034204,0.01011095754802227,-0.0008910936885513365
1772702679073533200,3.064533203125,0.0025363946333527565,0.014387194998562336,-0.0015060176374390721
1772702679083583200,3.074583251953125,0.0013451626291498542,0.012978915125131607,-0.001294029993005097
1772702679093632000,3.084632080078125,-0.0011054781498387456,0.010213488712906837,-0.005330316722393036
1772702679103682000,3.09468212890625,-0.0015547533985227346,0.005789978429675102,-0.005093029234558344
1772702679113732000,3.104732177734375,-0.0007222492713481188,0.005901298485696316,-0.003878894029185176
1772702679123782000,3.114781982421875,-0.002323608146980405,0.011937352828681469,-0.003893807763233781
1772702679133832000,3.12483203125,-0.004655472002923489,0.02051912248134613,-0.007636880502104759
1772702679143882000,3.134882080078125,-0.007453122641891241,0.019337479025125504,-0.010128001682460308
1772702679153932000,3.14493212890625,-0.0054879761300981045,0.015371233224868774,-0.004494084510952234
1772702679163981800,3.15498193359375,-0.0031214910559356213,0.008833439089357853,-0.005259476602077484
1772702679174032000,3.165031982421875,-0.005894640926271677,0.005997971165925264,-0.0048829056322574615
1772702679184082000,3.17508203125,-0.0030117689166218042,0.008055795915424824,-0.006295446306467056
1772702679194132000,3.185132080078125,-0.002379800658673048,0.015418104827404022,-0.00501100393012166
1772702679204181000,3.195180908203125,-0.0007874967413954437,0.023788420483469963,-0.0027957865968346596
1772702679214231000,3.20523095703125,-0.002133724745362997,0.026811907067894936,-0.0065681543201208115
1772702679224281000,3.215281005859375,-0.0033095101825892925,0.02509017288684845,-0.004795820452272892
1772702679234331100,3.2253310546875,-0.0024431839119642973,0.020060792565345764,-0.0067961206659674644
1772702679244381000,3.235380859375,-0.005817941855639219,0.018571021035313606,-0.00818096473813057
1772702679254431000,3.245430908203125,-0.005037901923060417,0.01287665031850338,-0.010793259367346764
1772702679264481000,3.25548095703125,-0.00552126532420516,0.009794307872653008,-0.01070857048034668
1772702679274531000,3.265531005859375,-0.0057159424759447575,0.00632021389901638,-0.008171110413968563
1772702679284580900,3.275580810546875,-0.001207477180287242,0.009939982555806637,-0.007797469384968281
1772702679294631000,3.285630859375,0.001109739183448255,0.013170130550861359,-0.004547347314655781
1772702679304681000,3.295680908203125,0.003034405643120408,0.014902250841259956,-0.005560413934290409
1772702679314730000,3.30572998046875,0.001648230361752212,0.01661386340856552,-0.004936435259878635
1772702679324780000,3.315780029296875,0.0036583843175321817,0.016985908150672913,-0.0037377465050667524
1772702679334830000,3.325830078125,0.003008306724950671,0.017194433137774467,-0.005921538453549147
1772702679344880000,3.335880126953125,0.0007933556917123497,0.010038519278168678,-0.005438441410660744
1772702679354930000,3.345929931640625,0.00022317290131468326,0.010188189335167408,-0.006382798310369253
1772702679364980000,3.35597998046875,-0.0015275891637429595,0.009094162844121456,-0.0020562265999615192
1772702679375030000,3.366030029296875,0.0023273364640772343,0.003925765864551067,-0.0024375913199037313
1772702679385080000,3.376080078125,-0.001603755634278059,-0.0020996362436562777,-0.0022184131667017937
1772702679395129900,3.3861298828125,-0.00011691277177305892,0.004503405187278986,-0.004988633096218109
1772702679405180000,3.396179931640625,-0.0005049353349022567,0.005520733073353767,-0.0007776430575177073
1772702679415230000,3.40622998046875,0.000472977408207953,0.00609437795355916,-0.0009435579413548112
1772702679425279200,3.416279296875,0.003606186481192708,0.005386509466916323,-0.0006551376427523792
1772702679435329000,3.4263291015625,0.0028016455471515656,0.011331483721733093,0.0022184131667017937
1772702679445379000,3.436379150390625,-0.0005451490869745612,0.011985023505985737,-0.003126284806057811
1772702679455429000,3.44642919921875,0.002457298804074526,0.00726483715698123,-0.0037670412566512823
1772702679465479200,3.456479248046875,0.0015813850332051516,0.004821120295673609,-0.001975000137463212
1772702679475529000,3.466529052734375,0.0016026903176680207,0.004846953321248293,0.00026738137239590287
1772702679485579000,3.4765791015625,0.00023995080846361816,0.005812881514430046,-0.0010775149567052722
1772702679495629000,3.486629150390625,-0.00027856664382852614,-0.001255946815945208,-0.002192846732214093
1772702679505679000,3.49667919921875,0.000969656917732209,0.0034205641131848097,-0.003032008884474635
1772702679515729000,3.50672900390625,-0.0009486179915256798,-0.00031851406674832106,0.0012034825049340725
1772702679525779000,3.516779052734375,0.000716922979336232,0.0012650014832615852,-0.00045593318645842373
1772702679535828200,3.526828125,0.001919073867611587,0.001261805766262114,0.0029025792609900236
1772702679545878000,3.5368779296875,0.0013377057621255517,0.004546548705548048,0.004525509662926197
1772702679555928000,3.546927978515625,0.00042796999332495034,0.007488542702049017,0.002895122393965721
1772702679565978000,3.55697802734375,0.0032349417451769114,0.00577799417078495,0.005188902840018272
1772702679576028200,3.567028076171875,0.0014474280178546906,0.004811000544577837,0.004178766161203384
1772702679586078000,3.577077880859375,0.002246642718091607,0.007672300562262535,0.004874117206782103
1772702679596128000,3.5871279296875,-0.002546248259022832,0.0035020567011088133,0.005501025356352329
1772702679606178000,3.597177978515625,-0.0015398397808894515,-0.0038535939529538155,0.004080495331436396
1772702679616228000,3.60722802734375,-0.001680454588495195,-0.005617405753582716,0.005835252348333597
1772702679626278000,3.61727783203125,-0.0027928571216762066,-0.0007211840129457414,0.00196381495334208
1772702679636328000,3.627327880859375,-0.0021848573815077543,-0.0029206888284534216,0.0008322378271259367
1772702679646377000,3.637376953125,0.0021920478902757168,0.0007217166712507606,0.005565740168094635
1772702679656427000,3.647427001953125,-0.001175519311800599,0.005007808096706867,0.00347409350797534
1772702679666477000,3.65747705078125,-0.0008021441171877086,0.005755091086030006,0.007869907654821873
1772702679676527000,3.667527099609375,-0.0004958806093782187,0.0037497307639569044,0.0049188584089279175
1772702679686577200,3.6775771484375,-0.001936650718562305,0.005813147872686386,0.0028988507110625505
1772702679696627200,3.687627197265625,-0.00177952426020056,0.004756405483931303,0.006681072060018778
1772702679706677000,3.697677001953125,-0.0015717976493760943,0.004740959499031305,0.0039015309885144234
1772702679716727000,3.70772705078125,-0.00041199102997779846,0.0016018913593143225,0.003316700691357255
1772702679726777000,3.717777099609375,0.002537726191803813,-0.0012924320762977004,0.0028876655269414186
1772702679736827100,3.7278271484375,-0.001193362521007657,-0.0027947211638092995,0.0007331682136282325
1772702679746877000,3.737876953125,-0.0009262474486604333,0.0003438140847720206,0.002998719457536936
1772702679756926000,3.747926025390625,0.0005052016349509358,0.00009853696246864274,-0.00005672533006872982
1772702679766976000,3.75797607421875,-0.0005054679932072759,0.004456267226487398,0.0014911039033904672
1772702679777026000,3.768026123046875,0.0018194715958088636,0.0032975259236991405,-0.00002103897168126423
1772702679787076000,3.778076171875,-0.0007803061744198203,0.0032719597220420837,-0.0007171892793849111
1772702679797126100,3.788126220703125,-0.0027601001784205437,0.0036362800747156143,-0.0022277343086898327
1772702679807176200,3.79817626953125,-0.002921221312135458,0.005792907904833555,-0.0020354539155960083
1772702679817226000,3.80822607421875,-0.0022359900176525116,0.0016437029698863626,-0.006472812965512276
1772702679827276000,3.818276123046875,0.0002724413643591106,-0.002175003755837679,-0.0010010822443291545
1772702679837326000,3.828326171875,0.0002788329729810357,-0.005912217777222395,-0.0025630262680351734
1772702679847376100,3.838376220703125,0.0010697918478399515,-0.0027561055030673742,-0.0013757890556007624
1772702679857426000,3.848426025390625,0.0003406183095648885,0.010542389005422592,-0.003457582090049982
1772702679867475000,3.858474853515625,-0.0016439693281427026,0.020261861383914948,-0.002525741932913661
1772702679877525000,3.86852490234375,-0.001751827308908105,0.023205187171697617,0.00012756542128045112
1772702679887575800,3.878575927734375,-0.0016876452136784792,0.017120663076639175,-0.0032519858796149492
1772702679897625900,3.8886259765625,-0.004789162427186966,0.010976218618452549,-0.0046967510133981705
1772702679907676000,3.898676025390625,-0.0040887510403990746,0.00316037330776453,-0.0043928842060267925
1772702679917726000,3.908725830078125,-0.008300806395709515,0.000895621080417186,-0.00628932099789381
1772702679927776000,3.91877587890625,-0.0032109732273966074,-0.002430933527648449,-0.004053064621984959
1772702679937825800,3.92882568359375,-0.0056861150078475475,0.0013470269041135907,-0.0028069717809557915
1772702679947876000,3.9388759765625,-0.0016610135789960623,0.005194761790335178,-0.0036732980515807867
1772702679957926100,3.948926025390625,-0.0005558017292059958,0.008548214100301266,-0.0019979034550487995
1772702679967976200,3.95897607421875,0.0017739315517246723,0.01047474518418312,-0.0005901564727537334
1772702679978025000,3.96902490234375,0.0030162963084876537,0.012532303109765053,-0.0014258564915508032
1772702679988075000,3.979074951171875,0.005282912403345108,0.01576564647257328,-0.0002146507758880034
1772702679998125000,3.989125,0.004543885588645935,0.010753312148153782,0.0015763250412419438
1772702680008174800,3.9991748046875,0.0021467742044478655,0.004572114907205105,-0.0012538161827251315
1772702680018225000,4.009224853515625,0.0030160299502313137,0.0032985913567245007,-0.001109739183448255
1772702680028275000,4.01927490234375,0.0016700683627277613,0.005514341406524181,-0.0008314388687722385
1772702680038325000,4.029324951171875,-0.0007131945458240807,0.00404507527127862,-0.003584614722058177
1772702680048374800,4.039374755859375,0.0017116136150434613,-0.005921006202697754,-0.0003909520455636084
1772702680058424800,4.0494248046875,0.00019627496658358723,-0.0022711437195539474,0.0015302523970603943
1772702680068475100,4.05947509765625,-0.0012921657180413604,0.0029731530230492353,-0.0014588796766474843
1772702680078525200,4.069525146484375,0.00023622238950338215,0.009586048312485218,-0.004594219382852316
1772702680088574000,4.079573974609375,0.0008902947301976383,0.006892793346196413,-0.002852778183296323
1772702680098624000,4.0896240234375,0.0018271948210895061,0.004111388232558966,0.00000958738019107841
1772702680108674000,4.099674072265625,0.0013616742799058557,0.00424241553992033,0.0004892227007076144
1772702680118723800,4.109723876953125,0.002531068166717887,0.006939931306988001,-0.0008138620178215206
1772702680128774000,4.11977392578125,0.002364886924624443,0.008346879854798317,-0.0022189458832144737
1772702680138824000,4.129823974609375,-0.001395496423356235,0.00845447089523077,0.0016112125013023615
1772702680148874000,4.1398740234375,-0.003922836389392614,0.007501858286559582,-0.0010695254895836115
1772702680158923800,4.149923828125,-0.003436010330915451,0.006630206014961004,-0.004656536970287561
1772702680168973800,4.159973876953125,-0.001698830397799611,0.004493818152695894,-0.0013102752855047584
1772702680179024000,4.17002392578125,-0.0008711199625395238,0.0022394522093236446,0.0019590212032198906
1772702680189074000,4.180073974609375,0.0002258360618725419,0.0009763148264028132,-0.000179230744834058
1772702680199123000,4.190123046875,0.001210673013702035,0.0046570696868002415,0.0006647250265814364
1772702680209173000,4.200173095703125,-0.0015419702976942062,0.00520701240748167,0.0002492718631401658
1772702680219223000,4.21022314453125,-0.0007550061563961208,0.008988435380160809,0.000023968450477696024
1772702680229273000,4.220273193359375,-0.0013451626291498542,0.008810269646346569,0.002386458683758974
1772702680239323000,4.230322998046875,-0.0012988236267119646,0.010655839927494526,0.001970472978428006
1772702680249373000,4.240373046875,-0.001645300886593759,0.010513360612094402,0.0016016251174733043
1772702680259423000,4.250423095703125,-0.003165433183312416,0.008799084462225437,-0.00006418218254111707
1772702680269473000,4.26047314453125,-0.0027832696214318275,0.008888565935194492,0.0019028285751119256
1772702680279522800,4.270522705078125,-0.0030897995457053185,0.006105829495936632,0.000862864195369184
1772702680289572900,4.28057275390625,-0.006686931010335684,0.005103415343910456,0.0010487528052181005
1772702680299623000,4.290622802734375,-0.0037710361648350954,0.0062248725444078445,-0.000963797967415303
1772702680309672000,4.300671875,-0.005155347287654877,0.006833404768258333,-0.001437041675671935
1772702680319722000,4.310721923828125,-0.003852795111015439,0.009189503267407417,0.0019318570848554373
1772702680329772000,4.32077197265625,-0.004310326185077429,0.008416654542088509,0.003920971881598234
1772702680339822000,4.330822021484375,-0.005219529382884502,0.007678159512579441,0.0033241575583815575
1772702680349871900,4.340871826171875,-0.0022298647090792656,0.010734936222434044,0.0033806166611611843
1772702680359922000,4.350921875,-0.0029675604309886694,0.014654044061899185,0.001979261403903365
1772702680369972000,4.360971923828125,-0.004786499310284853,0.01025716494768858,0.0027233485598117113
1772702680380022000,4.37102197265625,-0.001686579897068441,0.009836385026574135,0.0009957558941096067
1772702680390071800,4.38107177734375,-0.0021086910273879766,0.01543248537927866,0.0029710223898291588
1772702680400121900,4.391121826171875,-0.004777977243065834,0.015188273973762989,0.00032144354190677404
1772702680410172000,4.401171875,-0.0022085595410317183,0.009127452038228512,-0.0005597964627668262
1772702680420221200,4.41122119140625,-0.004433630499988794,0.007948470301926136,0.000026897927455138415
1772702680430271000,4.42127099609375,-0.005441104527562857,0.011257980950176716,-0.0007275756215676665
1772702680440321000,4.431321044921875,-0.00236195744946599,0.013107812032103539,0.00021997711155563593
1772702680450371000,4.44137109375,-0.000559263804461807,0.00837031565606594,0.0014085458824411035
1772702680460421000,4.451421142578125,-0.004062652122229338,0.003093261504545808,-0.0029060414526611567
1772702680470471000,4.461470947265625,-0.003094326937571168,0.0029768813401460648,-0.005765743553638458
1772702680480521000,4.47152099609375,-0.0031995216850191355,0.008534632623195648,-0.0027976506389677525
1772702680490571000,4.481571044921875,-0.002189651131629944,0.007424094248563051,-0.003304982790723443
1772702680500621000,4.49162109375,-0.0007808388327248394,0.00574869941920042,-0.0033806166611611843
1772702680510670800,4.5016708984375,-0.0017113472567871213,0.006843258626759052,-0.0034133736044168472
1772702680520721000,4.511720947265625,0.000022636868379777297,0.009185242466628551,-0.004776645917445421
1772702680530770200,4.521770263671875,-0.0007177218794822693,0.019628828391432762,-0.00418489146977663
1772702680540820000,4.531820068359375,-0.002281530061736703,0.02787024714052677,-0.003924966789782047
1772702680550870000,4.5418701171875,-0.0029558425303548574,0.018864767625927925,-0.004787298385053873
1772702680560920000,4.551920166015625,-0.004261590540409088,0.012439092621207237,-0.0032402679789811373
1772702680570970000,4.56197021484375,-0.005218996666371822,0.008547947742044926,-0.007252852898091078
1772702680581020000,4.57202001953125,-0.006995059084147215,0.005416869651526213,-0.008185225538909435
1772702680591070000,4.582070068359375,-0.0024144218768924475,0.005481318105012178,-0.00526746641844511
1772702680601120000,4.5921201171875,-0.0043803672306239605,0.007275489624589682,-0.007772968150675297
1772702680611170000,4.602170166015625,-0.004328702110797167,0.00884808599948883,-0.005689577199518681
1772702680621219800,4.6122197265625,0.0003563309437595308,0.013291570357978344,-0.0023302659392356873
1772702680631270000,4.622269775390625,0.002168079372495413,0.01468520238995552,-0.0046631949953734875
1772702680641320000,4.63231982421875,0.003457315731793642,0.014384797774255276,-0.005178516730666161
1772702680651369200,4.642369140625,0.0032860743813216686,0.013113139197230339,-0.004569984506815672
1772702680661419000,4.6524189453125,0.003878627670928836,0.010900851339101791,-0.004643221385776997
1772702680671469000,4.662468994140625,0.0038077877834439278,0.0034999263007193804,-0.005936452187597752
1772702680681519000,4.67251904296875,0.004367318004369736,0.001970206620171666,-0.0018556906143203378
1772702680691569200,4.682569091796875,0.00010519486386328936,0.007951666601002216,-0.00387383415363729
1772702680701619000,4.692618896484375,0.0011736550368368626,0.0057313889265060425,-0.006878145970404148
1772702680711669000,4.7026689453125,0.0015970977256074548,-0.0009076052810996771,-0.003355050226673484
1772702680721719000,4.712718994140625,0.003442934714257717,-0.0017331852577626705,-0.007848601788282394
1772702680731769000,4.72276904296875,0.004354534670710564,-0.002296177437528968,-0.007309578359127045
1772702680741819000,4.73281884765625,0.0012301141396164894,0.0012777847005054355,-0.005411809775978327
1772702680751869000,4.742868896484375,0.0018706043483689427,0.00999297946691513,-0.0065284729935228825
1772702680761918000,4.75291796875,-0.0002426139690214768,0.012354936450719833,-0.004264785908162594
1772702680771968000,4.762968017578125,0.00467651104554534,0.011060906574130058,-0.0027441212441772223
1772702680782018000,4.77301806640625,0.002040780382230878,0.0076027922332286835,-0.004849350079894066
1772702680792068000,4.783068115234375,-0.0000010652644277797663,0.011511247605085373,-0.003263703780248761
1772702680802118100,4.7931181640625,0.00009134642459684983,0.007221161387860775,-0.0030663637444376945
1772702680812168000,4.80316796875,-0.0014170679496601224,0.003686347510665655,-0.004393683280795813
1772702680822218000,4.813218017578125,0.000368847802747041,0.006638195365667343,-0.0032376048620790243
1772702680832268000,4.82326806640625,-0.0026080335956066847,0.00817910023033619,-0.0030160299502313137
1772702680842318000,4.833318115234375,-0.0027268105186522007,0.008418251760303974,-0.0030810111202299595
1772702680852368000,4.843367919921875,0.0013198626693338156,0.0035635759122669697,-0.002454102970659733
1772702680862418000,4.85341796875,-0.003934554290026426,0.003038134193047881,-0.0005784385721199214
1772702680872467000,4.863467041015625,-0.00036938043194822967,0.007066431455314159,-0.001002413802780211
1772702680882517000,4.87351708984375,0.000480434246128425,0.008195078931748867,-0.0017925737192854285
1772702680892566300,4.883566162109375,-0.002284193178638816,0.009867011569440365,-0.0015504923649132252
1772702680902616300,4.8936162109375,-0.002121207769960165,0.013066267594695091,-0.0006538060260936618
1772702680912666400,4.903666259765625,-0.0025622271932661533,0.011957859620451927,-0.0026072347536683083
1772702680922716400,4.91371630859375,-0.0008908273885026574,0.009862484410405159,-0.003887948812916875
1772702680932766200,4.92376611328125,-0.0007171892793849111,0.00566986994817853,-0.0006567355012521148
1772702680942816300,4.933816162109375,-0.00304638990201056,0.004541222471743822,0.001208009896799922
1772702680952866300,4.9438662109375,-0.0018106831703335047,0.005372661165893078,0.001856223214417696
1772702680962916400,4.953916259765625,-0.005141764879226685,0.011155715212225914,0.00031664984999224544
1772702680972966100,4.963966064453125,-0.006943659856915474,0.009706422686576843,-0.0008247809601016343
1772702680983015400,4.974015380859375,-0.005244562868028879,0.012595686130225658,0.0018050905782729387
1772702680993065500,4.9840654296875,-0.003988349810242653,0.01275467686355114,-0.0012737899087369442
1772702681003115300,4.994115234375,-0.004770254250615835,0.015065768733620644,0.0007121292874217033
1772702681013165300,5.004165283203125,-0.0033888723701238632,0.011667841114103794,-0.0008058725506998599
1772702681023215400,5.01421533203125,-0.004821653012186289,0.012073440477252007,0.0016402408946305513
1772702681033265400,5.024265380859375,-0.0028490496333688498,0.011107778176665306,0.001549959764815867
1772702681043315200,5.034315185546875,-0.004370513837784529,0.014763765968382359,0.0006852313526906073
1772702681053365200,5.044365234375,-0.003995540551841259,0.013798902742564678,0.0010753844399005175
1772702681063415300,5.054415283203125,-0.006953780073672533,0.01737872324883938,0.0023337281309068203
1772702681073465300,5.06446533203125,-0.00669438811019063,0.012084625661373138,0.001017327536828816
1772702681083515100,5.07451513671875,-0.0041033984161913395,0.011393003165721893,0.0036999296862632036
1772702681093564200,5.084564208984375,-0.003703924361616373,0.014179201796650887,0.0004548678989522159
1772702681103614200,5.0946142578125,-0.0037681066896766424,0.01107475534081459,-0.0005816344055347145
1772702681113664500,5.10466455078125,-0.004936435259878635,0.012821522541344166,-0.0004830974212381989
1772702681123714300,5.11471435546875,-0.0065108961425721645,0.014930480159819126,-0.002454102970659733
1772702681133764400,5.124764404296875,-0.005373992491513491,0.01404817495495081,0.000532365869730711
1772702681143814400,5.134814453125,-0.0037920749746263027,0.0140758715569973,-0.002700977958738804
1772702681153864400,5.144864501953125,-0.006435795221477747,0.014844992198050022,-0.004519384354352951
1772702681163914200,5.154914306640625,-0.005818208213895559,0.016636766493320465,-0.0025337315164506435
1772702681173964300,5.16496435546875,-0.0073106433264911175,0.017005881294608116,-0.0038312235847115517
1772702681184014300,5.175014404296875,-0.0033489251509308815,0.012324310839176178,-0.004796619527041912
1772702681194064400,5.185064453125,-0.0038277613930404186,0.014147244393825531,-0.000523843802511692
1772702681204114200,5.1951142578125,-0.0065069012343883514,0.01528787612915039,-0.001751827308908105
1772702681214163200,5.2051630859375,-0.004860535264015198,0.017550231888890266,-0.001722798915579915
1772702681224213200,5.215213134765625,-0.004052532371133566,0.02515648491680622,-0.002689792774617672
1772702681234263300,5.22526318359375,-0.006600644905120134,0.02732536382973194,-0.0036946034524589777
1772702681244313300,5.235313232421875,-0.008115717209875584,0.023898141458630562,-0.006689061876386404
1772702681254363400,5.24536328125,-0.006581736262887716,0.0221449825912714,-0.0057372478768229485
1772702681264413400,5.255413330078125,-0.010263023898005486,0.02448217384517193,-0.009011338464915752
1772702681274463200,5.265463134765625,-0.00794341042637825,0.019473299384117126,-0.006262423470616341
1772702681284513300,5.27551318359375,-0.013177321292459965,0.013545902445912361,-0.0067686899565160275
1772702681294563300,5.285563232421875,-0.00917538907378912,0.008505870588123798,-0.006646184716373682
1772702681304613400,5.29561328125,-0.008293616585433483,0.012462262064218521,-0.005272259935736656
1772702681314663200,5.3056630859375,-0.00698014535009861,0.018143849447369576,-0.00518837058916688
1772702681324713200,5.315713134765625,-0.0030487868934869766,0.01836196333169937,-0.0010636665392667055
1772702681334762200,5.32576220703125,-0.005094361025840044,0.02002643793821335,0.00034408041392453015
1772702681344812300,5.335812255859375,-0.0022053637076169252,0.025053421035408974,-0.0021044297609478235
1772702681354862300,5.3458623046875,0.0004617921367753297,0.027044400572776794,-0.0001001348573481664
1772702681364911400,5.355911376953125,-0.0017475662752985954,0.01918621174991131,-0.0032653016969561577
1772702681374961400,5.36596142578125,-0.0008665926288813353,0.010967696085572243,-0.0014831144362688065
1772702681385011200,5.37601123046875,-0.004194212146103382,0.008017978630959988,-0.002694852650165558
1772702681395061200,5.386061279296875,-0.0012277172645553946,0.010559167712926865,-0.006119944155216217
1772702681405111300,5.396111328125,-0.00436012726277113,0.00998951680958271,-0.005029646214097738
1772702681415161300,5.406161376953125,-0.004166249185800552,0.007252852898091078,-0.005021922755986452
1772702681425211100,5.416211181640625,-0.003294063964858651,0.0049313753843307495,-0.004471180960536003
1772702681435261200,5.42626123046875,-0.003020290983840823,0.0016466324450448155,-0.005350024439394474
1772702681445311200,5.436311279296875,-0.0016929714474827051,0.008249673992395401,-0.0010863033821806312
1772702681455361300,5.446361328125,-0.00021917815320193768,0.01209820806980133,-0.0034016557037830353
1772702681465411000,5.4564111328125,-0.003382214577868581,0.01055996585637331,-0.0037257622461766005
1772702681475460400,5.46646044921875,-0.0010892328573390841,0.01299489475786686,-0.0012668657582253218
1772702681485510400,5.476510498046875,0.0023638217244297266,0.01230460312217474,0.0012546151410788298
1772702681495560200,5.486560302734375,-0.001976331928744912,0.013917413540184498,-0.004804076161235571
1772702681505610200,5.4966103515625,-0.0033662356436252594,0.01558029092848301,-0.003992344718426466
1772702681515660300,5.506660400390625,-0.004441886208951473,0.011394334957003593,-0.003878894029185176
1772702681525710300,5.51671044921875,-0.0038120488170534372,0.002569684060290456,-0.0033571808598935604
1772702681535760100,5.526760009765625,-0.002162486780434847,-0.004204066004604101,0.0015824503498151898
1772702681545810200,5.53681005859375,-0.0030309436842799187,-0.007429154124110937,-0.001445830101147294
1772702681555860200,5.546860107421875,-0.002463423879817128,-0.004095941781997681,-0.00011052118497900665
1772702681565910300,5.55691015625,0.0002545981842558831,0.0038772961124777794,-0.0013795174891129136
1772702681575960000,5.5669599609375,-0.001228782464750111,0.006375074852257967,0.00018855179951060563
1772702681586010000,5.577010009765625,0.001255680457688868,0.012883041985332966,-0.00012383698776829988
1772702681596059400,5.587059326171875,-0.0027236149180680513,0.016518255695700645,-0.004803809802979231
1772702681606109400,5.597109375,-0.001791242160834372,0.010943461209535599,-0.0025510420091450214
1772702681616159200,5.6071591796875,-0.0028032432310283184,0.0022628880105912685,-0.00187992537394166
1772702681626209300,5.617209228515625,-0.002621882129460573,-0.0051713259890675545,0.001014664419926703
1772702681636259300,5.62725927734375,-0.004466920159757137,-0.000517718493938446,-0.0015757924411445856
1772702681646309400,5.637309326171875,-0.0036160401068627834,0.0030953921377658844,0.0013827132061123848
1772702681656359200,5.647359130859375,-0.0014018879737704992,0.002261023735627532,0.0031707596499472857
1772702681666409200,5.6574091796875,-0.0013393036788329482,0.003263437654823065,0.002814162289723754
1772702681676459300,5.667459228515625,-0.0010223875287920237,0.01398638915270567,0.005738845560699701
1772702681686509300,5.67750927734375,-0.0018410432385280728,0.014584269374608994,0.001731587341055274
1772702681696559000,5.68755908203125,-0.0020660804584622383,0.014689996838569641,0.003028546692803502
1772702681706608400,5.6976083984375,-0.005344165489077568,0.010763431899249554,0.004322576802223921
1772702681716659200,5.7076591796875,-0.004624579101800919,0.007183344569057226,0.004912200383841991
1772702681726709200,5.717709228515625,-0.004811799619346857,0.01034771278500557,0.006433397997170687
1772702681736759300,5.72775927734375,-0.006903446279466152,0.009327189065515995,0.005287173669785261
1772702681746809300,5.737809326171875,-0.005843774415552616,0.011872105300426483,0.0052142031490802765
1772702681756859400,5.747859375,-0.0049433596432209015,0.009919475764036179,0.005945240613073111
1772702681766909400,5.757909423828125,-0.005993976723402739,0.0080310283228755,0.006827812176197767
1772702681776959200,5.767959228515625,-0.004319114610552788,0.010512827895581722,0.004718055948615074
1772702681787009300,5.77800927734375,-0.005022189114242792,0.011098723858594894,0.005790244787931442
1772702681797058300,5.788058349609375,-0.003343598684296012,0.01555206160992384,0.000016245283404714428
1772702681807108000,5.798108154296875,-0.004732969682663679,0.017592575401067734,0.002906307578086853
1772702681817158100,5.808158203125,-0.004701278172433376,0.016405072063207626,0.0012128035305067897
1772702681827208200,5.818208251953125,-0.0057681407779455185,0.01834198832511902,0.00014887070574332029
1772702681837258200,5.82825830078125,-0.007144462317228317,0.02161048725247383,-0.001877262257039547
1772702681847308000,5.83830810546875,-0.006981476675719023,0.02076786197721958,-0.0007912251749075949
1772702681857358300,5.8483583984375,-0.005889580585062504,0.017676997929811478,0.0003424825263209641
1772702681867408400,5.858408447265625,-0.009794839657843113,0.01203748770058155,-0.003495931625366211
1772702681877458400,5.86845849609375,-0.0065100970678031445,0.015376559458673,-0.001383512164466083
1772702681887509000,5.878509033203125,-0.00675217853859067,0.01655580662190914,-0.0027265443932265043
1772702681897559000,5.88855908203125,-0.008979380130767822,0.018875420093536377,-0.001820803270675242
1772702681907609300,5.898609375,-0.006048837676644325,0.015749402344226837,-0.0033135050907731056
1772702681917658000,5.908658203125,-0.0029196233954280615,0.013518472202122211,-0.004709533881396055
1772702681927708200,5.918708251953125,-0.006426207721233368,0.019477294757962227,-0.003239735495299101
1772702681937758200,5.92875830078125,-0.005408613942563534,0.02401425689458847,-0.0020817930344492197
1772702681947808000,5.93880810546875,-0.008067247457802296,0.028677716851234436,-0.006869890261441469
1772702681957858000,5.948858154296875,-0.006478405557572842,0.021350029855966568,-0.008656871505081654
1772702681967908000,5.958908203125,-0.008526909165084362,0.018160894513130188,-0.009553291834890842
1772702681977958100,5.968958251953125,-0.009524528868496418,0.02213965728878975,-0.005471996963024139
1772702681988008000,5.979008056640625,-0.008785502053797245,0.02111300826072693,-0.006208361126482487
1772702681998058000,5.98905810546875,-0.008127967827022076,0.02286510169506073,-0.00908723846077919
1772702682008108000,5.99910791015625,-0.0049100699834525585,0.020555341616272926,-0.007279218174517155
1772702682018158000,6.009157958984375,-0.006598247680813074,0.023365244269371033,-0.007246993947774172
1772702682028207000,6.01920703125,-0.005407548509538174,0.022035794332623482,-0.00993199273943901
1772702682038257200,6.029257080078125,-0.0044133905321359634,0.023802002891898155,-0.006853645201772451
1772702682048307200,6.03930712890625,-0.001871136948466301,0.02617487870156765,-0.008772718720138073
1772702682058357000,6.04935693359375,-0.0015158712631091475,0.02357909455895424,-0.005941512528806925
1772702682068407000,6.059406982421875,-0.002040514023974538,0.026729881763458252,-0.008439291268587112
1772702682078457000,6.06945703125,-0.0035952674224972725,0.023192403838038445,-0.006560430862009525
1772702682088507100,6.079507080078125,-0.0031707596499472857,0.016458602622151375,-0.008237956091761589
1772702682098557000,6.089556884765625,-0.0070280819199979305,0.018998192623257637,-0.009212672710418701
1772702682108607000,6.09960693359375,-0.003216566052287817,0.016957944259047508,-0.013983726501464844
1772702682118657000,6.109656982421875,-0.006401173770427704,0.011766644194722176,-0.01185319758951664
1772702682128707000,6.11970703125,-0.004052266012877226,0.008047806099057198,-0.01251978613436222
1772702682138756900,6.1297568359375,-0.003980626817792654,0.009586314670741558,-0.010488593950867653
1772702682148806100,6.13980615234375,-0.001853560097515583,0.0202189851552248,-0.01016741618514061
1772702682158856200,6.149856201171875,-0.0009653958841226995,0.024755945429205894,-0.008243815042078495
1772702682168906200,6.15990625,-0.002118544653058052,0.024151142686605453,-0.010761301033198833
1772702682178956000,6.1699560546875,-0.0028338697738945484,0.023791881278157234,-0.009727994911372662
1772702682189006000,6.180006103515625,-0.00003408846168895252,0.029338980093598366,-0.013462278991937637
1772702682199056100,6.19005615234375,-0.0027867318131029606,0.02262941189110279,-0.013852432370185852
1772702682209106200,6.200106201171875,-0.0022948458790779114,0.01398772094398737,-0.013338175602257252
1772702682219156000,6.210156005859375,-0.001969940261915326,0.010236658155918121,-0.013027917593717575
1772702682229206000,6.2202060546875,-0.00392869533970952,0.016036489978432655,-0.011240137740969658
1772702682239256000,6.230256103515625,-0.004078631289303303,0.01733158528804779,-0.01218555960804224
1772702682249306000,6.24030615234375,-0.004040548112243414,0.014944860711693764,-0.009523198008537292
1772702682259356000,6.25035595703125,-0.005014998838305473,0.01395842619240284,-0.009067797102034092
1772702682269405200,6.2604052734375,-0.006743656471371651,0.022474681958556175,-0.014347780495882034
1772702682279455200,6.270455322265625,-0.004225371405482292,0.024752750992774963,-0.012563995085656643
1772702682289505000,6.280505126953125,-0.0027382622938603163,0.014963236637413502,-0.009037436917424202
1772702682299555000,6.29055517578125,-0.005689577199518681,0.010149040259420872,-0.009604956954717636
1772702682309605000,6.300605224609375,-0.006685333326458931,0.01315255369991064,-0.006283728405833244
1772702682319655200,6.3106552734375,-0.002168079372495413,0.014742993749678135,-0.011267834343016148
1772702682329705000,6.320705078125,-0.005702094174921513,0.012080631218850613,-0.005804892163723707
1772702682339755000,6.330755126953125,-0.006258694920688868,0.009866478852927685,-0.006016347091645002
1772702682349805000,6.34080517578125,-0.00561101408675313,0.009559150785207748,-0.005058674607425928
1772702682359855000,6.350855224609375,-0.003439738880842924,0.009346364066004753,-0.006404369603842497
1772702682369905000,6.36090478515625,-0.00785632524639368,0.017283115535974503,-0.0041065942496061325
1772702682379955000,6.370954833984375,-0.005342300981283188,0.01762932725250721,-0.004778776317834854
1772702682390005000,6.3810048828125,-0.008725048042833805,0.016280703246593475,-0.0006295712664723396
1772702682400054300,6.39105419921875,-0.007097324356436729,0.014905446209013462,-0.002526541007682681
1772702682410104000,6.40110400390625,-0.00643765926361084,0.01315308641642332,-0.004822984803467989
1772702682420154000,6.411154052734375,-0.006164152640849352,0.014196778647601604,-0.00547386147081852
1772702682430204200,6.4212041015625,-0.007351922336965799,0.014790929853916168,-0.0026024410035461187
1772702682440254200,6.431254150390625,-0.004793690051883459,0.016334231942892075,0.0019028285751119256
1772702682450304000,6.441303955078125,-0.005550294183194637,0.017845043912529945,0.00020879182557109743
1772702682460354000,6.45135400390625,-0.006856308318674564,0.008585232309997082,0.003909520339220762
1772702682470404000,6.461404052734375,-0.0057526943273842335,0.000791491474956274,0.004141215234994888
1772702682480454100,6.4714541015625,-0.00427277572453022,0.011987953446805477,0.00006418218254111707
1772702682490504000,6.48150390625,-0.005533782299607992,0.02522306516766548,-0.0015478292480111122
1772702682500554000,6.491553955078125,-0.005340436939150095,0.015786420553922653,-0.003371029393747449
1772702682510603300,6.501603271484375,-0.0031188279390335083,0.007322094868868589,-0.001264468883164227
1772702682520653000,6.511653076171875,-0.004403536673635244,0.009771936573088169,-0.0019017633749172091
1772702682530703000,6.521703125,-0.0016847157385200262,0.011465175077319145,-0.004347876645624638
1772702682540753200,6.531753173828125,-0.0025044367648661137,0.016352608799934387,-0.005250954534858465
1772702682550803200,6.54180322265625,-0.0008740494376979768,0.008153533563017845,-0.0022040321491658688
1772702682560853000,6.55185302734375,-0.0016831178218126297,0.005046157632023096,0.00041492050513625145
1772702682570903000,6.561903076171875,-0.0025300029665231705,0.005649363622069359,0.0012490225490182638
1772702682580953000,6.571953125,0.0006828344776295125,0.007325024344027042,0.0014857775531709194
1772702682591003100,6.582003173828125,-0.001969141187146306,0.008392686024308205,-0.003139067906886339
1772702682601053000,6.592052978515625,-0.004525509662926197,0.006929545197635889,-0.0026530411560088396
1772702682611103000,6.60210302734375,-0.005146825220435858,0.005264803301542997,0.0011089402250945568
1772702682621153000,6.612153076171875,-0.004141747951507568,0.001249555149115622,0.000734766130335629
1772702682631202300,6.622202392578125,-0.004145210143178701,0.003644536016508937,-0.0018319884547963738
1772702682641252000,6.632252197265625,-0.0028628981672227383,0.01685701124370098,-0.005203550215810537
1772702682651302100,6.64230224609375,-0.0022125542163848877,0.017549965530633926,-0.0008506136364303529
1772702682661352200,6.652352294921875,-0.002494050422683358,0.011243333108723164,-0.002276470186188817
1772702682671402200,6.66240234375,-0.0030029804911464453,0.009905894286930561,0.00007323692989302799
1772702682681452000,6.6724521484375,-0.0019765980541706085,0.007729558739811182,-0.0031364047899842262
1772702682691502000,6.682502197265625,-0.004222974646836519,0.003447728231549263,-0.004966529086232185
1772702682701552000,6.69255224609375,-0.00583631731569767,0.005048820748925209,-0.000565389113035053
1772702682711602200,6.702602294921875,-0.005499427672475576,0.009501625783741474,-0.006487726699560881
1772702682721652000,6.71265185546875,-0.00044661210267804563,0.011728827841579914,-0.003087935270741582
1772702682731702000,6.722701904296875,-0.0023696806747466326,0.016271913424134254,-0.0008644621120765805
1772702682741752000,6.732751953125,-0.001204814063385129,0.007784153334796429,-0.0018785938154906034
1772702682751801000,6.742801025390625,0.0003414172388147563,0.004855209030210972,-0.0036639769095927477
1772702682761851100,6.75285107421875,0.0025446503423154354,0.011512046679854393,0.0020240023732185364
1772702682771901200,6.762901123046875,0.001600826159119606,0.014059626497328281,-0.0012500877492129803
1772702682781951200,6.772951171875,0.002980876248329878,0.013227388262748718,0.0017986990278586745
1772702682792001000,6.7830009765625,0.0027515781112015247,0.012702745385468006,-0.004185690078884363
1772702682802051000,6.793051025390625,0.002264219569042325,0.01619681343436241,-0.007997739128768444
1772702682812101000,6.80310107421875,-0.0012740562669932842,-0.004531634971499443,-0.002688993699848652
1772702682822151200,6.813151123046875,0.00008069378236541525,-0.009454221464693546,0.002222940558567643
1772702682832201000,6.823200927734375,0.000993891735561192,0.006640858482569456,-0.0025121597573161125
1772702682842251000,6.8332509765625,0.0005494101205840707,0.018931346014142036,-0.005571599118411541
1772702682852301000,6.843301025390625,0.004975051153451204,0.06154005974531174,0.0792791098356247
1772702682862351000,6.85335107421875,-0.0002372876479057595,0.01071256585419178,0.08808138966560364
1772702682872400100,6.863400146484375,-0.002758235903456807,-0.061345383524894714,-0.0013187973527237773
1772702682882450200,6.8734501953125,-0.00018695391190703958,-0.012053467333316803,-0.03910132870078087
1772702682892499200,6.883499267578125,-0.0017574200173839927,0.03153315931558609,-0.02268374152481556
1772702682902549200,6.89354931640625,-0.0007890945998951793,-0.007098922040313482,-0.03700036182999611
1772702682912599000,6.90359912109375,-0.002320145955309272,-0.01667405106127262,-0.05233351141214371
1772702682922649000,6.913649169921875,0.0022120214998722076,0.009399360977113247,-0.042141061276197433
1772702682932699100,6.92369921875,0.002954510971903801,0.02070154994726181,-0.00629012007266283
1772702682942749200,6.933749267578125,-0.003010703483596444,0.005637379363179207,0.01733211800456047
