time,seconds_elapsed,z,y,x
1772702676076148700,0.067148681640625,0.0004662925493903458,-0.0020638923160731792,-0.01018019113689661
1772702676086198800,0.07719873046875,0.002663233783096075,-0.0019046482630074024,-0.011925938539206982
1772702676096248800,0.087248779296875,0.0015476354165002704,-0.0009405841119587421,-0.008249711245298386
1772702676106299000,0.097298828125,0.0028079827316105366,0.002816152758896351,-0.005927104037255049
1772702676116348700,0.1073486328125,0.003735828213393688,0.004873444326221943,0.0003401127178221941
1772702676126398700,0.117398681640625,0.003720381762832403,0.00530620850622654,-0.0012644417583942413
1772702676136448000,0.127447998046875,0.0030873483046889305,0.005569062195718288,-0.0019323625601828098
1772702676146498000,0.137498046875,0.0023933560587465763,-0.0022316714748740196,-0.004759593401104212
1772702676156547800,0.1475478515625,0.002599750878289342,-0.002968301996588707,-0.001310266787186265
1772702676166598000,0.157597900390625,0.000004676636308431625,-0.0016958690248429775,-0.006927356123924255
1772702676176648000,0.16764794921875,-0.002044359454885125,-0.0014202315360307693,-0.002663369057700038
1772702676186698000,0.177697998046875,-0.0025592721067368984,-0.002954137045890093,-0.0017487790901213884
1772702676196747800,0.187747802734375,0.0004863189533352852,0.0030401060357689857,-0.0009282591636292636
1772702676206797800,0.1977978515625,-0.001634039101190865,0.012255699373781681,-0.002464128425344825
1772702676216848000,0.207847900390625,-0.0012923554750159383,0.0014153029769659042,-0.0021647890098392963
1772702676226898000,0.21789794921875,0.0006688139401376247,0.003550246823579073,0.0024513909593224525
1772702676236947700,0.22794775390625,-0.0012566515943035483,0.0030556977726519108,-0.0007342824246734381
1772702676246997000,0.2379970703125,-0.0022718552500009537,0.003962721209973097,-0.0012132474221289158
1772702676257047000,0.248047119140625,-0.0019030076218768954,0.005549432244151831,0.00042859144741669297
1772702676267096800,0.258096923828125,-0.002208205871284008,0.00036825286224484444,0.001490660011768341
1772702676277147000,0.26814697265625,-0.0010665085865184665,0.005520137492567301,0.005700851324945688
1772702676287197000,0.278197021484375,0.0005297360476106405,0.012871745973825455,0.003841589903458953
1772702676297247000,0.2882470703125,-0.0033544846810400486,0.014798542484641075,0.0054839616641402245
1772702676307296800,0.298296875,-0.003935600630939007,0.010679066181182861,0.004603263922035694
1772702676317346800,0.308346923828125,-0.0037390589714050293,0.006561287213116884,0.0039856769144535065
1772702676327396900,0.31839697265625,-0.0045020547695457935,0.005205472465604544,0.003922826144844294
1772702676337446000,0.32844580078125,-0.0047907414846122265,0.005435569677501917,0.0027009679470211267
1772702676347495700,0.33849560546875,-0.0018485959153622389,0.0032542962580919266,0.0024345722049474716
1772702676357545700,0.348545654296875,-0.0026094610802829266,0.0015432145446538925,0.002625520806759596
1772702676367596000,0.358595947265625,-0.001599932904355228,0.001450078096240759,-0.00036197254667058587
1772702676377646000,0.36864599609375,-0.0005519790574908257,0.004125223960727453,0.0010106207337230444
1772702676387695900,0.37869580078125,-0.0007960614748299122,0.008230727165937424,-0.0008881442481651902
1772702676397746000,0.388745849609375,-0.0018916858825832605,0.010935435071587563,-0.00358246429823339
1772702676407796000,0.3987958984375,-0.0010810121893882751,0.007240080274641514,0.0021312094759196043
1772702676417846000,0.408845947265625,-0.0008269466925412416,0.005657630041241646,0.002846800722181797
1772702676427895800,0.418895751953125,-0.0011741110356524587,-0.0012827455066144466,0.001971632707864046
1772702676437945900,0.42894580078125,-0.0028889207169413567,0.00199294276535511,0.0007548344437964261
1772702676447995000,0.438994873046875,-0.0027203932404518127,0.005338679999113083,-0.0001817750744521618
1772702676458044700,0.449044677734375,-0.0027912333607673645,0.004615099169313908,-0.003476105397567153
1772702676468094700,0.4590947265625,-0.001506250468082726,0.006054853089153767,-0.0010556969791650772
1772702676478144800,0.469144775390625,-0.0015701664378866553,0.006202125921845436,0.0016346282791346312
1772702676488194800,0.47919482421875,0.0007956068147905171,0.013553749769926071,-0.0006947556394152343
1772702676498244900,0.489244873046875,-0.0021391967311501503,0.01678895764052868,-0.001984258182346821
1772702676508295000,0.499294921875,-0.001011919928714633,0.010896209627389908,-0.0018879557028412819
1772702676518345000,0.509344970703125,-0.002898236969485879,0.004578392021358013,-0.005335151217877865
1772702676528395000,0.51939501953125,-0.003669420490041375,0.0025446824729442596,-0.005726536735892296
1772702676538444800,0.52944482421875,-0.0012374217621982098,-0.0022540674544870853,-0.005257554352283478
1772702676548494800,0.539494873046875,-0.0012195201124995947,-0.003042056690901518,-0.010014655068516731
1772702676558544000,0.5495439453125,0.0001038046320900321,-0.009031505323946476,-0.004737867973744869
1772702676568593700,0.55959375,0.0007620858959853649,-0.006572864484041929,-0.006987947039306164
1772702676578643700,0.569643798828125,0.004519273526966572,0.0021846741437911987,-0.005708031356334686
1772702676588693800,0.57969384765625,0.004938074853271246,0.01061982475221157,-0.004724873695522547
1772702676598743800,0.589743896484375,0.004775622393935919,0.010919429361820221,-0.005977092310786247
1772702676608793900,0.5997939453125,0.004977733362466097,0.010744847357273102,-0.005003024358302355
1772702676618844000,0.609843994140625,0.005723152309656143,0.0019178004004061222,-0.006069354247301817
1772702676628894000,0.61989404296875,0.00428738072514534,0.000242576003074646,-0.006682117469608784
1772702676638944000,0.629944091796875,0.0027209091931581497,-0.00519559858366847,-0.0034570295829325914
1772702676648994000,0.639994140625,0.0035054918844252825,-0.005545975640416145,-0.00551566481590271
1772702676659042800,0.650042724609375,0.0013113135937601328,-0.006263697519898415,-0.0022895110305398703
1772702676669092900,0.6600927734375,0.0029653036035597324,-0.004763671196997166,-0.00425140792503953
1772702676679143000,0.670142822265625,0.0036758347414433956,-0.0005769156850874424,-0.004154202528297901
1772702676689192700,0.680192626953125,0.0039013754576444626,-0.004098790697753429,-0.0027053009252995253
1772702676699242800,0.69024267578125,0.0013801608001813293,-0.004186142235994339,-0.004611325450241566
1772702676709292800,0.700292724609375,0.002163106808438897,-0.002516483422368765,-0.004240196198225021
1772702676719342800,0.7103427734375,0.0021995920687913895,0.0014452352188527584,-0.006005605682730675
1772702676729392600,0.720392578125,0.0033326989505439997,-0.0006050122901797295,-0.0030605148058384657
1772702676739443000,0.73044287109375,0.003106330055743456,0.0023047574795782566,-0.0008631406235508621
1772702676749493000,0.740492919921875,0.0016064324881881475,0.001980599481612444,-0.002050241455435753
1772702676759541800,0.750541748046875,0.0012634173035621643,-0.0011480823159217834,-0.0027866053860634565
1772702676769591800,0.760591796875,0.002576224971562624,-0.00466076610609889,-0.004683110397309065
1772702676779641900,0.770641845703125,0.0016622280236333609,-0.005343867000192404,-0.006279408931732178
1772702676789692000,0.78069189453125,-0.001269229338504374,-0.007179193198680878,-0.005753247067332268
1772702676799741700,0.79074169921875,0.0013614412164315581,-0.011059419251978397,-0.00228447956033051
1772702676809791700,0.800791748046875,0.002305189613252878,-0.006951420567929745,-0.0034090925473719835
1772702676819841800,0.810841796875,0.004751303233206272,-0.0028573432937264442,-0.006486374884843826
1772702676829891800,0.820891845703125,0.0019724243320524693,-0.0029092994518578053,-0.002215128391981125
1772702676839941600,0.830941650390625,0.0010304643074050546,0.0011046170257031918,-0.001668115146458149
1772702676849991700,0.84099169921875,0.002689734101295471,-0.005405611824244261,-0.0036611519753932953
1772702676860042000,0.8510419921875,-0.0003630475839599967,-0.005103609524667263,-0.002144215162843466
1772702676870091000,0.861091064453125,0.00009829644113779068,-0.0057296836748719215,0.000474960426799953
1772702676880140800,0.871140869140625,-0.0010090459836646914,-0.0030369614250957966,-0.00046753231436014175
1772702676890190600,0.881190673828125,-0.0002636954886838794,-0.0024389605969190598,0.0003030877560377121
1772702676900240600,0.89124072265625,-0.0028189984150230885,-0.005879764445126057,0.0006138786557130516
1772702676910290700,0.901290771484375,0.002700607758015394,-0.004745620768517256,0.004647798370569944
1772702676920340500,0.911340576171875,-0.0016741667641326785,-0.005937385372817516,0.00019339495338499546
1772702676930390500,0.921390625,-0.0005644458578899503,-0.0028890175744891167,0.0005637189606204629
1772702676940440600,0.931440673828125,0.0021999154705554247,-0.001986738760024309,0.0045145186595618725
1772702676950490600,0.94149072265625,-0.0007115708431228995,0.0030675362795591354,0.004963452462106943
1772702676960540400,0.95154052734375,-0.004873292520642281,0.0008568465709686279,0.005052934400737286
1772702676970590500,0.961590576171875,-0.0000011611264199018478,0.003725409507751465,0.0033086214680224657
1772702676980639700,0.9716396484375,-0.0029322360642254353,0.003630867227911949,0.004225015174597502
1772702676990689500,0.981689453125,-0.00022701837588101625,-0.002378969918936491,0.004194536712020636
1772702677000739600,0.991739501953125,-0.0007114473264664412,-0.004673815332353115,0.001594226574525237
1772702677010789600,1.00178955078125,0.00030155107378959656,-0.00575813464820385,0.0054855383932590485
1772702677020839700,1.011839599609375,0.0009737329673953354,-0.005349872168153524,0.0023499324452131987
1772702677030889500,1.021889404296875,0.00019171240273863077,-0.0038959274534136057,0.002844137605279684
1772702677040939500,1.031939453125,0.0017323510255664587,0.001603233627974987,0.0019660936668515205
1772702677050989600,1.041989501953125,-0.0010635898215696216,-0.00001454818993806839,0.002273901365697384
1772702677061039600,1.05203955078125,-0.0013517438201233745,0.004103763960301876,0.002135150833055377
1772702677071089400,1.06208935546875,-0.0011489365715533495,-0.0007556267082691193,0.0003990987897850573
1772702677081138700,1.072138671875,0.0020993209909647703,-0.00772591819986701,-0.0007750889635644853
1772702677091188700,1.082188720703125,0.0019322107546031475,-0.013481782749295235,-0.003168007591739297
1772702677101238500,1.092238525390625,-0.00009046017657965422,-0.006151431705802679,-0.0012721032835543156
1772702677111288600,1.10228857421875,0.0005726669332943857,-0.010121672414243221,-0.0014763677027076483
1772702677121338600,1.112338623046875,0.0012214130256325006,-0.014556102454662323,-0.001272635767236352
1772702677131388700,1.122388671875,0.0007142649847082794,-0.011406953446567059,-0.00008775503374636173
1772702677141438700,1.132438720703125,0.0010844443459063768,-0.002002799417823553,-0.0007213210337795317
1772702677151488500,1.142488525390625,0.00007278553675860167,0.006193599663674831,0.000030052935471758246
1772702677161538600,1.15253857421875,0.0008512275526300073,0.0069342246279120445,-0.002076507546007633
1772702677171588600,1.162588623046875,-0.00035465182736516,0.0029040630906820297,-0.00006369029870256782
1772702677181638700,1.172638671875,0.0002706584054976702,-0.0026486278511583805,-0.0020032706670463085
1772702677191687700,1.182687744140625,0.002686424646526575,-0.0015907189808785915,-0.0037183547392487526
1772702677201737700,1.19273779296875,-0.00036981888115406036,0.002979265060275793,-0.001341483206488192
1772702677211787800,1.202787841796875,0.0009270515292882919,0.00045236852020025253,-0.0012230605352669954
1772702677221837600,1.212837646484375,-0.0020253288093954325,-0.006982910446822643,0.0018030893988907337
1772702677231887600,1.2228876953125,0.001880340976640582,-0.006977183744311333,-0.0005307096871547401
1772702677241937700,1.232937744140625,0.002588475588709116,-0.0019398145377635956,-0.0015200739726424217
1772702677251987700,1.24298779296875,0.00303814304061234,-0.0030040922574698925,0.0007752412930130959
1772702677262037500,1.25303759765625,0.0028703638818114996,0.0009238035418093204,-0.0000415501999668777
1772702677272087600,1.263087646484375,0.005787006579339504,-0.008265690878033638,0.0024493292439728975
1772702677282137600,1.2731376953125,0.007381174713373184,0.0004668142646551132,0.0033289713319391012
1772702677292186600,1.2831865234375,0.0074358172714710236,0.010025368072092533,-0.0009583423961885273
1772702677302236700,1.293236572265625,0.005212876945734024,0.0029024770483374596,-0.0024523758329451084
1772702677312286700,1.30328662109375,0.00508605083450675,-0.0050902399234473705,-0.0037880530580878258
1772702677322336800,1.313336669921875,0.005888461135327816,-0.008360069245100021,-0.0043915254063904285
1772702677332386600,1.323386474609375,0.004282115958631039,-0.012946367263793945,-0.0022200210951268673
1772702677342436600,1.3334365234375,0.0034429538063704967,-0.013574074022471905,-0.002644529100507498
1772702677352486700,1.343486572265625,0.005031591281294823,-0.015947654843330383,-0.0017561293207108974
1772702677362536700,1.35353662109375,0.008961085230112076,-0.01298009417951107,-0.0023481498938053846
1772702677372586500,1.36358642578125,0.005232502240687609,-0.0008948193863034248,-0.00021555530838668346
1772702677382636500,1.373636474609375,0.003257235512137413,0.0025302721187472343,-0.002374313771724701
1772702677392686600,1.3836865234375,0.004082770086824894,0.004881021101027727,-0.001792912371456623
1772702677402735600,1.393735595703125,0.005425003357231617,-0.0005968348123133183,-0.0040305000729858875
1772702677412785400,1.403785400390625,0.0037674475461244583,-0.002060296479612589,-0.0016865174984559417
1772702677422835700,1.413835693359375,0.0023935227654874325,-0.005410286597907543,-0.005803764332085848
1772702677432885800,1.4238857421875,0.003388421144336462,-0.015039251185953617,-0.0027010187041014433
1772702677442935800,1.433935791015625,0.002954325871542096,-0.016141533851623535,-0.0019848947413265705
1772702677452985600,1.443985595703125,0.002181154675781727,-0.011049614287912846,-0.005065479781478643
1772702677463035600,1.45403564453125,0.0025705089792609215,-0.006735559552907944,-0.0029562562704086304
1772702677473085700,1.464085693359375,0.0024924781173467636,-0.00665326789021492,-0.00441140728071332
1772702677483135700,1.4741357421875,0.0029269843362271786,0.0013434775173664093,-0.005637202877551317
1772702677493185500,1.484185546875,0.004138639662414789,0.002858042251318693,-0.006753687746822834
1772702677503234600,1.494234619140625,0.0035282429307699203,-0.003507445566356182,-0.0037163521628826857
1772702677513284600,1.50428466796875,0.00006741983816027641,-0.0050603365525603294,-0.0033618679735809565
1772702677523334400,1.51433447265625,0.005656862165778875,0.006392321083694696,-0.005049513187259436
1772702677533384400,1.524384521484375,0.0036458324175328016,-0.007868831045925617,-0.003305101301521063
1772702677543434500,1.5344345703125,0.0020537946838885546,-0.007832079194486141,-0.0005652410909533501
1772702677553484800,1.54448486328125,0.0009612289723008871,-0.006870701909065247,-0.0014735759468749166
1772702677563534600,1.55453466796875,-0.0010369407245889306,0.0021289181895554066,-0.0042557804845273495
1772702677573584600,1.564584716796875,-0.0007208364550024271,0.004809288308024406,-0.00011056195944547653
1772702677583634700,1.574634765625,-0.0006926069036126137,-0.0033652842976152897,0.0004164776182733476
1772702677593684700,1.584684814453125,0.0031659116502851248,-0.005872942972928286,0.0003915117122232914
1772702677603733500,1.5947333984375,0.0017363267252221704,0.00038468651473522186,-0.001341407187283039
1772702677613783600,1.604783447265625,-0.0011188429780304432,-0.0019926652312278748,-0.0012837527319788933
1772702677623833600,1.61483349609375,-0.0009760975372046232,-0.0011756070889532566,-0.0008256889996118844
1772702677633883600,1.624883544921875,-0.0006809445330873132,0.0006211567670106888,0.0028739357367157936
1772702677643933400,1.634933349609375,-0.00211638817563653,0.00396981555968523,0.005433233920484781
1772702677653983500,1.6449833984375,-0.0031241453252732754,0.005783539731055498,0.003963311202824116
1772702677664033500,1.655033447265625,-0.004184349440038204,0.00032698968425393105,0.005806751549243927
1772702677674083600,1.66508349609375,-0.0028245756402611732,0.004338080994784832,0.004806481301784515
1772702677684133600,1.675133544921875,-0.0031822379678487778,0.0064941756427288055,0.005407290533185005
1772702677694183700,1.68518359375,-0.00011809996794909239,0.004353182855993509,0.001063860603608191
1772702677704233700,1.695233642578125,-0.00034153927117586136,0.003801108803600073,0.004255393054336309
1772702677714282500,1.705282470703125,-0.0006290195742622018,0.007445456925779581,0.004478095099329948
1772702677724332500,1.71533251953125,-0.0020945570431649685,0.0014000819064676762,0.00509115494787693
1772702677734382600,1.725382568359375,-0.00006943184416741133,0.00012633297592401505,0.0035167988389730453
1772702677744432600,1.7354326171875,0.0009316504001617432,-0.0010284138843417168,0.004819883499294519
1772702677754482400,1.745482421875,0.0005008980515412986,-0.002677313517779112,0.005743392743170261
1772702677764532500,1.755532470703125,-0.0004663619911298156,-0.002902350388467312,0.0014522417914122343
1772702677774582500,1.76558251953125,0.002576559316366911,0.0006470605731010437,0.003911808133125305
1772702677784632600,1.775632568359375,-0.001156127080321312,-0.0034057386219501495,0.0018342763651162386
1772702677794682600,1.7856826171875,0.0016642427071928978,-0.011373406276106834,0.0022271815687417984
1772702677804732700,1.795732666015625,0.0021571938414126635,-0.00668198149651289,0.00012275177869014442
1772702677814782700,1.80578271484375,0.001681142719462514,-0.00445671658962965,0.0007836896111257374
1772702677824831700,1.815831787109375,0.001631075283512473,0.000888247974216938,-0.0009974325075745583
1772702677834881500,1.825881591796875,0.0009813884971663356,0.008253408595919609,-0.0009817811660468578
1772702677844931600,1.835931640625,-0.00084980099927634,0.012306740507483482,0.002689120126888156
1772702677854981600,1.845981689453125,-0.0008307569660246372,0.007373792119324207,0.003914904780685902
1772702677865031700,1.85603173828125,-0.0037663595285266638,0.0022746380418539047,0.0023662769235670567
1772702677875081500,1.86608154296875,-0.001685481402091682,-0.0019977474585175514,0.002719866344705224
1772702677885131500,1.876131591796875,-0.0038508977741003036,-0.004991140216588974,-0.0013305351603776217
1772702677895181300,1.886181396484375,-0.0014881655806675553,-0.010774397291243076,0.0011664596386253834
1772702677905231400,1.8962314453125,0.0006692613242194057,-0.004261104390025139,0.0006391537608578801
1772702677915281400,1.906281494140625,0.0017296879086643457,0.0036746403202414513,0.0008270594989880919
1772702677925330700,1.91633056640625,0.004777675494551659,0.007317312061786652,0.0002395661867922172
1772702677935380500,1.92638037109375,0.003868124447762966,0.0002937791869044304,0.003643529023975134
1772702677945430500,1.936430419921875,0.007447146810591221,-0.002693489193916321,0.0026243373285979033
1772702677955480600,1.94648046875,0.006941288709640503,-0.0003796592354774475,-0.00008909706957638264
1772702677965530600,1.956530517578125,0.004473603796213865,-0.0011461167596280575,-0.004377585370093584
1772702677975580400,1.966580322265625,0.004844962619245052,-0.007599671836942434,-0.0022372594103217125
1772702677985630500,1.97663037109375,0.0034143123775720596,-0.00866946391761303,-0.002425544895231724
1772702677995680500,1.986680419921875,0.003937448374927044,-0.010087244212627411,-0.0028060246258974075
1772702678005730600,1.99673046875,-0.0000740711111575365,-0.012332554906606674,-0.0052252402529120445
1772702678015780400,2.0067802734375,0.0025640293024480343,-0.011115219444036484,-0.003847439307719469
1772702678025829600,2.01682958984375,0.002366156317293644,-0.013406602665781975,-0.0045755477622151375
1772702678035879700,2.026879638671875,0.0051149483770132065,-0.01586616225540638,-0.008281140588223934
1772702678045929500,2.036929443359375,0.0038036080077290535,-0.005659864284098148,-0.0038760052993893623
1772702678055979500,2.0469794921875,0.0034134499728679657,-0.004452439956367016,-0.0033493631053715944
1772702678066029600,2.057029541015625,0.0048148054629564285,-0.0095968684181571,-0.0032388418912887573
1772702678076079600,2.06707958984375,0.0048919254913926125,-0.0024618152529001236,-0.0023421021178364754
1772702678086129400,2.07712939453125,0.0022548632696270943,0.0013971049338579178,-0.005616458598524332
1772702678096179500,2.087179443359375,0.0027656385209411383,0.0042579881846904755,-0.005832828115671873
1772702678106229500,2.0972294921875,0.0004912989679723978,-0.0024806084111332893,-0.006492759566754103
1772702678116279600,2.107279541015625,-0.000943736988119781,-0.006072602234780788,-0.0031874484848231077
1772702678126329300,2.117329345703125,-0.0010673076612874866,-0.010124601423740387,-0.000204974552616477
1772702678136378600,2.127378662109375,-0.00002734328154474497,-0.010315550491213799,-0.00031949050026014447
1772702678146428700,2.1374287109375,-0.0018409559270367026,-0.013763811439275742,-0.0005165644106455147
1772702678156478500,2.147478515625,0.002516774460673332,-0.009916609153151512,0.0013287399196997285
1772702678166528500,2.157528564453125,0.0018643001094460487,-0.0023548295721411705,-0.0007099098875187337
1772702678176578600,2.16757861328125,-0.00008632894605398178,0.004257557913661003,0.0011188139906153083
1772702678186628600,2.177628662109375,-0.00011615629773586988,0.0023414138704538345,0.0016674251528456807
1772702678196678700,2.1876787109375,0.002345410641282797,0.0035800980404019356,0.00030028625042177737
1772702678206728400,2.197728515625,0.002677240641787648,0.0037966128438711166,0.0011559599079191685
1772702678216778500,2.207778564453125,0.001238921657204628,-0.0006950274109840393,0.0029230755753815174
1772702678226828500,2.21782861328125,0.0014122934080660343,-0.010277880355715752,0.0025622171815484762
1772702678236878600,2.227878662109375,0.0010477893520146608,-0.016726214438676834,0.002913043834269047
1772702678246927600,2.237927734375,0.0005836003110744059,-0.015001551248133183,0.002670163521543145
1772702678256977700,2.247977783203125,-0.002446886617690325,-0.009601653553545475,0.00410191947594285
1772702678267027700,2.25802783203125,0.0019292195793241262,-0.006932632997632027,0.0024813858326524496
1772702678277077500,2.268077392578125,-0.0007125805132091045,0.005281200632452965,0.004724407102912664
1772702678287127600,2.27812744140625,-0.0014830331783741713,0.0008020298555493355,0.0037571468856185675
1772702678297177600,2.288177490234375,-0.0030052829533815384,-0.004380646627396345,0.0038492842577397823
1772702678307227600,2.2982275390625,-0.0013072515139356256,-0.007803075015544891,0.005680739879608154
1772702678317277400,2.30827734375,-0.00433874037116766,-0.00678132101893425,0.0028524710796773434
1772702678327327500,2.318327392578125,-0.004265237599611282,-0.0033807307481765747,0.002262847265228629
1772702678337377500,2.32837744140625,-0.004557986743748188,-0.0026847263798117638,0.00322335003875196
1772702678347426300,2.33842626953125,-0.006414209958165884,-0.003417361993342638,0.00324838375672698
1772702678357476400,2.348476318359375,-0.004535960499197245,-0.00415084371343255,0.005653786472976208
1772702678367526700,2.358526611328125,0.0007623984129168093,-0.0014408109709620476,0.006425037980079651
1772702678377576700,2.36857666015625,-0.0028277933597564697,0.004952060058712959,0.006005585193634033
1772702678387626500,2.37862646484375,-0.0013726421166211367,0.007241046987473965,0.004797309171408415
1772702678397676500,2.388676513671875,-0.0023244614712893963,0.005145086906850338,0.0051460531540215015
1772702678407726600,2.3987265625,-0.003500513266772032,0.0015804460272192955,0.007186567410826683
1772702678417776600,2.408776611328125,-0.001951613463461399,0.006478584371507168,0.004202625248581171
1772702678427826700,2.41882666015625,-0.0022727905306965113,0.006465001963078976,0.007503613363951445
1772702678437876500,2.42887646484375,0.0016634361818432808,0.0007990561425685883,0.005817261524498463
1772702678447926500,2.438926513671875,-0.00339523795992136,0.00024218857288360596,0.006399162579327822
1772702678457975600,2.4489755859375,-0.0023376462049782276,-0.0006478480063378811,0.008981339633464813
1772702678468025300,2.459025390625,-0.004453527741134167,0.0064050015062093735,0.0014938616659492254
1772702678478075400,2.469075439453125,-0.00530264712870121,0.00814134068787098,0.0003414257080294192
1772702678488125400,2.47912548828125,-0.003655481617897749,0.004434486851096153,0.002510037738829851
1772702678498175700,2.48917578125,-0.004033682867884636,0.002559369895607233,0.00267450837418437
1772702678508225500,2.4992255859375,-0.001423252047970891,0.00008848914876580238,0.003382110269740224
1772702678518275600,2.509275634765625,-0.0035823348443955183,0.0013957945629954338,0.005289894994348288
1772702678528325600,2.51932568359375,-0.0018315729685127735,0.010438558645546436,0.00709418673068285
1772702678538375700,2.529375732421875,0.00012770970351994038,0.01390753872692585,0.006222403608262539
1772702678548425500,2.539425537109375,-0.0028989724814891815,0.009662194177508354,0.0076490589417517185
1772702678558475500,2.5494755859375,0.000796967011410743,0.0055465977638959885,0.00578444404527545
1772702678568524500,2.559524658203125,-0.003176202764734626,-0.00312598655000329,0.002045099623501301
1772702678578574300,2.56957421875,-0.003029114566743374,-0.009689368307590485,0.005271608941257
1772702678588624400,2.579624267578125,-0.0014008579310029745,-0.012376763857901096,0.005657501053065062
1772702678598674400,2.58967431640625,-0.001614122767932713,-0.0032295575365424156,0.0027188111562281847
1772702678608724500,2.599724365234375,-0.0007081154035404325,0.012822644785046577,0.002454891800880432
1772702678618774500,2.6097744140625,0.001126128830946982,0.015679338946938515,0.004281758330762386
1772702678628824600,2.619824462890625,0.002340530278161168,0.00622325437143445,0.00752495601773262
1772702678638874600,2.62987451171875,0.0045244088396430016,-0.00018907338380813599,0.0069840215146541595
1772702678648924700,2.639924560546875,0.004657034762203693,0.0007550166919827461,0.008515872061252594
1772702678658974500,2.649974365234375,0.005440776236355305,0.0054688178934156895,0.0069119976833462715
1772702678669023500,2.6600234375,0.005932661704719067,0.007238754536956549,0.0082600899040699
1772702678679073500,2.670073486328125,0.006036742590367794,-0.0004824814386665821,0.007541993632912636
1772702678689123600,2.68012353515625,0.004830863326787949,-0.004320895299315453,0.009258400648832321
1772702678699173400,2.69017333984375,0.003146345727145672,-0.00502944178879261,0.010090007446706295
1772702678709223400,2.700223388671875,0.003888302482664585,-0.01020609401166439,0.00471734581515193
1772702678719273500,2.7102734375,0.0032557956874370575,-0.011815227568149567,0.0024873516522347927
1772702678729323500,2.720323486328125,0.002317564096301794,-0.014170261099934578,0.003404544200748205
1772702678739373600,2.73037353515625,0.001457281643524766,-0.012460943311452866,0.005780116654932499
1772702678749423600,2.740423583984375,0.004764927551150322,-0.005333791486918926,0.002151027088984847
1772702678759473700,2.7504736328125,0.005887328181415796,-0.0029239053837955,0.0030732154846191406
1772702678769523700,2.760523681640625,0.005404230672866106,0.001197603065520525,0.0025733401998877525
1772702678779572500,2.770572509765625,0.005824557039886713,-0.0006114994175732136,0.0015507787466049194
1772702678789622500,2.78062255859375,0.002986426465213299,-0.0022887582890689373,0.001275940565392375
1772702678799672600,2.790672607421875,0.0036016679368913174,-0.0030560242012143135,-0.0009672649321146309
1772702678809722400,2.800722412109375,0.006930885836482048,-0.01128226239234209,0.0033326749689877033
1772702678819772400,2.8107724609375,0.0015975814312696457,-0.009708907455205917,0.001043850090354681
1772702678829822500,2.820822509765625,0.003077766392379999,-0.016729000955820084,0.002837755484506488
1772702678839872500,2.83087255859375,0.0035851732827723026,-0.01260569877922535,0.0016792418900877237
1772702678849922300,2.84092236328125,0.003699156455695629,-0.007246353663504124,0.003059558104723692
1772702678859972400,2.850972412109375,0.002557037863880396,-0.0029290756210684776,0.0016910368576645851
1772702678870022700,2.861022705078125,0.0031450637616217136,-0.0022270665504038334,0.004857535474002361
1772702678880071700,2.87107177734375,0.0023193801753222942,-0.003580996301025152,-0.001034125336445868
1772702678890121000,2.881120849609375,0.0043851942755281925,-0.0035279998555779457,0.00599981565028429
1772702678900171000,2.8911708984375,0.0019018310122191906,-0.0063812704756855965,-0.000645854917820543
1772702678910221000,2.901220947265625,0.0021694786846637726,-0.011014372110366821,-0.000910573115106672
1772702678920270800,2.911270751953125,0.0003602148499339819,-0.006188570521771908,0.0006667768466286361
1772702678930321000,2.92132080078125,0.002091003116220236,-0.0049411458894610405,0.0012201817007735372
1772702678940371000,2.931370849609375,-0.0009996105218306184,-0.004230240359902382,-0.0002651885151863098
1772702678950421000,2.9414208984375,0.0015839219558984041,-0.0032320874743163586,0.0003233700408600271
1772702678960471000,2.951470947265625,0.000258001615293324,-0.003941139671951532,0.0005743395304307342
1772702678970521000,2.96152099609375,0.00019967835396528244,-0.0007253726944327354,0.0022619846276938915
1772702678980571100,2.971571044921875,-0.0019479579059407115,0.0025547496043145657,0.002770946826785803
1772702678990620200,2.9816201171875,-0.0009122545598074794,0.005609661806374788,0.004588554613292217
1772702679000670000,2.991669921875,-0.002380908466875553,0.007110335864126682,-0.0013504689559340477
1772702679010720000,3.001719970703125,-0.0005672958213835955,0.0015097083523869514,0.002614711644127965
1772702679020770000,3.01177001953125,-0.0012896195985376835,0.0010208217427134514,-0.0005168612697161734
1772702679030820000,3.021820068359375,-0.0006885442417114973,-0.001009039580821991,0.0020440344233065844
1772702679040870000,3.031869873046875,0.0012588953832164407,0.0002985983155667782,-0.0003387642209418118
1772702679050920000,3.041919921875,0.0002777868648990989,0.000506324227899313,0.0001866774691734463
1772702679060970000,3.051969970703125,-0.0006102410843595862,0.001302635297179222,-0.0025540501810610294
1772702679071020000,3.06202001953125,0.0026505333371460438,0.004714410752058029,-0.0010717347031459212
1772702679081069800,3.07206982421875,0.0010843966156244278,0.00622297078371048,-0.0021233183797448874
1772702679091120000,3.0821201171875,-0.002159866038709879,0.004038912244141102,-0.00386902061291039
1772702679101169200,3.092169189453125,0.0005550285568460822,0.0022270428016781807,-0.0042108711786568165
1772702679111219000,3.102218994140625,-0.0006106371292844415,0.0012057209387421608,-0.0038356322329491377
1772702679121269000,3.11226904296875,0.0023469175212085247,-0.0009494922123849392,-0.0029861400835216045
1772702679131319000,3.122319091796875,0.0005231848917901516,0.00998411513864994,-0.00715505238622427
1772702679141369000,3.132369140625,-0.003278274554759264,0.01297501940280199,-0.006468989886343479
1772702679151419000,3.1424189453125,-0.003580543678253889,0.006721118465065956,-0.0055952067486941814
1772702679161469000,3.152468994140625,-0.002107011852785945,0.0009511671960353851,-0.006368457805365324
1772702679171519000,3.16251904296875,-0.004215169697999954,-0.0036877933889627457,-0.008901390247046947
1772702679181569000,3.172569091796875,-0.0024598175659775734,0.0020127962343394756,-0.0078041995875537395
1772702679191618800,3.182618896484375,-0.000631557428278029,0.007433394435793161,-0.0045349025167524815
1772702679201668900,3.1926689453125,-0.0007170449243858457,0.01294161006808281,-0.005171664524823427
1772702679211718100,3.20271826171875,-0.0023524919524788857,0.020994743332266808,-0.004147945437580347
1772702679221768200,3.212768310546875,-0.0020550801418721676,0.01932751014828682,-0.007524269632995129
1772702679231818000,3.22281787109375,-0.002818342065438628,0.013905048370361328,-0.0051378109492361546
1772702679241868000,3.232867919921875,-0.0037259412929415703,0.009984927251935005,-0.008526820689439774
1772702679251918000,3.24291796875,-0.004396258853375912,0.005917747970670462,-0.00883814413100481
1772702679261968100,3.252968017578125,-0.005715991370379925,0.0018073990941047668,-0.009021567180752754
1772702679272018000,3.263017822265625,-0.004094126634299755,-0.0012839981354773045,-0.008729151450097561
1772702679282068000,3.27306787109375,-0.0016383714973926544,-0.0013050511479377747,-0.008276442997157574
1772702679292118000,3.283117919921875,0.0008535483502782881,0.006309192627668381,-0.004850285593420267
1772702679302168000,3.29316796875,0.0006331701879389584,0.00731610506772995,-0.006188457831740379
1772702679312217900,3.3032177734375,0.003472632495686412,0.009102286770939827,-0.002552444115281105
1772702679322267100,3.31326708984375,0.0047837188467383385,0.011927797459065914,-0.0012340506073087454
1772702679332317200,3.323317138671875,0.005647116340696812,0.011350424028933048,-0.00597740663215518
1772702679342367000,3.333366943359375,0.0037158660124987364,0.0036120079457759857,-0.005179828032851219
1772702679352417000,3.3434169921875,0.0024247656110674143,0.0007033031433820724,-0.0029771276749670506
1772702679362467000,3.353467041015625,0.0015993095003068447,0.002546134404838085,-0.0009230924188159406
1772702679372517000,3.36351708984375,0.0014853262109681964,-0.0002568429335951805,-0.00267305551096797
1772702679382567000,3.37356689453125,-0.00098247523419559,-0.008779631927609444,-0.0031088260002434254
1772702679392617000,3.383616943359375,0.00041408633114770055,-0.005817398428916931,-0.002203884068876505
1772702679402667000,3.3936669921875,0.0025589889846742153,-0.0022828993387520313,-0.0018167884554713964
1772702679412717000,3.403717041015625,0.0008108899928629398,0.0012860028073191643,-0.004086334258317947
1772702679422766800,3.413766845703125,0.000838368316181004,-0.0000978400930762291,-0.0036814247723668814
1772702679432816000,3.423816162109375,0.003845876082777977,0.0017767585813999176,0.0005162498564459383
1772702679442866200,3.4338662109375,0.0050124721601605415,0.0020901840180158615,-0.0009092736872844398
1772702679452916000,3.443916015625,0.00223586056381464,0.0020909830927848816,0.0017826494295150042
1772702679462966000,3.453966064453125,0.0030645132064819336,-0.001858347561210394,0.0005516668898053467
1772702679473016000,3.46401611328125,0.0006162691279314458,-0.002049029804766178,-0.0002848319709300995
1772702679483066000,3.474066162109375,0.00013556377962231636,-0.0018695858307182789,-0.0018077585846185684
1772702679493116200,3.4841162109375,0.0013622158439829946,-0.005738093517720699,-0.003290073946118355
1772702679503166000,3.494166015625,0.0013143466785550117,-0.0074405064806342125,0.0005516352248378098
1772702679513216000,3.504216064453125,0.0001414904836565256,-0.005309445317834616,0.00015802003326825798
1772702679523266000,3.51426611328125,0.0009490286465734243,-0.0063902754336595535,-0.002539662644267082
1772702679533314800,3.524314697265625,0.0023160292766988277,-0.0031697149388492107,0.0031994495075196028
1772702679543365000,3.534365234375,0.002590660937130451,-0.003493784461170435,0.001409107935614884
1772702679553415200,3.544415283203125,0.0015672080917283893,-0.0012479405850172043,0.0010458527831360698
1772702679563465200,3.55446533203125,0.0014608250930905342,-0.0042944615706801414,0.003332905238494277
1772702679573515000,3.564514892578125,0.0032504694536328316,-0.0034560980275273323,0.003597090719267726
1772702679583565000,3.57456494140625,0.0046544792130589485,0.001221104059368372,0.007215531542897224
1772702679593615000,3.584614990234375,0.0025130314752459526,-0.004224793985486031,0.0033446266315877438
1772702679603665200,3.5946650390625,-0.0011024546111002564,-0.012995706871151924,0.005206164438277483
1772702679613715000,3.60471484375,-0.0009503880282863975,-0.011597813107073307,0.00363756250590086
1772702679623765000,3.614764892578125,0.0006889172364026308,-0.007829997688531876,0.005273611284792423
1772702679633815000,3.62481494140625,-0.0008551834616810083,-0.012687336653470993,0.005402774550020695
1772702679643863800,3.63486376953125,-0.0014501498080790043,-0.007646928075700998,0.006401335820555687
1772702679653913900,3.644913818359375,-0.0013569393195211887,-0.004482293967157602,0.008290848694741726
1772702679663964200,3.654964111328125,-0.0002630390226840973,-0.0037599648348987103,0.005472222343087196
1772702679674014200,3.66501416015625,0.0013063617516309023,-0.0036270730197429657,0.0033917610999196768
1772702679684064000,3.67506396484375,-0.000255927094258368,-0.00195864774286747,0.006166278850287199
1772702679694114000,3.685114013671875,-0.0014141359133645892,-0.0018206960521638393,0.004607797134667635
1772702679704164000,3.6951640625,-0.0006846309406682849,-0.0042757755145430565,0.0042916457168757915
1772702679714214100,3.705214111328125,0.00011964363511651754,-0.005361812189221382,0.003255409887060523
1772702679724264000,3.715263916015625,0.0003015464171767235,-0.007523597218096256,0.002275499515235424
1772702679734314000,3.72531396484375,0.002660308266058564,-0.010558269917964935,0.002206789795309305
1772702679744364000,3.735364013671875,-0.002843840280547738,-0.0078096878714859486,0.0007161822868511081
1772702679754413000,3.7454130859375,0.000353550654835999,-0.0070480238646268845,0.0008434813935309649
1772702679764462800,3.755462890625,0.0017086219741031528,-0.0071231406182050705,0.0014796816976740956
1772702679774513000,3.765512939453125,0.00037890567909926176,-0.003950783051550388,0.001477817539125681
1772702679784563000,3.77556298828125,0.0019347243942320347,-0.005938832648098469,-0.0018596559530124068
1772702679794613200,3.78561328125,0.0013783900067210197,-0.004111637827008963,-0.0013733627274632454
1772702679804663000,3.7956630859375,-0.0020409654825925827,0.0021029841154813766,-0.0032701364252716303
1772702679814713000,3.805713134765625,0.0006424357416108251,-0.0050345538184046745,-0.00369810638949275
1772702679824763100,3.81576318359375,0.0017573029035702348,-0.011133845895528793,-0.00213393266312778
1772702679834813200,3.825813232421875,-0.0014989441260695457,-0.010857675224542618,-0.0015392487403005362
1772702679844863000,3.835863037109375,0.0045469594188034534,-0.010977836325764656,-0.0009276512428186834
1772702679854913000,3.8459130859375,0.000867535884026438,-0.00019336631521582603,-0.0012136746663600206
1772702679864962000,3.855962158203125,0.00311510032042861,0.008074752055108547,0.001983383670449257
1772702679875011800,3.86601171875,-0.0004663188010454178,0.014754493720829487,-0.0015319889644160867
1772702679885062000,3.876061767578125,-0.0019060191698372364,0.011585979722440243,-0.0015540916938334703
1772702679895113000,3.886113037109375,-0.004762525670230389,0.004747514612972736,-0.004298745188862085
1772702679905163000,3.8961630859375,-0.0019982238300144672,-0.002864902839064598,-0.003336647292599082
1772702679915212800,3.906212890625,-0.005212925840169191,-0.009435453452169895,-0.00575213460251689
1772702679925262800,3.916262939453125,-0.00424481276422739,-0.009439053945243359,-0.004583042114973068
1772702679935313000,3.92631298828125,-0.0004956143675372005,-0.004286103881895542,-0.002847992582246661
1772702679945363000,3.936363037109375,0.0004992884350940585,-0.0011756597086787224,-0.0041411882266402245
1772702679955413000,3.9464130859375,0.0014183453749865294,-0.0027599739842116833,-0.002251675585284829
1772702679965463000,3.956463134765625,0.001919285859912634,-0.0006251842714846134,0.0015462583396583796
1772702679975512000,3.966511962890625,0.0054820626974105835,0.0038313493132591248,-0.002289226045832038
1772702679985562000,3.97656201171875,0.006840739864856005,0.004924696404486895,-0.002506905933842063
1772702679995612000,3.98661181640625,0.0051720030605793,0.007624077145010233,-0.0020302000921219587
1772702680005662000,3.996661865234375,0.006515465676784515,0.0009903651662170887,0.002365526044741273
1772702680015712000,4.0067119140625,0.004876555874943733,-0.0068838028237223625,-0.0004893825389444828
1772702680025762000,4.016761962890625,0.006496184039860964,-0.004051241558045149,-0.0010083771776407957
1772702680035811800,4.026811767578125,0.003748867195099592,-0.0029758568853139877,-0.0036129485815763474
1772702680045862000,4.03686181640625,0.0016905100783333182,-0.012402914464473724,0.0028233788907527924
1772702680055912000,4.046911865234375,0.001348247635178268,-0.009757738560438156,-0.0023066424764692783
1772702680065962000,4.0569619140625,-0.00013774412218481302,-0.007219491060823202,-0.0018315601628273726
1772702680076011800,4.06701171875,0.0016313937958329916,-0.0010841004550457,-0.0020661845337599516
1772702680086062000,4.07706201171875,0.0017440455267205834,0.0028280834667384624,-0.002927450928837061
1772702680096111000,4.087111083984375,0.0016178116202354431,-0.0027515054680407047,0.000014010438462719321
1772702680106161000,4.097160888671875,0.001627534395083785,-0.003581852652132511,-0.0006832724902778864
1772702680116211000,4.1072109375,0.002596658654510975,0.0012983903288841248,-0.0011202972382307053
1772702680126261000,4.117260986328125,0.002779013942927122,0.0002819262444972992,-0.0032760915346443653
1772702680136311000,4.12731103515625,0.002499382011592388,0.00020309723913669586,-0.0027538456488400698
1772702680146360800,4.13736083984375,-0.0007849597604945302,-0.0008224593475461006,-0.003926768433302641
1772702680156411000,4.147410888671875,-0.0031927237287163734,-0.0015934444963932037,-0.0014404414687305689
1772702680166461000,4.1574609375,-0.0013965618563815951,-0.0025244224816560745,0.00046045248745940626
1772702680176511000,4.167510986328125,0.0013339772121980786,-0.002139063086360693,0.0005930779152549803
1772702680186560800,4.177560791015625,0.0006811823113821447,-0.00489369872957468,0.0015276162885129452
1772702680196610000,4.187610107421875,0.0018982469337061048,-0.005599702708423138,-0.001626365352421999
1772702680206660000,4.19766015625,0.0010458999313414097,-0.005634883418679237,-0.00156318093650043
1772702680216710100,4.207710205078125,-0.0010273709194734693,0.0019079875200986862,0.00008105469169095159
1772702680226760000,4.217760009765625,-0.001164266257546842,-0.0015452364459633827,0.0028759094420820475
1772702680236810000,4.22781005859375,0.0003369576297700405,0.0012044771574437618,0.0034889690577983856
1772702680246860000,4.237860107421875,0.002467956393957138,0.0008324021473526955,0.0008416881319135427
1772702680256910000,4.24791015625,0.0019427812658250332,0.0008489135652780533,0.005472925491631031
1772702680266960000,4.2579599609375,0.00003922509495168924,-0.0007988493889570236,0.0033008165191859007
1772702680277010000,4.268010009765625,-0.0020881080999970436,-0.0005865953862667084,0.00040569400880485773
1772702680287060000,4.27806005859375,-0.0012912902748212218,-0.0019053928554058075,0.000495975196827203
1772702680297110000,4.288110107421875,-0.003318754956126213,-0.001725096721202135,0.003700024215504527
1772702680307159800,4.298159912109375,-0.003228401066735387,-0.0015251603908836842,-0.000024709093850106
1772702680317209000,4.308208984375,-0.005238022655248642,0.0010008476674556732,0.005113860126584768
1772702680327259100,4.318259033203125,-0.002051685471087694,0.0019094930030405521,0.002153292065486312
1772702680337309000,4.328308837890625,0.0004322447348386049,-0.0015914984978735447,0.00185528420843184
1772702680347359000,4.33835888671875,-0.001715865801088512,0.0014814701862633228,0.006342313252389431
1772702680357409000,4.348408935546875,-0.002640515100210905,0.004867412615567446,0.0019973658490926027
1772702680367459000,4.358458984375,-0.0035136346705257893,0.0029054339975118637,0.0006781031261198223
1772702680377508900,4.3685087890625,-0.002585789654403925,-0.0004839715547859669,-0.0010913010919466615
1772702680387559000,4.378558837890625,-0.00037403940223157406,0.004594296216964722,0.0037583147641271353
1772702680397609000,4.38860888671875,-0.0013221247354522347,0.0068380096927285194,0.0036637724842876196
1772702680407659000,4.398658935546875,-0.002591905416920781,0.0007861973717808723,0.0018142035696655512
1772702680417708800,4.408708740234375,-0.00035644799936562777,2.9848888516426086e-7,0.0011074007488787174
1772702680427758000,4.418758056640625,-0.0017825079848989844,0.0012906938791275024,0.002547340700402856
1772702680437808000,4.42880810546875,-0.005529575515538454,0.0025250688195228577,0.0008788701961748302
1772702680447858200,4.438858154296875,-0.0023007672280073166,0.0024716961197555065,-0.0032085468992590904
1772702680457908000,4.448907958984375,-0.002634194679558277,-0.005720986053347588,-0.002862868830561638
1772702680467958000,4.4589580078125,-0.0029542441479861736,-0.006374227814376354,-0.0026470543816685677
1772702680478008000,4.469008056640625,-0.0032719592563807964,0.0028666751459240913,-0.0017983050784096122
1772702680488058000,4.47905810546875,-0.0023138714022934437,0.0012684958055615425,-0.002372019225731492
1772702680498108000,4.48910791015625,0.0029477360658347607,-0.0026471498422324657,-0.0009954313281923532
1772702680508158000,4.499157958984375,0.0004763808101415634,-0.0010297717526555061,-0.002513861982151866
1772702680518208000,4.5092080078125,0.003241274505853653,0.002068017143756151,-0.0030422331765294075
1772702680528258000,4.519258056640625,-0.000829437980428338,0.008930779993534088,-0.0032352786511182785
1772702680538307000,4.52930712890625,-0.00042783317621797323,0.02097252942621708,-0.005158613435924053
1772702680548357000,4.539357177734375,-0.0024118174333125353,0.012287897989153862,-0.0032086807768791914
1772702680558407200,4.5494072265625,-0.0019795862026512623,0.006231602746993303,-0.0007758831488899887
1772702680568457000,4.55945703125,-0.0021450319327414036,0.0042032464407384396,-0.006790333893150091
1772702680578507000,4.569507080078125,-0.003844661172479391,-0.004077053628861904,-0.008171183057129383
1772702680588557000,4.57955712890625,-0.004845811519771814,-0.0032968944869935513,-0.007539048325270414
1772702680598607000,4.589607177734375,-0.0008281663758680224,-0.0005477131344377995,-0.006332636345177889
1772702680608657000,4.599656982421875,0.0002473490312695503,-0.0005338913761079311,-0.0035610171034932137
1772702680618707000,4.60970703125,0.0035086560528725386,0.00455727381631732,-0.0052084485068917274
1772702680628757000,4.619757080078125,0.003676030784845352,0.009199345484375954,-0.0029389685951173306
1772702680638807000,4.62980712890625,0.005134377628564835,0.004813918378204107,-0.003690512850880623
1772702680648855800,4.639855712890625,0.004158861935138702,0.006779597606509924,-0.0038556288927793503
1772702680658905900,4.64990576171875,0.004768193233758211,0.007278673816472292,-0.0042833322659134865
1772702680668956200,4.6599560546875,0.0029953941702842712,0.0015231966972351074,-0.0023601639550179243
1772702680679006200,4.670006103515625,0.004218583926558495,-0.0026912554167211056,-0.0018411139026284218
1772702680689056000,4.680055908203125,0.003417572472244501,-0.00021676486358046532,-0.0027124001644551754
1772702680699106000,4.69010595703125,0.0031214288901537657,-0.0020799124613404274,-0.005957461893558502
1772702680709156000,4.700156005859375,0.0032260946463793516,-0.008826974779367447,-0.002856344450265169
1772702680719206100,4.7102060546875,0.0040364945307374,-0.010261086747050285,-0.005916050169616938
1772702680729256000,4.720255859375,0.005496783647686243,-0.006825890392065048,-0.006309571210294962
1772702680739306000,4.730305908203125,0.0045995647087693214,-0.00954417884349823,-0.00336518045514822
1772702680749356000,4.74035595703125,0.004342424217611551,0.0003884797915816307,-0.00868929922580719
1772702680759404800,4.75040478515625,0.0021953836549073458,0.005582975223660469,-0.0033307531848549843
1772702680769454800,4.760454833984375,0.0021144328638911247,0.004089848138391972,-0.0023765466175973415
1772702680779505000,4.7705048828125,0.0048140790313482285,0.0014834124594926834,-0.004306805785745382
1772702680789555200,4.78055517578125,0.0011991593055427074,0.00321498466655612,0.0009971169056370854
1772702680799605000,4.79060498046875,0.0011387055274099112,0.0038549420423805714,-0.003338775597512722
1772702680809655000,4.800655029296875,-0.00016849080566316843,-0.0009521422907710075,-0.0021301736123859882
1772702680819705000,4.810705078125,0.0019354064716026187,-0.0012394976802170277,-0.00034372525988146663
1772702680829755100,4.820755126953125,-0.0013700617710128427,0.0031218351796269417,-0.0037033301778137684
1772702680839805000,4.830804931640625,-0.0008773767622187734,-0.00021111126989126205,-0.004039953462779522
1772702680849855000,4.84085498046875,0.0015507000498473644,-0.0033211559057235718,-0.002999356249347329
1772702680859905000,4.850905029296875,-0.0010469472035765648,-0.004021300934255123,-0.001552727073431015
1772702680869953800,4.860953857421875,-0.0007689842022955418,-0.0029815398156642914,-0.002421949291601777
1772702680880003800,4.87100390625,0.00155142811127007,0.0015812534838914871,-0.00398282753303647
1772702680890053400,4.881053466796875,0.001872753957286477,0.0014576059766113758,-0.000541697081644088
1772702680900103400,4.891103515625,0.000855160178616643,0.003983879927545786,0.0010508731938898563
1772702680910153500,4.901153564453125,-0.0007546029519289732,0.00656509306281805,0.0014268511440604925
1772702680920203300,4.911203369140625,0.001566075487062335,0.0023557012900710106,-0.000007527356501668692
1772702680930253300,4.92125341796875,-0.0023323874920606613,-0.00008526770398020744,-0.00023569463519379497
1772702680940303400,4.931303466796875,-0.002093501854687929,-0.0007334812544286251,-0.0020136209204792976
1772702680950353400,4.941353515625,-0.0013299150159582496,-0.005447832867503166,0.0010820040479302406
1772702680960403200,4.9514033203125,-0.004313454497605562,0.0003008670173585415,0.001433807541616261
1772702680970453200,4.961453369140625,-0.0031124786473810673,0.001355777494609356,0.0006551576079800725
1772702680980503300,4.97150341796875,-0.005108784418553114,0.002441548742353916,0.0014362628571689129
1772702680990552000,4.981552001953125,-0.004388357046991587,0.0046240342780947685,-0.0005198571016080678
1772702681000602400,4.991602294921875,-0.0023206789046525955,0.003723619505763054,0.0018940321169793606
1772702681010652400,5.00165234375,-0.0003495963755995035,0.005108840763568878,0.0011250138049945235
1772702681020702500,5.011702392578125,-0.001752549665980041,0.0032337093725800514,0.0022616509813815355
1772702681030752300,5.021752197265625,-0.0016900368500500917,0.0043227411806583405,0.0026054996997117996
1772702681040802300,5.03180224609375,-0.00663366261869669,0.007684715092182159,0.0017836482729762793
1772702681050852400,5.041852294921875,-0.004443081095814705,0.007106248289346695,0.00181806948967278
1772702681060902400,5.05190234375,-0.0020744656212627888,0.009324127808213234,0.0027384578716009855
1772702681070952200,5.0619521484375,-0.004751205909997225,0.006105488166213036,0.0018512255046516657
1772702681081002200,5.072002197265625,-0.0032441229559481144,0.005843432620167732,0.0028142244555056095
1772702681091052300,5.08205224609375,-0.0046805646270513535,0.007973575964570045,0.00027739707729779184
1772702681101101000,5.09210107421875,-0.0031788076739758253,0.004562333691865206,-0.0021804342977702618
1772702681111151000,5.102151123046875,-0.004110322333872318,0.003009687177836895,0.0011886963620781898
1772702681121201200,5.112201171875,-0.0029880660586059093,0.00764092430472374,-0.0004550066660158336
1772702681131251500,5.12225146484375,-0.007689994759857655,0.004923684522509575,-0.0017387194093316793
1772702681141301200,5.13230126953125,-0.004328552633523941,0.0008296063169836998,-0.0005528139299713075
1772702681151351300,5.142351318359375,-0.0017558806575834751,0.007372500840574503,-0.0029351741541177034
1772702681161401300,5.1524013671875,-0.0030786728020757437,0.009096631780266762,-0.0017234357073903084
1772702681171451400,5.162451416015625,-0.005685781128704548,0.007896734401583672,-0.002739365678280592
1772702681181501400,5.17250146484375,-0.0029120990075170994,0.005790174473077059,-0.0027034131344407797
1772702681191551200,5.18255126953125,-0.0031394604593515396,0.006242373958230019,-0.004255402833223343
1772702681201601300,5.192601318359375,-0.0034505180083215237,0.007228276692330837,-0.004308666102588177
1772702681211650300,5.202650390625,-0.004029275383800268,0.006895394530147314,-0.002034566132351756
1772702681221700000,5.2127001953125,-0.0046926685608923435,0.013362348079681396,-0.0038308685179799795
1772702681231750100,5.222750244140625,-0.005622598808258772,0.020672805607318878,-0.00208612740971148
1772702681241800200,5.23280029296875,-0.005499826744198799,0.01617073081433773,-0.00268587120808661
1772702681251850200,5.242850341796875,-0.004215576685965061,0.011846344918012619,-0.003037439426407218
1772702681261900300,5.252900390625,-0.006064608693122864,0.015914855524897575,-0.004674484487622976
1772702681271950300,5.262950439453125,-0.006269214674830437,0.015133904293179512,-0.008492231369018555
1772702681282000400,5.27300048828125,-0.008882308378815651,0.00813911110162735,-0.008227246813476086
1772702681292050400,5.283050537109375,-0.012889229692518711,0.002945206593722105,-0.005419237073510885
1772702681302100200,5.293100341796875,-0.006645181681960821,0.0012176134623587132,-0.006484235171228647
1772702681312150300,5.303150390625,-0.007425622548907995,0.007504510227590799,-0.004926485940814018
1772702681322200300,5.313200439453125,-0.0034247557632625103,0.013738702982664108,-0.004845791961997747
1772702681332249000,5.3232490234375,-0.001224309322424233,0.011363834142684937,0.0015132352709770203
1772702681342299100,5.333299072265625,0.00027238705661147833,0.016064580529928207,-0.0019067961256951094
1772702681352349200,5.34334912109375,-0.0003944787895306945,0.019739042967557907,-0.003231584094464779
1772702681362399200,5.353399169921875,0.0001906177494674921,0.013375419192016125,-0.002708006650209427
1772702681372449300,5.36344921875,-0.0007648571627214551,0.002919730730354786,-0.0017073566559702158
1772702681382499300,5.373499267578125,-0.0027529066428542137,-0.0011860649101436138,-0.0033547880593687296
1772702681392549400,5.38354931640625,-0.0017532905330881476,0.002893335185945034,-0.007950272411108017
1772702681402599400,5.393599365234375,-0.003723497036844492,0.004058201797306538,-0.002070812275633216
1772702681412649500,5.4036494140625,-0.0011016835924237967,-0.0012513445690274239,-0.0014450750313699245
1772702681422698200,5.4136982421875,-0.002253234386444092,-0.0005370848812162876,-0.0038086306303739548
1772702681432748300,5.423748291015625,-0.001431180047802627,-0.005943269468843937,-0.005385448690503836
1772702681442798300,5.43379833984375,-0.0030647628009319305,-0.00001906743273139,-0.0014431711751967669
1772702681452848000,5.44384814453125,0.00006280164234340191,0.0016500065103173256,-0.0047666351310908794
1772702681462898200,5.453898193359375,-0.0013462768401950598,0.004341930150985718,-0.002517861546948552
1772702681472948200,5.4639482421875,0.0013725984608754516,0.0052359383553266525,-0.002109094290062785
1772702681482998300,5.473998291015625,-0.00042796472553163767,0.003862280398607254,0.0004102560633327812
1772702681493048000,5.484048095703125,0.0023668911308050156,0.004702534526586533,-0.0027634999714791775
1772702681503098400,5.494098388671875,-0.002036645542830229,0.00601201131939888,-0.004663132596760988
1772702681513148400,5.5041484375,-0.00149576086550951,0.005173325538635254,-0.00023096660152077675
1772702681523198500,5.514198486328125,-0.0024832608178257942,0.000871787779033184,-0.0027471212670207024
1772702681533247200,5.524247314453125,-0.0009245729306712747,-0.008613895624876022,-0.0018625203520059586
1772702681543297300,5.53429736328125,-0.002169334329664707,-0.014431304298341274,-0.0011554509401321411
1772702681553347300,5.544347412109375,-0.0014056157087907195,-0.009855511598289013,-0.002330671064555645
1772702681563397000,5.554397216796875,0.0009896312840282917,-0.003172841854393482,-0.0007415628060698509
1772702681573447200,5.564447265625,0.00295418594032526,-0.001371721737086773,-0.000761768373195082
1772702681583497200,5.574497314453125,0.000027105561457574368,0.0044235833920538425,0.0007274713134393096
1772702681593547300,5.58454736328125,0.001142496825195849,0.007683001458644867,-0.0030641057528555393
1772702681603597000,5.59459716796875,-0.001960085704922676,0.005902945064008236,-0.003160245716571808
1772702681613647000,5.604647216796875,-0.0022606896236538887,-0.00643266923725605,-0.0001779375015757978
1772702681623697400,5.614697509765625,-0.0026026396080851555,-0.01115791592746973,0.0010372628457844257
1772702681633747500,5.62474755859375,-0.0009850944625213742,-0.009435893036425114,-0.0006141298799775541
1772702681643797200,5.63479736328125,0.001693779369816184,-0.004321292042732239,-0.00018722511595115066
1772702681653846300,5.64484619140625,-0.0011274475837126374,-0.004146730527281761,0.0028304695151746273
1772702681663896300,5.654896240234375,-0.0033397357910871506,-0.0017176615074276924,0.002597442828118801
1772702681673946400,5.6649462890625,-0.0006278366781771183,0.004819657653570175,0.0022010321263223886
1772702681683996200,5.67499609375,-0.0000989327672868967,0.009639181196689606,0.005130509380251169
1772702681694046200,5.685046142578125,-0.002457164227962494,0.010309971868991852,0.003534342860803008
1772702681704096300,5.69509619140625,-0.0013213258935138583,0.0056401202455163,0.00235030148178339
1772702681714146300,5.705146240234375,0.0005010849563404918,-0.001513495109975338,0.0060575539246201515
1772702681724196000,5.715196044921875,-0.003644657786935568,0.003783798310905695,0.005431711208075285
1772702681734246100,5.72524609375,-0.0025718053802847862,0.0028857546858489513,0.009499224834144115
1772702681744296200,5.735296142578125,-0.0054717217572033405,0.004284712951630354,0.006387586705386639
1772702681754346500,5.745346435546875,-0.003479020670056343,0.005636804271489382,0.007838805206120014
1772702681764396300,5.755396240234375,-0.006062286905944347,0.004014939535409212,0.0055135996080935
1772702681774446300,5.7654462890625,-0.0038582542911171913,0.0020652995444834232,0.004387750755995512
1772702681784496400,5.775496337890625,-0.005071857012808323,0.005109026562422514,0.008379297330975533
1772702681794545200,5.785545166015625,-0.0019130781292915344,0.008410930633544922,0.0034407335333526134
1772702681804595200,5.79559521484375,-0.002415084047242999,0.00978032872080803,0.004234355874359608
1772702681814645200,5.805645263671875,-0.002421209355816245,0.010651979595422745,0.0020644119940698147
1772702681824695300,5.8156953125,-0.00545295188203454,0.012829113751649857,0.00016238231910392642
1772702681834745000,5.8257451171875,-0.0037056487053632736,0.012654732912778854,0.002771614119410515
1772702681844795100,5.835795166015625,-0.0053504169918596745,0.01467926800251007,0.003191061783581972
1772702681854845200,5.84584521484375,-0.008365188725292683,0.009581657126545906,-0.0014606514014303684
1772702681864895200,5.855895263671875,-0.006889531388878822,0.008491892367601395,-0.0011509257601574063
1772702681874945300,5.8659453125,-0.003699728287756443,0.007439499720931053,0.000600438448600471
1772702681884995300,5.875995361328125,-0.0059136138297617435,0.009939675219357014,-0.0005071702180430293
1772702681895046000,5.8860458984375,-0.005982920993119478,0.012598751112818718,-0.00045387318823486567
1772702681905096000,5.896095947265625,-0.00611128518357873,0.010421616956591606,-0.00013882119674235582
1772702681915145200,5.906145263671875,-0.005312607157975435,0.00619633449241519,-0.0037304991856217384
1772702681925195300,5.9161953125,-0.0036273589357733727,0.011417994275689125,-0.004052475094795227
1772702681935245000,5.9262451171875,-0.005902291275560856,0.01587061956524849,-0.00462355138733983
1772702681945295000,5.936295166015625,-0.005092157982289791,0.0205703005194664,-0.005608920939266682
1772702681955345200,5.94634521484375,-0.006563753355294466,0.017610076814889908,-0.008702082559466362
1772702681965395200,5.956395263671875,-0.006709960754960775,0.011342328041791916,-0.007650134153664112
1772702681975445000,5.966445068359375,-0.008382230997085571,0.013745037838816643,-0.009121631272137165
1772702681985495000,5.9764951171875,-0.006175270304083824,0.013889113441109657,-0.008057165890932083
1772702681995545000,5.986545166015625,-0.007622699253261089,0.014234200119972229,-0.0059440829791128635
1772702682005595100,5.99659521484375,-0.0041099898517131805,0.01393539272248745,-0.010197417810559273
1772702682015645000,6.00664501953125,-0.004594484809786081,0.01576995849609375,-0.008066853508353233
1772702682025695000,6.016695068359375,-0.0053239245899021626,0.014669804833829403,-0.00826179701834917
1772702682035744300,6.026744140625,-0.0034388029016554356,0.017456889152526855,-0.010045248083770275
1772702682045794000,6.0367939453125,-0.0038254940882325172,0.01857301965355873,-0.008760006166994572
1772702682055844000,6.046843994140625,0.0006138612516224384,0.014722062274813652,-0.006745791062712669
1772702682065894100,6.05689404296875,0.0016170740127563477,0.01795913465321064,-0.007743677590042353
1772702682075944200,6.066944091796875,0.0003629940329119563,0.01403022836893797,-0.006544855423271656
1772702682085994000,6.076993896484375,-0.0026117570232599974,0.010209391824901104,-0.007569373585283756
1772702682096044000,6.0870439453125,-0.0036282879300415516,0.011298036202788353,-0.009908027946949005
1772702682106094000,6.097093994140625,-0.004014978650957346,0.010362999513745308,-0.013424200005829334
1772702682116144000,6.10714404296875,-0.0015598108293488622,0.0036691445857286453,-0.013072130270302296
1772702682126194000,6.11719384765625,-0.002212285064160824,0.0023138616234064102,-0.01131976954638958
1772702682136244000,6.127243896484375,-0.004021766129881144,0.002988523803651333,-0.012899757362902164
1772702682146294000,6.1372939453125,0.0015184081858024001,0.008921781554818153,-0.010384934023022652
1772702682156343300,6.14734326171875,-0.0032886681146919727,0.01652090810239315,-0.009728165343403816
1772702682166393000,6.15739306640625,0.0034917397424578667,0.013032699003815651,-0.009761188179254532
1772702682176443100,6.167443115234375,-0.000032549258321523666,0.01882968656718731,-0.010293488390743732
1772702682186493200,6.1774931640625,0.0017917160876095295,0.020378580316901207,-0.011673271656036377
1772702682196543200,6.187543212890625,-0.001824057660996914,0.01558355987071991,-0.012797125615179539
1772702682206593000,6.197593017578125,-0.001523919403553009,0.008152008056640625,-0.014959346503019333
1772702682216643000,6.20764306640625,-0.004415120929479599,0.005342995282262564,-0.011259925551712513
1772702682226693000,6.217693115234375,-0.0015751263126730919,0.007549424190074205,-0.011881507001817226
1772702682236743200,6.2277431640625,-0.0012040153378620744,0.013775188475847244,-0.012211666442453861
1772702682246793000,6.23779296875,-0.003163569141179323,0.006914352998137474,-0.010242259129881859
1772702682256843000,6.247843017578125,-0.0033644374925643206,0.009716710075736046,-0.01100095920264721
1772702682266893000,6.25789306640625,-0.004341284744441509,0.011516740545630455,-0.00853753462433815
1772702682276942000,6.267942138671875,-0.003223487176001072,0.016361769288778305,-0.010912040248513222
1772702682286992100,6.2779921875,-0.004342547617852688,0.009861793369054794,-0.011249462142586708
1772702682297042200,6.288042236328125,-0.0035710297524929047,0.006087827496230602,-0.01012108102440834
1772702682307092200,6.29809228515625,-0.004740423988550901,0.004422818310558796,-0.007618242409080267
1772702682317142000,6.30814208984375,-0.003741935361176729,0.00895572267472744,-0.008147711865603924
1772702682327192000,6.318192138671875,-0.0031019775196909904,0.005135950166732073,-0.0056107849813997746
1772702682337242000,6.3282421875,-0.00451758224517107,0.0038818405009806156,-0.005818178877234459
1772702682347292200,6.338292236328125,-0.0028879940509796143,0.003381697926670313,-0.0069252545945346355
1772702682357342000,6.348342041015625,-0.0022518341429531574,0.003357258625328541,-0.0029760205652564764
1772702682367392000,6.35839208984375,-0.005358411930501461,0.005632663145661354,-0.004177372436970472
1772702682377442000,6.368442138671875,-0.006730407476425171,0.012429548427462578,-0.002464734949171543
1772702682387492000,6.3784921875,-0.005346096120774746,0.009621778503060341,-0.0013597893994301558
1772702682397541000,6.388541015625,-0.002907238435000181,0.008480913937091827,-0.0002542699803598225
1772702682407591200,6.398591064453125,-0.003719502594321966,0.008158138021826744,-0.003454057965427637
1772702682417641200,6.40864111328125,-0.0031162980012595654,0.005612303037196398,-0.0007650692132301629
1772702682427691300,6.418691162109375,-0.00621142378076911,0.00761153781786561,-0.0007221922860480845
1772702682437741000,6.428740966796875,-0.004327763337641954,0.007305508479475975,0.0019795899279415607
1772702682447791000,6.438791015625,-0.0031365309841930866,0.008821113035082817,-0.0006896964041516185
1772702682457841200,6.448841064453125,-0.004494681488722563,0.003737173043191433,0.0025924828369170427
1772702682467891200,6.45889111328125,-0.0035862773656845093,-0.006106935441493988,0.0025237733498215675
1772702682477941000,6.46894091796875,-0.006389985792338848,0.0005548438057303429,0.0018514255061745644
1772702682487991000,6.478990966796875,-0.0065670860931277275,0.015259487554430962,-0.0020365233067423105
1772702682498041000,6.489041015625,-0.003758918959647417,0.009799858555197716,0.0016637337394058704
1772702682508090000,6.499090087890625,-0.003999135922640562,0.0005877171643078327,0.0008890201570466161
1772702682518140200,6.50914013671875,-0.0035487269051373005,4.917383193969727e-7,-0.0009162317728623748
1772702682528190200,6.519190185546875,-0.002776143606752157,0.004658360034227371,-0.0021559332963079214
1772702682538240300,6.529240234375,-0.004009122960269451,0.006502361968159676,-0.006193988025188446
1772702682548290000,6.5392900390625,-0.0020993701182305813,0.00044766534119844437,-0.0024242836516350508
1772702682558340000,6.549340087890625,-0.0016923040384426713,-0.001820992212742567,0.001092224265448749
1772702682568390100,6.55939013671875,-0.0019684741273522377,-0.0024353833869099617,0.0017401713412255049
1772702682578440200,6.569440185546875,-0.00004393327981233597,0.0009554955177009106,0.0007121243979781866
1772702682588490000,6.579489990234375,-0.0001334154512733221,0.0014955843798816204,-0.002231733873486519
1772702682598540000,6.5895400390625,-0.0026841992512345314,0.0022669313475489616,-0.0030667688697576523
1772702682608590000,6.599590087890625,-0.001421861001290381,0.0010815579444169998,-0.00130455510225147
1772702682618640100,6.60964013671875,-0.0005062662530690432,-0.00603467458859086,-0.002580475527793169
1772702682628690000,6.61968994140625,-0.004907670430839062,-0.003708610776811838,-0.0003510087262839079
1772702682638739200,6.6297392578125,-0.004018306732177734,0.006492655724287033,-0.005264607258141041
1772702682648789200,6.639789306640625,-0.0018409064505249262,0.012582771480083466,-0.005245432257652283
1772702682658839300,6.64983935546875,0.0006972881383262575,0.0025963601656258106,-0.003158546518534422
1772702682668889000,6.65988916015625,0.0006908965297043324,0.0033484366722404957,0.00028651877073571086
1772702682678939100,6.669939208984375,-0.0010068063857033849,0.0020776093006134033,-0.001477992394939065
1772702682688989200,6.6799892578125,-0.003205246292054653,-0.002886523026973009,-0.005693510174751282
1772702682699039200,6.690039306640625,-0.0006981460610404611,-0.003717429004609585,-0.003400794928893447
1772702682709089000,6.700089111328125,-0.0036009917967021465,-0.0008800975047051907,-0.004682041704654694
1772702682719139000,6.71013916015625,0.0018801254918798804,0.0030161961913108826,-0.002318786922842264
1772702682729189000,6.720189208984375,0.0015139408642426133,0.0044058337807655334,-0.0036197411827743053
1772702682739239200,6.7302392578125,-0.0004605251597240567,0.001673756167292595,0.0005165488692000508
1772702682749288200,6.7402880859375,0.0036007952876389027,-0.003432589117437601,-0.0014302218332886696
1772702682759338200,6.750338134765625,0.0027994485571980476,0.004453914240002632,-0.0008282223716378212
1772702682769388300,6.76038818359375,0.0037976012099534273,0.00666487030684948,0.0030344263650476933
1772702682779438000,6.77043798828125,0.0030805461574345827,0.0027451165951788425,0.0013405969366431236
1772702682789488000,6.780488037109375,0.0011580100981518626,0.0058487639762461185,-0.004001437686383724
1772702682799538200,6.7905380859375,0.0008744490914978087,0.006615310441702604,-0.005865152925252914
1772702682809588200,6.800588134765625,0.001545033068396151,-0.005787829868495464,-0.005456357728689909
1772702682819638000,6.810637939453125,0.00029195507522672415,-0.016587454825639725,-0.00006235530599951744
1772702682829688000,6.82068798828125,0.0027236873283982277,-0.0072464169934391975,-0.00006555113941431046
1772702682839738000,6.830738037109375,0.00005153228994458914,0.007038753014057875,-0.007490213494747877
1772702682849788200,6.8407880859375,0.007562978193163872,0.04752891883254051,0.05151238664984703
1772702682859838000,6.850837890625,0.004308062139898539,0.02234627678990364,0.10209473222494125
1772702682869888000,6.860887939453125,-0.00034527911338955164,-0.06216061860322952,0.0236691664904356
1772702682879937300,6.870937255859375,-0.003448925446718931,-0.04337828978896141,-0.03729218244552612
1772702682889986000,6.880986083984375,0.0017554241931065917,0.02276105061173439,-0.026780152693390846
1772702682900036000,6.8910361328125,-0.0018634110456332564,-0.001971431076526642,-0.03477822616696358
1772702682910086100,6.901086181640625,-0.0009305059211328626,-0.028420882299542427,-0.04731425642967224
1772702682920136200,6.91113623046875,0.00002424372360110283,-0.003452835138887167,-0.04441700503230095
1772702682930186000,6.92118603515625,0.0029321492183953524,0.013018548488616943,-0.015299597755074501
1772702682940236000,6.931236083984375,0.002505834447219968,0.0032616485841572285,0.0173464547842741
