time,seconds_elapsed,z,y,x
1772701791930073900,0.067073974609375,0.3030143940478563,-0.22924568574279544,-0.1250906070023775
1772701791940123100,0.077123046875,0.25801322280466554,-0.2500111181348562,-0.18098551270365715
1772701791950172000,0.087171875,0.13970540781021118,-0.22892244513779877,-0.1551280178695917
1772701791960220200,0.09722021484375,0.04066168073415756,-0.14218553418815136,-0.13984101688861847
1772701791970269000,0.10726904296875,-0.015519056171178817,-0.03853548236042261,-0.13290098849236964
1772701791980318000,0.11731787109375,-0.098164606153965,-0.020799042400717734,-0.14426701663732527
1772701791990366000,0.127365966796875,-0.1748731673032045,-0.04060702793747186,-0.03359364204406738
1772701792000415000,0.1374150390625,-0.05807867948114872,-0.013987316559255123,0.16675123564600944
1772701792010464000,0.147464111328125,0.09222937088608742,-0.02095043357014656,0.2073351749688387
1772701792020512000,0.157511962890625,0.1401139886111021,-0.014644319163262844,0.14418226096332074
1772701792030561000,0.16756103515625,0.17517711868584154,0.06640753188729286,0.12301496977210044
1772701792040610000,0.177610107421875,0.1536170287847519,0.08388678221553564,0.0734469290047884
1772701792050658800,0.187658935546875,0.07477671630382537,0.07318710902482271,-0.012798691296577453
1772701792060707000,0.19770703125,-0.016921908706426618,0.05632014537602663,-0.09824410113096237
1772701792070755800,0.207755859375,-0.05492226127684116,0.0651812049627304,-0.10339841515421867
1772701792080805000,0.21780517578125,-0.1293733988881111,0.062355626147985455,-0.13765607406497002
1772701792090852900,0.227852783203125,-0.17037059518694878,0.020217735381424427,-0.1290069036632776
1772701792100902100,0.237902099609375,-0.1446668296098709,-0.0670984367609024,-0.05206044210493564
1772701792110951000,0.247950927734375,-0.029547581523656843,-0.08239157522171735,0.007253332129120826
1772701792120999200,0.257999267578125,0.024817045870423316,-0.048455695611238477,-0.0017810381978750228
1772701792131048000,0.2680478515625,0.029034371304512023,-0.03651011401265859,-0.07792085954844952
1772701792141097000,0.278096923828125,0.005842880809307098,-0.03232669084817171,-0.14749650007784365
1772701792151146000,0.28814599609375,-0.04109422693252563,-0.059226680472493166,-0.08894844951927662
1772701792161194000,0.298194091796875,-0.0593254646718502,-0.06674100162535905,-0.07545885334908962
1772701792171243000,0.308242919921875,-0.052068625411391255,-0.08054390152841806,-0.07791326076388358
1772701792181292000,0.3182919921875,-0.018956044882535935,-0.13282324708104132,-0.08730769657492637
1772701792191340000,0.328340087890625,0.04508943404853344,-0.18399521591365336,-0.08343523905575274
1772701792201389000,0.33838916015625,0.038028994143009184,-0.1678250023573637,-0.1249339551359415
1772701792211437800,0.348437744140625,0.038545711493492125,-0.12753332397937775,-0.09629238254129886
1772701792221487000,0.358487060546875,-0.030194647255539893,-0.04906505968123674,-0.08777823669612407
1772701792231534800,0.368534912109375,-0.12250760477185249,0.049259120948612685,-0.1186333936870098
1772701792241584000,0.378584228515625,-0.16364450180232523,0.06780541598647832,-0.15723872641324996
1772701792251633000,0.3886328125,-0.11984686112999915,0.06708148562610149,-0.16904314597547054
1772701792261681200,0.39868115234375,-0.13067279104888438,0.11295622483342885,-0.13591887500882147
1772701792271730000,0.40872998046875,-0.11157879900038242,0.10305471628308295,-0.06448036321699618
1772701792281779000,0.418779052734375,-0.02229015774130821,0.05982961480170488,-0.001513327172398567
1772701792291827000,0.428826904296875,0.07176350596249104,0.028387597833573818,-0.014355857610702514
1772701792301876000,0.4388759765625,0.08924363307356833,0.04808920038640499,-0.06243102947175502
1772701792311925000,0.448925048828125,0.01953998225033283,0.05050912100970745,-0.07414893979430198
1772701792321974000,0.45897412109375,-0.020350714111328123,-0.018908406348526478,-0.01816927841901779
1772701792332022000,0.46902197265625,-0.016772271102666853,-0.10625000519305466,-0.02000935332775116
1772701792342071000,0.479071044921875,-0.08146306219995021,-0.17175211267322302,-0.06910159327685833
1772701792352119800,0.489119873046875,-0.12711714439392088,-0.14862024341076613,-0.07611527143120765
1772701792362168000,0.49916796875,-0.040649990296363826,-0.25591712730824945,-0.14557576114833354
1772701792372216800,0.509216796875,-0.04165945959985256,-0.42729660727679725,-0.1829787323474884
1772701792382266000,0.51926611328125,-0.012855974441766739,-0.5891930963680148,-0.11921908462047576
1772701792392313900,0.52931396484375,0.09368716847896576,-0.551195081885159,-0.112006669023633
1772701792402363100,0.539363037109375,0.19645429999232292,-0.13867723380625246,-0.08084756065011024
1772701792412412000,0.549411865234375,0.3446294299840927,0.18851503142565487,-0.31101825228333474
1772701792422461000,0.5594609375,0.6379857688486575,0.11606178963333368,-0.6695213093191384
1772701792432509000,0.569509033203125,1.0398504132270812,-0.10217705666571855,-0.9918079745918512
1772701792442558000,0.579557861328125,1.4591121826082467,-0.489713315962255,-1.3538222546190022
1772701792452607000,0.58960693359375,1.9317402159959076,-1.0015352956190704,-1.6288053169250487
1772701792462655000,0.599655029296875,2.3369126697480676,-1.3121014202207326,-1.9488234527438877
1772701792472704000,0.6097041015625,2.8585347434073687,-1.4593953834637998,-2.3437761257767677
1772701792482753000,0.6197529296875,3.532857900050282,-1.4626976398795841,-2.8539257883071896
1772701792492801800,0.6298017578125,4.253012249019742,-1.491283098372817,-3.2633173210591075
1772701792502850000,0.63985009765625,4.996507141566276,-1.6746379705563186,-3.601115443718433
1772701792512898800,0.64989892578125,5.550200177747011,-1.7775474331498144,-3.765806239703297
1772701792522948000,0.659947998046875,5.965066927039623,-1.7170993941888213,-3.7212732704937457
1772701792532995800,0.669995849609375,5.974905014964937,-1.7475339876800775,-3.724090081480145
1772701792543045000,0.680045166015625,5.4078650059551,-1.8070438690081239,-3.781252815160155
1772701792553094000,0.690093994140625,5.119618557450175,-1.6796362172350285,-3.761733875697851
1772701792563143000,0.700142822265625,4.70954956382811,-1.678326595941186,-3.8053678502410646
1772701792573191000,0.71019091796875,4.2498645986437795,-1.6630658984452484,-3.831442787218094
1772701792583240000,0.720239990234375,3.775551973170042,-1.1972066285401581,-3.432716440865397
1772701792593289000,0.7302890625,2.98242415792644,-0.66832479301095,-2.115571181258559
1772701792603337000,0.7403369140625,1.7738643607228994,-0.21886282341629265,-0.49151568920910355
1772701792613386000,0.750385986328125,0.19307225633859634,0.4455345670178532,0.8698726167500018
1772701792623435000,0.76043505859375,-2.2765315585434434,1.4924384058877824,2.085725493571162
1772701792633483000,0.77048291015625,-5.83905394449532,3.1358801509305834,3.226654354572296
1772701792643532000,0.780531982421875,-9.752015908014775,4.932150112468004,3.9275042836129663
1772701792653580800,0.790580810546875,-13.610260192918776,5.509160311350226,4.118837002807855
1772701792663630000,0.800630126953125,-14.707030178719759,4.253157502709329,4.742500231793523
1772701792673677800,0.810677734375,-12.809509627711773,2.3588966841496526,5.9793503039360045
1772701792683727000,0.82072705078125,-11.867636773633956,0.833470200895518,6.902739406818151
1772701792693776000,0.83077587890625,-11.926152090966701,0.2600105341017246,7.0978849622994655
1772701792703824100,0.84082421875,-11.752471932840347,0.7556338047601282,7.21447837459147
1772701792713873000,0.850872802734375,-11.456529669135808,1.2338820161171258,7.544239905789494
1772701792723922000,0.860921875,-11.123428179860115,1.5007071986697613,8.23594382082224
1772701792733971000,0.870970947265625,-10.748186169469356,1.6915395671270788,8.958108925092219
1772701792744019000,0.88101904296875,-10.359652131307124,1.5551782090477644,9.45834100472033
1772701792754068000,0.89106787109375,-9.889332959383726,0.8795718807265162,10.06327381427288
1772701792764117000,0.901116943359375,-9.079609983170032,0.2422663492269814,10.943042386615275
1772701792774165000,0.9111650390625,-8.780295612683892,0.15764277716949582,11.283319466608763
1772701792784214000,0.921214111328125,-9.236174171322583,1.4719213952988386,10.430468127286433
1772701792794262800,0.9312626953125,-9.525096911653876,2.970031709343195,8.7221117192626
1772701792804312000,0.94131201171875,-9.070506639260053,3.289857537460327,6.779609870755672
1772701792814359800,0.95135986328125,-7.496620661002397,2.683353533068299,5.361562688985467
1772701792824409000,0.9614091796875,-4.70231493639946,2.0701196358993648,3.8148178156316277
1772701792834458000,0.9714580078125,-1.7712609002262354,1.8503605942957102,2.3902415243536232
1772701792844506000,0.981506103515625,1.3940794462054966,1.3733562455199657,0.8721236105471849
1772701792854555000,0.991554931640625,4.354115831235051,0.07307736504003405,-1.0124410127758978
1772701792864604000,1.00160400390625,6.893775763639807,-0.6007214754678308,-2.924353077229857
1772701792874652000,1.01165185546875,8.258840712285041,-0.6331066185049712,-3.9032571465849872
1772701792884701000,1.021700927734375,8.323920210438967,-1.0606563237600029,-5.00241198169589
1772701792894750000,1.03175,8.784746746873855,-1.6233274700358509,-6.335991074231266
1772701792904799000,1.041799072265625,9.665013331866264,-1.8609731737248598,-7.115479071179032
1772701792914847000,1.051846923828125,10.379871912515164,-1.8773082224540412,-7.646896562665701
1772701792924896000,1.06189599609375,10.863114863419533,-1.8393290588021278,-7.892231505683064
1772701792934945000,1.071945068359375,11.246498094689846,-1.6008992189981042,-7.869398327106237
1772701792944993000,1.081992919921875,11.607077957999705,-1.3831398267790673,-7.860766107839345
1772701792955041800,1.092041748046875,12.159730545216798,-1.458281869263947,-7.662945195668935
1772701792965091000,1.102091064453125,12.924460533493756,-1.6623856610961258,-7.3687208417981855
1772701792975140000,1.11214013671875,13.295130413663387,-1.4404269174911082,-7.036160035270452
1772701792985188000,1.12218798828125,12.728937961393594,-1.2371794502273201,-6.292551160955429
1772701792995237000,1.132237060546875,11.92074292539954,-1.3821635290928185,-5.686893544259667
1772701793005286000,1.142285888671875,11.12961008336544,-1.5787110603265464,-5.265921463829279
1772701793015334000,1.152333984375,10.626703816092014,-1.5688532447874546,-5.09741666251421
1772701793025383000,1.1623828125,10.027935958909987,-1.5030423636190593,-4.917438865548372
1772701793035432200,1.17243212890625,9.226682704877852,-1.6724461596004665,-4.856655603283643
1772701793045480000,1.18247998046875,8.68867063743174,-1.6881684832587838,-4.853779171064496
1772701793055529000,1.192529052734375,8.612005330902338,-1.477301042510569,-4.900871761628985
1772701793065578000,1.202577880859375,8.490631698596477,-1.3625614413917064,-4.785854220351577
1772701793075627000,1.212626953125,8.216566920179128,-1.3848279259964822,-4.570557272723317
1772701793085675000,1.222675048828125,7.654368505981564,-1.4073952932439744,-4.366843210861086
1772701793095724000,1.23272412109375,6.825428203600644,-1.2455270073339342,-4.180098403978348
1772701793105773000,1.24277294921875,5.865576040717959,-0.9330052186198532,-3.8872973609089847
1772701793115820800,1.25282080078125,4.938804309660196,-0.6833123726539313,-3.4493636242836714
1772701793125870000,1.2628701171875,3.8692093310326334,-0.46717166767790913,-2.8624662376374004
1772701793135919000,1.272919189453125,2.0503677644640206,0.3016629794389009,-1.685137444999814
1772701793145967900,1.2829677734375,-0.7817910131931305,1.4749612013861537,-0.23761107076704502
1772701793156016000,1.29301611328125,-4.444581699579954,1.8306490548707544,0.8315718199282884
1772701793166065000,1.30306494140625,-8.410873102226853,0.43900764946714044,1.3536153338700532
1772701793176114200,1.3131142578125,-11.516575264775753,0.07151815289929508,3.3534693011492487
1772701793186162000,1.323161865234375,-12.413061163163185,0.994378409601748,8.349093814662098
1772701793196211200,1.333211181640625,-13.596656030458211,1.5542285071074962,13.985731335890293
1772701793206260000,1.343260009765625,-18.191897078061103,2.1815639948651193,17.30695314890742
1772701793216309200,1.353309326171875,-23.250461739611623,2.928626516765356,16.306896985930205
1772701793226357200,1.363357177734375,-24.676183109271523,2.944768381009996,12.968104444909095
1772701793236406300,1.37340625,-23.011364229679106,3.128702514386177,10.29084455254078
1772701793246455300,1.383455322265625,-19.22599345780611,2.9460037680238482,7.938177264299989
1772701793256503300,1.39350341796875,-14.212546871876716,2.496545597821474,6.163195297724008
1772701793266552300,1.40355224609375,-9.363986896765232,1.805883300796151,4.647155359235406
1772701793276601300,1.413601318359375,-5.211396677437424,0.8254410620883107,2.728582083326578
1772701793286650000,1.423650146484375,-1.9125269814819097,-0.06791369866654276,0.8333657176077366
1772701793296698400,1.433698486328125,0.6576537613928317,-0.75312664424479,-0.7297165425628424
1772701793306747100,1.4437470703125,2.3952386019885537,-1.1926353751018643,-2.0338591127336025
1772701793316796400,1.45379638671875,3.5730712524950503,-1.4120203226961194,-2.960870497766137
1772701793326844200,1.46384423828125,4.7661862278074025,-1.601356607376784,-3.594608546042442
1772701793336893400,1.4738935546875,5.936338845205307,-1.7615160435423254,-4.22895683517158
1772701793346942200,1.483942138671875,6.951433002838492,-1.8667476654730737,-4.506397227501869
1772701793356991200,1.4939912109375,7.61466953279972,-1.8508754119500517,-4.316170423722267
1772701793367039200,1.504039306640625,8.038402310115098,-1.7853483161590993,-4.021953084114194
1772701793377088300,1.514088134765625,8.326035595157743,-1.670415092164278,-3.9036499452948568
1772701793387137300,1.52413720703125,8.695267551478743,-1.5430414887912571,-4.01489147516489
1772701793397185300,1.534185302734375,9.166180597642063,-1.4503221424311399,-4.098036206841469
1772701793407234300,1.544234375,9.568031798017024,-1.307348380474746,-4.06086353726685
1772701793417283300,1.554283447265625,9.650002225217223,-1.1129516705993563,-3.8013171135455366
1772701793427331300,1.564331298828125,9.375560430181025,-0.9762987091623246,-3.3986557658314704
1772701793437380400,1.57438037109375,8.772210505905747,-0.7958091632820665,-3.037484950891137
1772701793447429000,1.58442919921875,8.086519567552209,-0.5906344542827456,-2.641213596475124
1772701793457478400,1.594478515625,7.607917135930061,-0.5649998814843594,-2.3166256685227156
1772701793467526100,1.604526123046875,6.9117585795760155,-0.6560249180819839,-2.035370101818442
1772701793477575400,1.614575439453125,5.796620577913522,-0.7037455774169414,-1.6350100167840718
1772701793487624200,1.624624267578125,4.43586063298583,-0.609386501025781,-1.204350070554018
1772701793497672200,1.634672119140625,3.0442326715856787,-0.5317967000626027,-0.677635057669878
1772701793507721200,1.64472119140625,1.8816256472617388,-0.4774903787270188,-0.11719663888216018
1772701793517770200,1.654770263671875,1.0052578232735394,-0.5075872646965086,0.4203939882814884
1772701793527819500,1.664819580078125,0.5840946041852235,-0.6749358086485415,1.0097919595718383
1772701793537867300,1.6748671875,0.25522856052219867,-0.8389844342723488,1.7040496507406233
1772701793547916300,1.684916259765625,-0.1445791513264179,-0.7962676476392895,1.9644944846063852
1772701793557965300,1.69496533203125,-0.5064537306219339,-0.4788938157841563,1.5931389602601527
1772701793568013300,1.705013427734375,-0.5157803618937731,0.004672741051390767,1.051182539102435
1772701793578062300,1.715062255859375,-0.9804016144365072,0.4820381051592528,0.817180306482315
1772701793588111400,1.725111328125,-1.1918033081918955,0.5793823348410427,0.12509703674316405
1772701793598160400,1.735160400390625,-0.46829614166319367,0.41404578829854727,-0.41008185310363765
1772701793608208100,1.7452080078125,-0.019705401945114134,0.3029685090795159,-0.4106470857709646
1772701793618257400,1.75525732421875,0.05091887085437774,0.2194970296666026,-0.034354105022549625
1772701793628306400,1.765306396484375,0.2751701093107462,0.00933013840317726,0.0202080907702446
1772701793638354200,1.775354248046875,0.285935248953104,0.0132290455378592,-0.07093056226968765
1772701793648403200,1.7854033203125,-0.07637070749700069,0.3231426975801587,0.1777116055995226
1772701793658452200,1.7954521484375,-0.854941005077958,0.6273300809301435,0.559611904835701
1772701793668501500,1.80550146484375,-1.8867250162273643,1.0788738252349197,1.059535941427946
1772701793678549200,1.81554931640625,-3.422058853250742,1.749671145839244,2.0747265451729295
1772701793688598300,1.825598388671875,-5.857811836457252,2.607068165767193,3.1624189060270784
1772701793698647300,1.835647216796875,-8.631105168169736,3.0438883881926535,4.004302276611328
1772701793708695300,1.8456953125,-11.112087286156415,3.38021117760241,4.794788637435436
1772701793718744300,1.855744384765625,-12.86992113405466,3.4802751876369116,5.729293593093753
1772701793728793300,1.86579345703125,-14.089846374881267,3.1169030632600188,6.645245239451527
1772701793738841300,1.87584130859375,-14.543853878951072,2.2852144850842655,7.635718750569224
1772701793748890400,1.885890380859375,-14.808434205186366,1.3193059447720645,8.439177405691145
1772701793758939400,1.895939453125,-15.354805520176887,0.4952105251390487,8.931949232441186
1772701793768988400,1.905988525390625,-16.28898606618643,-0.20984080111421644,9.086693219429254
1772701793779036200,1.9160361328125,-17.360628624993563,-0.7631009257704019,9.30688378431797
1772701793789085400,1.92608544921875,-17.949693418806792,-0.9370505484879016,9.794736859366298
1772701793799134200,1.93613427734375,-18.021338266825676,-0.8725085182115435,10.260956779277324
1772701793809183200,1.946183349609375,-17.86481616424918,-0.5426921880863607,10.102282467103004
1772701793819231200,1.956231201171875,-17.235815665888786,-0.6752402714878321,9.095902946323156
1772701793829280300,1.9662802734375,-15.099413878047466,-0.30432993362583216,7.28350105741322
1772701793839329300,1.976329345703125,-11.582736128425598,0.3101339437294751,5.305030654424429
1772701793849377300,1.986377197265625,-7.547755220434069,0.648675212906301,3.3665842187881467
1772701793859426300,1.99642626953125,-3.6037948920607565,0.6339570978544652,1.0981763454675675
1772701793869475300,2.006475341796875,0.2566255678385496,0.6891513810057193,-0.7095131279677153
1772701793879523300,2.0165234375,4.014759373217821,1.1625474030911922,-2.0451088210225103
1772701793889572400,2.026572265625,7.510579628250002,1.2310355406448243,-2.8727403788924217
1772701793899621400,2.036621337890625,10.616465330672263,0.7866087887383997,-3.6505344314038752
1772701793909670400,2.04667041015625,13.202182080852985,-0.01260229194164276,-4.514187735247612
1772701793919718100,2.05671826171875,15.277489640784262,-0.9423498239398002,-5.466241791599988
1772701793929767400,2.066767333984375,16.326360395812987,-1.7133271821737288,-5.8895548821985715
1772701793939816200,2.076816162109375,16.66166085643768,-2.4285928823187946,-6.084501700237393
1772701793949865200,2.086865234375,17.206033106565474,-3.2698765334442257,-6.542897210133075
1772701793959913200,2.096913330078125,17.677915290021897,-4.10873763359785,-6.362828227752447
1772701793969962200,2.106962158203125,18.34279958719015,-4.653231464278698,-6.144702194178104
1772701793980011300,2.11701123046875,19.024915589666364,-4.881268651014566,-5.867032669267058
1772701793990059300,2.127059326171875,18.980854329621792,-4.800962942156195,-5.5089381930321455
1772701794000108300,2.1371083984375,17.96013882497549,-4.364594262890518,-5.051924492883682
1772701794010157300,2.1471572265625,16.384604494988917,-3.977567122159898,-4.654646591773629
1772701794020205300,2.157205322265625,14.309610238790512,-3.4736750587195155,-4.146038313466311
1772701794030254300,2.16725439453125,12.32755730113983,-2.7217732800945638,-3.3940994177013635
1772701794040303000,2.17730322265625,10.543179145187139,-2.1769179226249453,-2.9037931042820215
1772701794050352400,2.187352294921875,9.198239869725704,-1.791543517537415,-2.7976567885965107
1772701794060400000,2.197400146484375,8.014710468882322,-1.3963567434877155,-2.681481893977523
1772701794070449400,2.207449462890625,6.92159666750133,-0.8379211889550089,-2.5593261713832614
1772701794080498200,2.217498291015625,5.831614149883389,-0.4132170823894441,-2.464098203203082
1772701794090546400,2.22754638671875,4.697830484461784,0.052674336219578975,-2.4429034394830462
1772701794100595200,2.23759521484375,3.8429239661753174,0.2832438179120421,-2.595773449292779
1772701794110644200,2.247644287109375,3.3426772734999655,0.4313986357681453,-3.0301398488253355
1772701794120693200,2.257693359375,2.877420645663142,0.42082858030647036,-3.1517233244895935
1772701794130741200,2.2677412109375,1.8026222531735896,0.3792357562020421,-3.21551219831109
1772701794140790300,2.277790283203125,0.7772106996655463,0.1167411501996219,-3.0278941157251595
1772701794150839300,2.28783935546875,-0.0635515579342842,-0.07639189641550183,-1.6921844409018754
1772701794160887300,2.29788720703125,-0.8826303915143012,0.24245851079821584,-0.011579963156580924
1772701794170936300,2.307936279296875,-1.9890520027577876,0.6819147808156907,0.8412216918051242
1772701794180985000,2.317985107421875,-3.3209201997220514,0.7722431403860449,1.4025281255990265
1772701794191034400,2.328034423828125,-4.652473923909664,0.6761882198624313,2.1556594460189342
1772701794201082000,2.33808203125,-6.331245341008901,0.4664642500609159,3.7680806143760677
1772701794211131400,2.34813134765625,-8.533729666566849,0.579105855987221,5.948581656184792
1772701794221180200,2.35818017578125,-11.303211915558576,1.1750156933896243,7.573912574997544
1772701794231228400,2.368228515625,-13.620814320158958,2.0406869129270313,9.016008740875124
1772701794241277200,2.378277099609375,-14.493418992221354,2.616987502235174,10.64940781533122
1772701794251326200,2.388326171875,-14.396173254477977,2.8773826517403123,11.519493198049068
1772701794261375200,2.398375244140625,-13.80356158183813,2.9655004956543443,11.261274808061122
1772701794271423200,2.40842333984375,-12.679163584399223,2.9191382651910183,9.425344744047521
1772701794281472300,2.41847216796875,-10.981475869905948,2.335890340963006,6.699003717646002
1772701794291521300,2.428521240234375,-8.279523434829711,1.3101296817563473,3.9615462539464232
1772701794301569300,2.4385693359375,-5.772188731968402,0.471966792999953,1.9048416876763103
1772701794311618300,2.448618408203125,-3.5802737312197683,-0.0014599895499646663,0.2931692918598652
1772701794321667000,2.4586669921875,-1.4857693033874033,-0.3916900179751217,-1.1637427503556013
1772701794331716400,2.46871630859375,0.5030962368875742,-0.8020239461436868,-2.366000817066431
1772701794341764000,2.47876416015625,2.122679551959038,-1.102120845309645,-3.1974282600879667
1772701794351813400,2.4888134765625,3.3443297168821093,-1.3971937788337467,-3.7113708851605653
1772701794361862100,2.498862060546875,4.448487474846839,-1.5039970339953899,-4.088968518766761
1772701794371910400,2.508910400390625,5.399032295680046,-1.4600827812060713,-4.308672761443257
1772701794381959200,2.518959228515625,6.068719024693966,-1.256321226940304,-4.353797266805172
1772701794392008200,2.52900830078125,6.453508031108975,-1.0387646638169885,-4.621551546901464
1772701794402057200,2.53905712890625,6.744133483704924,-0.7243349956549704,-4.819520343109965
1772701794412105200,2.549105224609375,6.8463669467329975,-0.45640418994799253,-4.633902494430542
1772701794422154200,2.559154296875,6.597609628051519,-0.28849121704623104,-4.584195921975374
1772701794432203300,2.569203369140625,6.363392875897884,-0.11981281272992492,-4.65816833615899
1772701794442251300,2.579251220703125,6.1095835345238445,-0.07374035899341105,-4.4680864938080305
1772701794452300300,2.58930029296875,5.819920204958319,0.07125811372362077,-3.8414708447575565
1772701794462349000,2.59934912109375,5.869349714037775,0.488240393865481,-3.744665836519003
1772701794472398300,2.6093984375,5.648726602950692,0.8175938557192682,-3.282842690262198
1772701794482446000,2.619446044921875,5.1381461477875705,0.8682412161558866,-2.294119822204113
1772701794492495400,2.629495361328125,4.466214854717254,0.7581254754453897,-1.3656407027065753
1772701794502544100,2.639544189453125,3.6377614590704437,0.3273259015489369,-0.23976386488676069
1772701794512593200,2.64959326171875,2.3555612561166286,0.2164219330701977,0.7936994776517152
1772701794522641200,2.65964111328125,0.8268716794133186,0.8586430014010519,1.628791872921586
1772701794532690200,2.669690185546875,-0.7964408853143453,1.942644910239428,2.312325925502181
1772701794542739200,2.6797392578125,-2.3220658137500285,3.0506343553215265,2.2097569469094274
1772701794552787200,2.689787109375,-3.2596348331540823,3.1830408382952213,1.0824281567156315
1772701794562836200,2.699836181640625,-3.2062954571545124,1.967964644934982,-0.5247065956711768
1772701794572885200,2.70988525390625,-2.869863946673274,1.5192162304371595,-0.6359878730297088
1772701794582934000,2.71993408203125,-2.794645916342735,1.8597503539316356,0.17417057199180125
1772701794592982300,2.729982177734375,-3.1664602903723713,1.4646975815251468,0.19518588749170301
1772701794603031000,2.740031005859375,-2.737338221234083,0.8644741187073289,-0.41742753969132895
1772701794613080300,2.750080322265625,-2.03089792484045,0.7854181176491081,-0.9205705383300781
1772701794623128000,2.760128173828125,-1.312622813746333,0.6477890777215362,-1.047047631254792
1772701794633177300,2.77017724609375,-0.41172552865743633,0.49944239055514333,-1.6870020698279142
1772701794643226000,2.78022607421875,0.09811492179334164,0.5556292649403214,-2.1880285147041083
1772701794653275100,2.790275146484375,0.050633039650321,0.6395959805242717,-1.9675129556447266
1772701794663323100,2.8003232421875,-0.09286533070206641,0.6991502855159342,-1.480174844381213
1772701794673372200,2.8103720703125,-0.2912719338059425,0.6473401649102568,-0.5481190354406833
1772701794683421200,2.820421142578125,-0.6400356871157884,0.6715567606694995,0.8185241223067045
1772701794693469200,2.83046923828125,-1.2134721191644668,0.898218055942282,1.9774013124525547
1772701794703518200,2.840518310546875,-3.0073949330538507,1.2563218114621937,3.344744727423787
1772701794713567200,2.850567138671875,-6.057990709930658,1.2122631087008864,4.68670469481349
1772701794723616300,2.8606162109375,-9.921293447268008,1.0111856789525597,5.9459191589772695
1772701794733664300,2.870664306640625,-13.044106319093704,0.5314725826747715,6.434720328530669
1772701794743713000,2.880713134765625,-15.017613546717167,-1.0662622540082782,6.389335126405954
1772701794753762300,2.89076220703125,-16.495221755480767,-2.8840578917205333,7.267411507877707
1772701794763810000,2.90081005859375,-17.707945686626434,-3.0170258079692718,8.149626304328441
1772701794773859300,2.910859375,-18.300104939323663,-1.8231468625470995,7.914825614807009
1772701794783908000,2.920908203125,-18.20384002931118,-1.252626025684178,7.908851801094412
1772701794793957000,2.93095703125,-16.727765605986118,-1.3374533036202192,7.821817076241969
1772701794804005000,2.941005126953125,-14.2659137204051,-1.6597890687316654,6.852358296102285
1772701794814054100,2.95105419921875,-11.956549567317962,-1.7784744848668574,5.546413644945621
1772701794824103400,2.961103515625,-9.595258243116735,-1.7895405071519315,4.908271808752417
1772701794834151200,2.971151123046875,-7.288098906597495,-1.940732793007791,4.431979407638311
1772701794844200200,2.9812001953125,-4.94705892778635,-2.102308817972988,3.5931811435878274
1772701794854249200,2.991249267578125,-2.5079922899872065,-2.190713369873911,2.308985382902622
1772701794864298200,3.00129833984375,-0.33240649274885653,-1.6473852219715714,1.1896955222576855
1772701794874346200,3.01134619140625,1.8465122483044862,-0.7733758707430213,0.6503975066542625
1772701794884395300,3.021395263671875,4.29137734324932,-0.10868958036489784,0.48889352401196956
1772701794894444300,3.0314443359375,6.753869864821434,0.5798453492429108,-0.37787937315702436
1772701794904492000,3.041491943359375,9.112908441659808,0.678248513393104,-1.727708174225688
1772701794914541300,3.051541259765625,10.731609128677844,0.04601911611407995,-3.0692127990633247
1772701794924590300,3.06159033203125,11.522224084317683,-0.5842622158370911,-3.9082945562303064
1772701794934639000,3.07163916015625,11.992427520906924,-0.9435058621071278,-4.534433235418796
1772701794944687000,3.08168701171875,12.37237376346588,-0.9033923167750239,-5.0374920629054305
1772701794954736000,3.091736083984375,12.954736429291962,-0.7237766311198472,-5.487767979231476
1772701794964785400,3.101785400390625,13.687882361781597,-0.5422670945420861,-6.06716302742362
1772701794974834200,3.111834228515625,13.969144942748546,-0.4552980553369969,-6.274184898659587
1772701794984882400,3.12188232421875,13.878900608199833,-0.3115053782131523,-6.242108090919256
1772701794994931200,3.13193115234375,14.002348124170302,-0.2572729988966137,-6.307474004799127
1772701795004980200,3.141980224609375,14.226075046491623,-0.20996859221234918,-6.800153477090597
1772701795015028200,3.1520283203125,14.187173945689201,-0.16490093160420655,-7.175851414555311
1772701795025077200,3.1620771484375,13.783070582473277,-0.27105653651207684,-7.550355173799395
1772701795035126300,3.172126220703125,13.11373456659317,-0.4136203294280916,-7.805998160341382
1772701795045175300,3.18217529296875,12.015988429236412,-0.48913734270520504,-7.092088258719444
1772701795055223300,3.192223388671875,10.28461354919672,-0.2629359200291335,-6.083080143001675
1772701795065272300,3.202272216796875,8.888627977108955,-0.03901142930909991,-5.640457371777296
1772701795075321000,3.212321044921875,7.62927322769165,-0.146393141945824,-5.403609102076292
1772701795085369300,3.222369384765625,6.683763478416204,-0.27039156979732215,-5.234110613548755
1772701795095418000,3.232418212890625,6.0525569944441315,-0.39052112032622094,-5.072651054570079
1772701795105467400,3.24246728515625,5.597742265644669,-0.5656988235339522,-4.9997249345690005
1772701795115516200,3.25251611328125,5.354958176153898,-0.7351552264854312,-5.043255448737741
1772701795125564400,3.262564453125,5.28011248626709,-0.7589969245176762,-4.556625778004527
1772701795135613200,3.27261328125,4.719843578827381,-0.47668527288921175,-3.327461584189534
1772701795145662200,3.282662109375,3.106978173834085,0.24763255243524906,-1.6327297968924044
1772701795155710200,3.292710205078125,0.7612883233904838,1.1565972625151275,0.1641822619408369
1772701795165759200,3.30275927734375,-1.5961638610392808,1.7446641313321887,1.8193559458315371
1772701795175808300,3.312808349609375,-3.7673265811383723,1.6201760202676057,3.490634376826882
1772701795185857300,3.322857177734375,-5.83909076937437,1.2982592112205922,5.515047031301259
1772701795195905300,3.3329052734375,-8.060550429037212,1.0704412201933562,7.576781992954015
1772701795205954300,3.342954345703125,-10.656430261313915,0.5847080599084497,9.521629527804254
1772701795216003000,3.353003173828125,-13.4231208337605,0.23220789654925464,11.51531386653781
1772701795226051000,3.363051025390625,-17.752794882178307,0.5673877995342016,14.521824417972564
1772701795236100000,3.37310009765625,-22.049879497158525,2.296544126741588,17.487349463546273
1772701795246149000,3.383149169921875,-20.928287204790113,2.5535966878205536,15.882527079755066
1772701795256198100,3.3931982421875,-17.4260132435739,3.308807152602076,12.832104905879497
1772701795266246100,3.40324609375,-14.828968459171056,3.3807717340946195,8.895503708097339
1772701795276295200,3.413295166015625,-11.027980431449413,2.6249036821871994,5.582916452434659
1772701795286344000,3.423343994140625,-7.023101231732964,1.8094053374424575,2.6221809792250395
1772701795296393200,3.433393310546875,-5.044833073318005,0.43185646253824234,0.11170564025044441
1772701795306441000,3.44344091796875,-3.3254572586297986,-0.16056874761879444,-1.2243395501375198
1772701795316490200,3.453490234375,-1.6654297049671412,0.384973569201678,-1.624312097159028
1772701795326539000,3.4635390625,-0.5271633411735296,0.5714351752288639,-1.4129413830637931
1772701795336587300,3.473587158203125,0.8544833244383334,0.6115992817044258,-1.1580448309749365
1772701795346636000,3.483635986328125,2.4173019652366636,0.576735327463597,-1.3605267206937073
1772701795356685000,3.49368505859375,3.874323897567391,0.3952721142455935,-1.7965280279517173
1772701795366734000,3.503734130859375,5.2385161550313235,0.26422201431691644,-2.3071295259028672
1772701795376782000,3.513781982421875,6.266939749836921,0.03416267410367727,-3.0630005004197356
1772701795386831000,3.5238310546875,6.937268868407607,-0.3538465364668518,-3.856436943221092
1772701795396880100,3.533880126953125,6.9774775446772574,-0.7027109736721963,-4.549548386964202
1772701795406928100,3.54392822265625,6.741478585281968,-0.8951745965931565,-5.196603012931346
1772701795416977200,3.55397705078125,6.577600859245657,-0.9316153716966509,-5.372680879849195
1772701795427026000,3.56402587890625,6.5266416563808916,-0.9678221919137984,-5.165494757962226
1772701795437075200,3.5740751953125,6.472475766429305,-0.9230445272281765,-4.892734632402658
1772701795447123000,3.584123046875,5.942836975052953,-0.2809942854195833,-4.167839226385951
1772701795457172200,3.594172119140625,5.635454448923468,0.5133223012171685,-3.1171126143574712
1772701795467221000,3.604220947265625,5.723401612445712,0.6927749052651226,-2.6534628371953963
1772701795477269200,3.614269287109375,5.779822587847709,0.4969319421041757,-2.7594705580651757
1772701795487318000,3.624318115234375,5.713043884560466,0.3787856012817472,-3.0096394971102476
1772701795497367000,3.634366943359375,5.621712923818826,0.3756442345160991,-3.204000039693713
1772701795507416000,3.644416015625,5.581845023810863,0.2905048949562013,-3.2873493540316816
1772701795517464000,3.654464111328125,5.208039183703065,0.08370682253874838,-2.877234183180332
1772701795527513000,3.66451318359375,4.4088072063654655,0.013833806497976183,-1.8322551748931406
1772701795537562000,3.67456201171875,3.270769390630722,0.3497024954646826,-0.5756681366235017
1772701795547611100,3.684611083984375,1.4765449634462595,1.1113633054293692,0.5345739096909761
1772701795557659100,3.6946591796875,-1.3186229309439659,2.1685474230341613,1.419398011857271
1772701795567708000,3.7047080078125,-3.5285365297198292,2.9852678569197653,1.8784996241956948
1772701795577757200,3.714757080078125,-4.458006998342276,3.533656356951594,1.4280553655654191
1772701795587805000,3.724804931640625,-3.3792297653496264,3.9592727560564875,0.5844084924399853
1772701795597854200,3.734854248046875,-1.530340266519785,3.549353107777238,-0.07485036606192588
1772701795607903000,3.744903076171875,-0.9873948343247174,2.638539993351698,-0.7111679094374179
1772701795617952000,3.754951904296875,-1.017258057668805,1.382181064749509,-1.4337059386730193
1772701795628000000,3.765,-0.7220879473805427,0.17872209781631826,-2.2756682197123763
1772701795638049000,3.775049072265625,-0.6613771658301353,-0.5232232252456247,-2.9733231521040198
1772701795648098300,3.785098388671875,-0.9028402358502149,-0.033825843364745374,-3.2223931899964806
1772701795658146000,3.79514599609375,-1.00113519038558,0.5827423127934336,-2.6840397617667913
1772701795668195000,3.805195068359375,-0.9497194759249686,0.5514689303904772,-2.0834253999352454
1772701795678244000,3.815244140625,-0.9045254124581813,0.22671631339564918,-1.691851263424754
1772701795688293000,3.825293212890625,-0.8232903137952089,-0.26404315061867234,-1.4151128818839787
1772701795698341000,3.835341064453125,-0.4106950165659189,-0.8650630245111882,-1.3377157539486884
1772701795708390100,3.84539013671875,-0.09831716636717319,-1.4655423617862164,-0.7220674891144037
1772701795718439200,3.855439208984375,-0.5293985528796911,-1.852969169358909,0.28901275670230386
1772701795728488200,3.86548828125,-2.168142495495081,-1.573315192632377,1.6179530835211275
1772701795738536200,3.8755361328125,-4.0807080554217094,-0.27859818406328557,2.754775678247213
1772701795748585200,3.885585205078125,-5.31446483772397,1.5423114209510385,3.5517613379627466
1772701795758634000,3.895634033203125,-6.536947946339845,2.631885211637616,3.6029391520142555
1772701795768682000,3.905681884765625,-7.719957122701406,2.0224143202640117,2.515720253890753
1772701795778731000,3.91573095703125,-8.234660210752487,0.31175182725489137,2.076594677132368
1772701795788780300,3.9257802734375,-7.843858812180161,-0.9221712515249848,3.2332711423635483
1772701795798829000,3.9358291015625,-7.113067333862185,-1.4839942565388977,4.568464684358239
1772701795808877300,3.945877197265625,-7.02506697884798,-2.3517831988826394,5.670349236693978
1772701795818926000,3.955926025390625,-7.6906567939370865,-3.2804473195582626,6.837081816515326
1772701795828975000,3.96597509765625,-10.082000726574659,-3.2708506391733883,7.972648858222365
1772701795839023000,3.976023193359375,-13.367772456026076,-2.662271582072973,8.839230032211542
1772701795849072000,3.986072021484375,-15.530155072820186,-2.7390441483691332,9.527630814045667
1772701795859121200,3.99612109375,-16.064892064118386,-3.4588299562871456,10.148324087309836
1772701795869170200,4.006170166015625,-15.618265902471542,-3.884669935014844,10.263649087101221
1772701795879218200,4.01621826171875,-14.388404958564042,-3.1661990090876815,9.662680505004525
1772701795889267200,4.02626708984375,-13.685317479729651,-1.654909479996562,8.108465441900492
1772701795899316000,4.03631591796875,-11.997701077395677,-0.8879139579404145,6.161330088374019
1772701795909365200,4.046365234375,-8.803692270362376,-0.7315976070690899,4.678086504071951
1772701795919413000,4.0564130859375,-5.798170729964971,-0.11298771595023571,3.5616818434745072
1772701795929462300,4.066462158203125,-3.5934225511282682,0.9600050884220749,2.880451391661167
1772701795939511000,4.076510986328125,-1.5428180552989244,1.6963855458535253,2.1543290741980075
1772701795949559300,4.086559326171875,0.6182341896742582,2.112641703677922,1.444143161535263
1772701795959608000,4.096608154296875,2.961627453613281,2.5673306141406296,0.6356032576262951
1772701795969657000,4.106656982421875,5.141408948975801,2.972185380245745,-0.22670447682738304
1772701795979706000,4.1167060546875,7.298453127351403,3.094876232630014,-0.8629805191487073
1772701795989754000,4.126754150390625,9.264224207764864,2.78934021115005,-1.8069716805547476
1772701795999803100,4.13680322265625,10.673072768557072,2.2380004600971937,-2.905066192957759
1772701796009852200,4.14685205078125,11.74668516613245,2.056001824828237,-3.7803660954535006
1772701796019901000,4.15690087890625,12.345707874858379,1.8976096905961632,-4.327194506561756
1772701796029949200,4.16694921875,12.671655985248089,1.6490858884096145,-4.733456509116292
1772701796039998000,4.176998046875,12.842740866184235,1.3800249096289277,-5.412671529453992
1772701796050047200,4.187047119140625,12.962862452602385,0.8921572215333581,-5.944444410249591
1772701796060095000,4.197094970703125,13.134425472444295,0.6482463199697435,-6.524135811039805
1772701796070144300,4.207144287109375,13.277316524553298,0.7164095364179461,-7.090839719963073
1772701796080193000,4.217193115234375,13.2704530685246,0.8523048844207077,-6.875092105957865
1772701796090242000,4.227241943359375,13.294122697925566,0.9193643043454736,-6.808940010136365
1772701796100290000,4.2372900390625,13.310571143901347,0.9713537270408124,-7.100439907479286
1772701796110339000,4.247339111328125,12.838677270007132,1.2087607266031204,-7.123259057530761
1772701796120388000,4.25738818359375,11.933879470348357,1.3849233491949737,-6.774725605845451
1772701796130436000,4.26743603515625,10.744947918200491,1.2925807271927594,-6.671440587937831
1772701796140485000,4.277485107421875,9.56136298777759,0.940854324685037,-6.622044981127977
1772701796150534100,4.2875341796875,8.600684310942889,0.3420116121685132,-6.63796677288115
1772701796160583000,4.2975830078125,7.93670134652853,-0.10937533413935452,-6.715505355113744
1772701796170631200,4.307631103515625,7.6683590374112125,-0.1922773796338588,-6.620082741144299
1772701796180680000,4.317679931640625,7.762839986616372,-0.04677574316766113,-6.231777251040935
1772701796190729200,4.327729248046875,7.985478529179096,-0.1348786087082699,-5.72911122226417
1772701796200778000,4.337778076171875,8.09317318022251,-0.3772686939127743,-5.411448125138879
1772701796210826200,4.347826171875,7.953234548178314,-0.3932158027702942,-5.085391293677687
1772701796220875000,4.357875,7.3786623900979755,-0.18944822062253952,-4.582032606461644
1772701796230924000,4.367924072265625,6.2499009367525575,-0.23672508171275256,-4.271010262525081
1772701796240972000,4.377971923828125,4.92788660980463,-0.6686629389241338,-3.60414268258512
1772701796251021000,4.38802099609375,3.5319530601650473,-0.9786784439057111,-2.686701674452424
1772701796261070000,4.398070068359375,2.1254478476285934,-1.2030593731563537,-1.1379361089259385
1772701796271119000,4.408119140625,0.14713234294056893,-1.5446550614677368,1.248520636191964
1772701796281167000,4.4181669921875,-3.454746486365795,-2.187639369256049,4.66807189053595
1772701796291216100,4.428216064453125,-11.300468169808386,-2.5801848350167274,10.713885255938768
1772701796301265000,4.438264892578125,-23.93615735414028,0.7312294313438237,23.81373508956432
1772701796311314200,4.448314208984375,-36.6318418652296,7.856735244888067,35.12471062486171
1772701796321362000,4.45836181640625,-34.69818967813253,10.188531010013818,26.15437817801237
1772701796331411200,4.4684111328125,-28.1601019141078,6.480400714209676,17.25233191640377
1772701796341460200,4.478460205078125,-22.908619309997558,2.436098435643315,8.959924450081587
1772701796351508200,4.48850830078125,-17.80692862342596,-2.081394770890474,2.5388293267995117
1772701796361557000,4.498556884765625,-11.015813023793697,-2.5808143650919195,-0.9645505498319864
1772701796371606000,4.50860595703125,-5.784797453650832,-1.6850566348485647,-3.102691290295124
1772701796381655300,4.5186552734375,-3.0603783352226017,-0.9972111488096416,-3.613178806477785
1772701796391703000,4.528703125,-1.889338413596153,0.21146949829459188,-2.6923966712236402
1772701796401752300,4.53875244140625,-0.9896014044582844,0.6433657083213329,-1.4979752894878386
1772701796411801000,4.548801025390625,0.323850845849514,0.8625263456404209,-1.1020616624683142
1772701796421850000,4.55885009765625,1.6946347566634417,1.1859424533344805,-1.4482219552814959
1772701796431898000,4.568898193359375,2.9777094043642283,1.3755430880397557,-2.2818191435575486
1772701796441947100,4.578947021484375,4.187144815358519,1.4651723594300448,-3.040657151186466
1772701796451996200,4.58899609375,5.101882409751415,1.5257619988188147,-3.8989749392211435
1772701796462044000,4.5990439453125,5.617320826339721,1.6101438710749147,-4.625758935463428
1772701796472093200,4.60909326171875,5.705793475040793,1.542930575762689,-5.153896674627066
1772701796482142200,4.61914208984375,5.764481226330995,1.079597171073407,-5.4136096870869395
1772701796492191000,4.62919091796875,5.926314879319071,0.400732863869518,-5.555272658705711
1772701796502239200,4.6392392578125,6.019755964082479,-0.2724564664378762,-5.64699583363533
1772701796512288000,4.6492880859375,5.936026125994324,-0.8476590313762425,-5.439329819276929
1772701796522337300,4.659337158203125,5.839340944743156,-1.3155616436772049,-5.259534977662563
1772701796532385000,4.669385009765625,5.632462865892053,-1.6104665271580219,-5.055145208495855
1772701796542434300,4.679434326171875,5.3390416450977325,-1.8975787109360098,-4.968777423119545
1772701796552483000,4.689483154296875,4.759373625183105,-2.108778452378511,-4.536371510004997
1772701796562532000,4.699531982421875,3.7755554803013798,-1.3957741212941706,-3.7773283351927995
1772701796572580000,4.709580078125,3.156822693455219,-0.5528349580466747,-3.2852123420029877
1772701796582629000,4.719629150390625,2.4843285058051348,-0.6257127088613808,-2.5035791497200726
1772701796592678100,4.72967822265625,1.8345418245255947,-0.7561109207525849,-1.5965110670417546
1772701796602727200,4.73972705078125,1.5626806936323643,-0.4908174778118729,-0.34922377203702926
1772701796612775200,4.749775146484375,0.8408020050883293,0.13608195661604403,1.63176825838387
1772701796622824200,4.75982421875,-0.6586503712147473,0.9001775925122201,3.329281785354018
1772701796632873000,4.769873046875,-2.297535768127441,0.9791692961625754,4.065677659550309
1772701796642921200,4.779921142578125,-3.2574925604283806,0.6592622195027769,3.853484523156285
1772701796652970000,4.789969970703125,-3.366779449099302,0.3075878394432366,3.187615891125798
1772701796663019300,4.800019287109375,-2.7307231870085,0.09313464916273952,2.079826498660445
1772701796673068000,4.810068115234375,-1.7905787641584872,-0.18557897797375916,0.5254249730736017
1772701796683116300,4.8201162109375,-0.6298153218746185,-0.5960578675709665,-1.088596616217494
1772701796693165000,4.8301650390625,0.3922048356294632,-0.8373227846704423,-2.082773073506355
1772701796703214000,4.840214111328125,0.9215753314584493,-0.6597469342797995,-2.3002415199548003
1772701796713263000,4.85026318359375,1.2694576257586478,-0.6973378292664885,-1.8883201764643192
1772701796723311000,4.86031103515625,1.4961311229258776,-0.781151107854396,-1.6447534121632574
1772701796733360000,4.870360107421875,1.8593033408164976,-0.5843104388929903,-1.5514245556026696
1772701796743409200,4.8804091796875,2.2892326346844434,-0.19310338212922215,-1.4682137729525566
1772701796753458000,4.8904580078125,2.7704648302882906,0.1313729752074927,-1.4051970525473356
1772701796763506200,4.900506103515625,3.248092863920331,0.29183797019086777,-1.5811767197877167
1772701796773555000,4.910554931640625,3.4930168880492447,0.40137554568722844,-1.699016917270422
1772701796783604200,4.920604248046875,3.494679852825403,0.5226118153490126,-1.749219164288044
1772701796793652000,4.93065185546875,3.489714923894405,0.5193665498174727,-1.814548253288865
1772701796803701200,4.940701171875,3.181314160633087,0.4055037315331399,-1.7426619977295397
1772701796813750000,4.95075,2.4175135621607304,0.2173752882722765,-1.123464515981078
1772701796823799000,4.960799072265625,1.1070809519350528,0.16498312999494372,-0.2467255205929279
1772701796833847000,4.970846923828125,-0.8609399532318115,0.3255643717691302,0.9317004196316003
1772701796843896000,4.98089599609375,-3.216879395011067,0.42451596358232196,2.490533205664158
1772701796853945000,4.990945068359375,-6.055690031772851,0.914213351323083,4.113323792344332
1772701796863994000,5.000994140625,-9.276047332027554,1.7353167495332658,5.279413398087025
1772701796874042000,5.0110419921875,-12.407322327250242,2.3773411262482402,5.850758410814404
1772701796884091100,5.021091064453125,-14.716877034473418,2.5576179061606523,5.8122542003750794
1772701796894140000,5.031139892578125,-15.970889253818989,2.161712608578056,5.671112037760019
1772701796904188200,5.041188232421875,-16.55791523528099,1.6155089052394032,6.254948283270001
1772701796914237000,5.05123681640625,-16.817059507942197,1.1833948877435176,7.191690788722038
1772701796924286200,5.0612861328125,-17.04397441264987,1.091541510562971,7.94492498499453
1772701796934335200,5.071335205078125,-17.446769615876672,1.0951342743579298,8.34519330009222
1772701796944383200,5.08138330078125,-17.7777948834002,0.9511046466730535,8.57800076996982
1772701796954432000,5.091431884765625,-17.21909600175619,0.855809166214615,8.203849477425218
1772701796964481000,5.10148095703125,-15.694185943591593,0.8188257356017827,6.841898276886344
1772701796974530300,5.1115302734375,-13.406755389893053,0.715247799162194,5.070019537022709
1772701796984578000,5.121578125,-10.409528215110301,0.7003304352112114,3.518950955250859
1772701796994627300,5.13162744140625,-7.127981994399428,0.7299864455454051,2.362298455417156
1772701797004676000,5.141676025390625,-3.9866865404218434,0.8215288570806384,1.1617390093177555
1772701797014724000,5.15172412109375,-0.8414759588271379,0.7393177529923617,-0.023550971457362173
1772701797024773000,5.161773193359375,2.1230267579615116,0.7922350311223417,-0.8125853799074888
1772701797034822100,5.171822265625,4.713035652378201,1.029487497710064,-1.4115999053269623
1772701797044871200,5.18187109375,7.007191130417585,1.2154028680313378,-1.8756313752830027
1772701797054919000,5.1919189453125,8.936652295565604,1.4338706277154385,-2.6329730068743227
1772701797064968200,5.20196826171875,10.54465330939293,1.4704362713076173,-3.6526579994291066
1772701797075017200,5.212017333984375,11.897300090491772,1.130195212475583,-4.3365708221942185
1772701797085066000,5.22206591796875,12.794269973003864,0.9607019115798174,-4.495039382663369
1772701797095114200,5.2321142578125,13.38235043195486,0.7420761117897927,-5.056621710789203
1772701797105163000,5.2421630859375,13.853888916540145,0.4273071286708116,-5.399637275835872
1772701797115212300,5.25221240234375,14.258497306668758,0.19758209844585506,-6.0853732223749155
1772701797125260000,5.262260009765625,14.762072266983985,-0.1261565922660753,-7.204789339748024
1772701797135309300,5.272309326171875,15.304957493424414,-0.3447550291251391,-8.057370045435428
1772701797145358000,5.282358154296875,15.690620360064505,-0.33546131374221294,-8.17120626797378
1772701797155407000,5.292406982421875,15.78621306990385,-0.3219937832733616,-8.42188023393154
1772701797165455000,5.302455078125,15.745570093870162,-0.24292276730909942,-8.810802394628524
1772701797175504100,5.312504150390625,15.173722976839542,0.01039049764368683,-8.900490848860144
1772701797185553200,5.32255322265625,15.122110863023995,-0.026485928930714726,-8.955624122539161
1772701797195602200,5.332602294921875,13.457800517475604,0.2870901546092704,-8.498232236728072
1772701797205650200,5.342650146484375,11.89241816366911,0.18148023741804062,-8.327350769409536
1772701797215699200,5.35269921875,10.605770918178557,-0.011346848520450294,-7.775849105793237
1772701797225747700,5.362747802734375,9.647553078499437,0.0602098097583279,-7.143722584366798
1772701797235796000,5.3727958984375,8.729525210389495,0.2508662005942315,-6.765214850178361
1772701797245844700,5.3828447265625,7.91415399915576,0.37938006004355845,-6.264765328407287
1772701797255894000,5.39289404296875,7.2694292774409055,0.3208180540248751,-5.847780271786451
1772701797265942800,5.40294287109375,6.646805328375101,0.16871398708634078,-5.465763652694225
1772701797275991000,5.412990966796875,6.029834290504455,0.03470423363447189,-4.934367788517475
1772701797286039800,5.423039794921875,5.108371771770716,0.13064217671491204,-4.105927252352237
1772701797296088800,5.4330888671875,3.9184523776292797,0.4565728975784033,-3.4676959843099113
1772701797306137900,5.443137939453125,2.731508199906349,0.5026346837904304,-2.9328520255059
1772701797316185900,5.453185791015625,1.7894272560358047,0.04127265223935246,-2.057946675285697
1772701797326235000,5.46323486328125,0.7230044777035712,-0.530576875944063,-0.8847329167515039
1772701797336284000,5.473283935546875,-0.9472598078131675,-0.7089702532626688,0.5570616358309984
1772701797346332000,5.483331787109375,-3.006533932310343,-0.6606444676414132,2.1112831286758182
1772701797356381000,5.493380859375,-5.337762126681208,-0.550131105915457,3.5506478237628936
1772701797366429700,5.5034296875,-8.324931433308125,-0.308184782423079,5.071207870024442
1772701797376479000,5.51347900390625,-11.658796454799175,-0.16148951572552322,7.627865114459395
1772701797386526700,5.523526611328125,-16.364524999034405,0.1337634505406022,11.436211688250303
1772701797396576000,5.533575927734375,-20.797583434081076,2.0055726371869445,14.712482598906755
1772701797406624800,5.543624755859375,-20.750358741569517,4.401205206929147,17.954141630387305
1772701797416673800,5.553673828125,-17.18336300959587,4.853730948008597,19.59400960859656
1772701797426721800,5.5637216796875,-13.266271398925781,2.935198296371102,15.388139634501933
1772701797436770800,5.573770751953125,-10.758969429290294,-0.12943287399038672,9.747121121710538
1772701797446819800,5.58381982421875,-9.259237067002058,-1.8509163284823298,5.383408025568723
1772701797456868900,5.593868896484375,-7.718660653150081,-0.5416051235020161,1.6599737776488064
1772701797466916900,5.603916748046875,-7.220208442676067,0.06323854646235703,0.6351847399532795
1772701797476966000,5.6139658203125,-7.145045941925049,-0.35505686210468407,0.9010779023528098
1772701797487014700,5.6240146484375,-6.28712095260024,-0.25563480323553084,0.4072521826356649
1772701797497063000,5.63406298828125,-4.291161654672027,0.21403452647700905,0.26157237659096716
1772701797507111700,5.644111572265625,-2.312847903549671,0.4606747068740427,0.23478140029907224
1772701797517161000,5.654160888671875,-0.3973696710467338,0.3837513339303434,0.1759761601090431
1772701797527209700,5.664209716796875,1.642040646073222,0.13908844495564698,-0.34110651655495167
1772701797537258000,5.674258056640625,3.634778643867373,-0.2598955294199288,-1.0883511170238256
1772701797547306800,5.684306640625,5.186237686261534,-0.6218959270521998,-1.734580398082733
1772701797557355800,5.694355712890625,5.853410386627912,-0.6247510242223739,-2.110929492932558
1772701797567405000,5.704405029296875,6.012234920927882,-0.26022943754941225,-2.530745973587036
1772701797577452800,5.714452880859375,5.614460176211595,0.03231631558462977,-2.6082488999843596
1772701797587501800,5.724501708984375,4.713881455552578,0.1484973476834595,-2.54463246012032
1772701797597550800,5.73455078125,3.520454345551133,0.054928983278572555,-2.7525030571401117
1772701797607599900,5.744599853515625,2.1761457692086696,-0.06470774223208427,-3.215505184048414
1772701797617647900,5.75464794921875,1.2379098103284836,0.0019433891527354716,-3.8116613974273204
1772701797627696600,5.764696533203125,0.7612684496462344,0.01213087503761053,-4.280922000208497
1772701797637746000,5.774745849609375,0.6346878963470458,-0.14458148941397667,-4.628625430810451
1772701797647795000,5.784794921875,0.8553893333673477,-0.16670695811286568,-4.908801970106363
1772701797657843000,5.794843017578125,1.4246078554600476,-0.02031922299452126,-4.800519290041923
1772701797667892000,5.80489208984375,2.1812767023563384,0.14121800433024764,-4.340342157426476
1772701797677940700,5.814940673828125,2.8228385761260983,-0.03302694807201624,-3.8245243861317633
1772701797687988700,5.82498876953125,3.4350895997375246,-0.38192930613495407,-3.3283617478996512
1772701797698037800,5.835037841796875,3.7599125054895874,-0.7560190777506679,-2.9151392586827276
1772701797708087000,5.845087158203125,3.7011096033871174,-0.8275733979418873,-2.6915128741264343
1772701797718135800,5.8551357421875,3.19298355563879,-0.500840347719565,-2.5972405992358922
1772701797728184000,5.86518408203125,2.818706006366014,-0.3317174145061523,-2.6188690781980752
1772701797738232800,5.87523291015625,2.544159581911564,-0.44617366863898933,-2.6118688440471884
1772701797748281900,5.88528173828125,2.3383435793340204,-0.4640707790531218,-2.5666426318764684
1772701797758331000,5.895330810546875,2.230224565398693,-0.3113867933347821,-2.2930291043579576
1772701797768379000,5.90537890625,2.0857950516760346,-0.1242925884924829,-1.9374632698178291
1772701797778428000,5.915427978515625,1.7357623013436794,0.08028276637420058,-1.5945564258426428
1772701797788477000,5.925476806640625,1.181371346026659,0.17073709041178226,-1.21150812561512
1772701797798525000,5.93552490234375,0.5932862109005451,0.3372748294375837,-0.8557190037131309
1772701797808574000,5.945573974609375,0.1587140596628189,0.595756911863014,-0.5931488482564687
1772701797818622700,5.955622802734375,-0.17223872714638708,0.860569293288514,-0.5795955392003059
1772701797828672000,5.965672119140625,-0.5155792863637209,1.1287626223891973,-0.7478770531535148
1772701797838719700,5.9757197265625,-1.0115133765369653,1.4036562528461216,-0.767339878514409
1772701797848769000,5.98576904296875,-1.7665975845903157,1.5607883040145039,-0.7313187170624732
1772701797858817800,5.99581787109375,-2.8602824638575313,1.522000015936792,-0.6051619421333074
1772701797868866800,6.00586669921875,-4.3545618214368815,1.3059981349095702,-0.26899288198053833
1772701797878914800,6.015914794921875,-6.1242877671808005,1.1065776785880326,0.33247955798506734
1772701797888963800,6.0259638671875,-8.264238771936297,1.1467691845271735,1.3558470384448766
1772701797899012900,6.036012939453125,-10.173322919487953,1.3170178338348866,2.646152806442976
1772701797909062000,6.046061767578125,-11.955845802962779,1.2619266457319258,4.195472498720884
1772701797919110000,6.05610986328125,-12.661660660934448,0.9218709534041583,5.696027867829799
1772701797929159000,6.066158935546875,-12.938904069387911,0.5964645486757159,7.335561499518156
1772701797939207700,6.076207763671875,-13.829445380157232,0.7197209259882569,8.869783575907348
1772701797949257000,6.086257080078125,-15.062119043397903,0.7973429487206042,10.245064798140525
1772701797959304700,6.0963046875,-15.748318515795468,0.42891134899705646,11.573757872200012
1772701797969354000,6.10635400390625,-16.13401528470516,-0.3457881715651601,11.806583462256192
1772701797979402800,6.11640283203125,-16.30918480460644,-1.1295032846886663,11.583797620177268
1772701797989451000,6.126450927734375,-15.4932015989542,-1.7899166469879448,11.251856991374492
1772701797999499800,6.136499755859375,-14.904043281638621,-1.6305955613426864,9.404611752620339
1772701798009548800,6.146548828125,-13.588100968080758,-1.192406169455871,7.6033531890153885
1772701798019597800,6.156597900390625,-9.897882176542282,-1.9260873048007487,6.13068477474153
1772701798029645800,6.166645751953125,-6.427004055064916,-2.44071016722247,4.271038319575786
1772701798039694800,6.17669482421875,-4.17451738897562,-2.027162245443463,2.412978256818652
1772701798049744000,6.186743896484375,-2.423867899623513,-0.9756035665050148,1.2540876226693392
1772701798059792600,6.196792724609375,-0.11931260812282561,0.2936039021511562,0.6321423035174608
1772701798069841000,6.2068408203125,2.9626620573580262,0.8137783890843391,0.6176262869089841
1772701798079889700,6.2168896484375,5.9132736114382745,0.9073670656248927,0.33810324308574197
1772701798089939000,6.22693896484375,8.597013513475655,0.6382732074879109,-0.7087853982150554
1772701798099988000,6.236988037109375,10.871390524333714,0.6764309425771236,-1.6189888563096522
1772701798110036000,6.247035888671875,12.729807729965447,0.7291283674113452,-2.5407968274801966
1772701798120084700,6.257084716796875,13.97342598106861,0.5576158721802756,-3.378102222624421
1772701798130133800,6.2671337890625,14.794334368163346,0.42008652976751326,-4.03398955886662
1772701798140183000,6.27718310546875,15.345338603651523,0.48220966233387585,-4.539731341826916
1772701798150230800,6.287230712890625,15.590466041398047,0.5009108556725085,-4.876838559612631
1772701798160279800,6.29727978515625,16.116990500146148,0.01252641369383782,-5.165232307633757
1772701798170328800,6.307328857421875,16.490601694464683,0.36340091207996006,-5.418674569261074
1772701798180376800,6.317376953125,16.55164916062355,0.5160797466991469,-5.367323152208328
1772701798190425900,6.32742578125,16.587331883901356,-0.06003916589915752,-5.311417140591145
1772701798200475000,6.337474853515625,16.802691959893703,-0.39742220495156944,-6.007158348315953
1772701798210524000,6.34752392578125,16.40080861081481,0.03435669883843511,-6.48492316007018
1772701798220572400,6.357572509765625,14.733095178824662,0.23843046085853128,-5.662865018418431
1772701798230621700,6.36762158203125,12.741035226422548,0.44409952924605456,-5.255937245431542
1772701798240670500,6.37767041015625,11.131971551799774,0.49137913028262553,-5.046554490283131
1772701798250719500,6.387719482421875,9.679687169384955,0.5188135555772111,-4.740768877956271
1772701798260767500,6.397767578125,8.448716802930832,0.6616025720838457,-4.470072699189186
1772701798270816500,6.40781640625,7.361149529761075,0.8579455937214195,-4.271560882145166
1772701798280865500,6.417865478515625,6.45553164589107,0.8601027717553079,-4.403835847693681
1772701798290914600,6.42791455078125,5.771839772400259,0.7865466832876205,-4.825023032179475
1772701798300962600,6.437962646484375,5.43792930482924,0.5180626276120543,-5.518976187443733
1772701798311011600,6.448011474609375,5.363251957246661,-0.12774404412060975,-6.234577110892534
1772701798321060400,6.458060302734375,5.285848399570584,-0.7170379705145955,-6.151336517626047
1772701798331109600,6.468109619140625,5.462867346730828,-0.96128014985919,-5.7666176538378
1772701798341157400,6.478157470703125,5.9583402491331094,-0.894926320920512,-5.564271373197436
1772701798351206700,6.48820654296875,5.785094975292682,-0.7161196135606617,-4.975539756861329
1772701798361255400,6.49825537109375,4.928453596037626,-0.4931882255312055,-3.7546699286609884
1772701798371303700,6.5083037109375,3.6782027750521897,-0.137631816406548,-2.504101712289452
1772701798381352400,6.5183525390625,2.464058455714583,0.2087772635359317,-1.571810341027379
1772701798391401500,6.5284013671875,1.3663082267045974,0.16940854522176085,-0.6097732353210449
1772701798401450500,6.538450439453125,0.49046179624199865,0.2987134819835424,0.7420090379029513
1772701798411498500,6.54849853515625,-0.09456628940105438,0.7167420563079416,2.622808171212673
1772701798421547500,6.558547607421875,-1.8117776195317505,0.7830746232628822,6.0823079895853995
1772701798431596500,6.568596435546875,-5.999188976871967,1.0161530190363526,10.657622685968875
1772701798441645300,6.578645263671875,-13.712862489259242,2.2606569669328627,14.916439821875095
1772701798451693600,6.588693603515625,-23.55897940725088,4.920009592819214,16.47552102971077
1772701798461742300,6.598742431640625,-28.581013788783547,7.9173519184142345,15.647386783015728
1772701798471791600,6.60879150390625,-25.493262877988816,7.315848498788475,14.665986220669746
1772701798481840600,6.618840576171875,-20.289091475629807,3.194688021469116,12.61368778040409
1772701798491888600,6.628888671875,-16.869138070225716,-0.18318492244407533,8.11398800471425
1772701798501937400,6.6389375,-13.667798189651965,-0.4139315142691135,5.915245203772187
1772701798511986400,6.648986328125,-11.386243249988555,2.072611452715099,5.730666635012627
1772701798522035700,6.65903564453125,-8.705405499133468,3.432713518255949,4.986334122598171
1772701798532083500,6.66908349609375,-5.443571110108494,3.07300693064928,4.051523461991549
1772701798542132500,6.679132568359375,-3.240994430091977,1.8280793505132198,3.7949750510424374
1772701798552181500,6.689181396484375,-2.0997382368326187,0.7080638059422374,3.275468946623802
1772701798562230500,6.69923046875,-0.9308949484676122,0.3747815532721579,2.3187007212311026
1772701798572278500,6.709278564453125,0.3565326337456703,0.22181875061243772,1.6252485012263058
1772701798582327600,6.71932763671875,1.566737275546789,0.1412130358941853,1.1182289534151553
1772701798592376600,6.72937646484375,2.5520278310686346,0.06257262989953159,0.6286608911424875
1772701798602424300,6.73942431640625,3.3386358891546726,0.04780146948620677,0.028519992041587828
1772701798612473600,6.7494736328125,3.9695594645321366,-0.019039046990871427,-0.6479612194180489
1772701798622522600,6.759522705078125,4.515262086480855,-0.17730550901666284,-1.1911883911639451
1772701798632571400,6.7695712890625,4.615779977762699,-0.3713149000748992,-1.6505010159045457
1772701798642619600,6.77961962890625,4.51066657538414,-0.6278818695940077,-1.9296575645029543
1772701798652668400,6.78966845703125,4.330550831252336,-0.8942167844116687,-2.2681056755036115
1772701798662717700,6.7997177734375,3.881586582046747,-1.0747368715606629,-2.660824890395999
1772701798672766500,6.809766357421875,3.437584923684597,-1.0256531071789563,-3.0713503956139085
1772701798682814700,6.819814697265625,3.019868045657873,-0.8534652334369719,-3.5641409270644187
1772701798692863500,6.829863525390625,2.6384178282767534,-0.7531004868902266,-4.050975764980912
1772701798702912500,6.83991259765625,2.325720244604349,-0.6815801420338451,-4.350397102972865
1772701798712961500,6.84996142578125,2.0195938560158013,-0.5587513424836099,-4.325752491059899
1772701798723009500,6.860009521484375,1.8945663773775099,-0.32068449077308175,-4.027641651144624
1772701798733058600,6.87005859375,1.862982321590185,-0.1820896745532751,-3.7598569759100675
1772701798743107600,6.880107666015625,1.8907453577846287,-0.12390154334828257,-3.5583646817505357
1772701798753156400,6.89015625,1.8990449840962886,-0.08809468223415315,-3.3035394413322208
1772701798763204600,6.90020458984375,1.767953090852499,-0.01754595888890326,-2.962974192047119
1772701798773253400,6.91025341796875,1.4691858328551053,0.016313129158318042,-2.490048052495718
1772701798783302700,6.920302734375,1.201466624072194,-0.027005057433992622,-2.2834271632760763
1772701798793351400,6.930351318359375,1.2056558924555778,-0.17448299894183872,-2.5901579474985597
1772701798803399700,6.940399658203125,1.4823995346933603,-0.29176227460615334,-2.9381559771329164
1772701798813448400,6.950448486328125,1.8721067082881926,-0.19150361878238617,-3.2341526013731956
1772701798823497500,6.96049755859375,2.0968477760881186,-0.04046265103071928,-3.584263677638769
1772701798833545500,6.97054541015625,2.233976611408591,-0.03384593630470335,-3.8601808059245344
1772701798843594500,6.980594482421875,2.2403975843667983,-0.2228312155906111,-3.8829730679690835
1772701798853643500,6.9906435546875,2.1724831550478934,-0.4983847712609917,-3.70388374427557
1772701798863692500,7.000692626953125,1.966234606271982,-0.6699593354102223,-3.4478485435456037
1772701798873740500,7.010740478515625,1.6921452779352664,-0.6651970894444733,-3.2775925146490335
1772701798883789600,7.02078955078125,1.4521446816831827,-0.5138691945102065,-3.0422225008070467
1772701798893838300,7.03083837890625,1.2603683103740215,-0.35092027375660834,-2.8708360065758227
1772701798903887600,7.0408876953125,0.9133744893461465,-0.17889190142527223,-2.6744582789510485
1772701798913935400,7.050935302734375,0.08669219502508639,-0.04256510320268571,-1.964554690361023
1772701798923984600,7.060984619140625,-1.4889450108140707,0.3521997921731323,-0.7806213848918676
1772701798934033400,7.071033447265625,-3.8640737217098473,1.2256629807610064,0.5337228458195924
1772701798944082400,7.08108251953125,-6.729059833213687,2.0814652057781813,1.7067016265541315
1772701798954130400,7.09113037109375,-9.454690080997347,2.433309097185731,2.4813819309592247
1772701798964179500,7.101179443359375,-11.686298209708928,2.049709008294344,2.58446938046813
1772701798974228500,7.111228515625,-12.727007870113848,0.7815997284047305,3.1338229261398314
1772701798984277500,7.121277587890625,-13.337150523269175,-0.4482851809002459,4.272544047963619
1772701798994325500,7.131325439453125,-14.17544142231941,-1.0012420848261565,5.395207768955826
1772701799004374500,7.14137451171875,-15.562241817432641,-1.2210030991911887,6.4602440613657235
1772701799014423600,7.151423583984375,-16.434105315738915,-0.9035370590079576,7.405844411534071
1772701799024472600,7.16147265625,-15.847281578850746,-0.3405249903399497,8.440389119568467
1772701799034520300,7.171520263671875,-14.035114083218573,-0.18584347412884233,9.474413018599153
1772701799044569600,7.181569580078125,-12.6753279517591,-0.23548662595897912,10.840270578926802
1772701799054618600,7.19161865234375,-12.539879032349585,0.18611922233030198,12.242005508321522
1772701799064667400,7.20166748046875,-12.542745527696608,1.770141394677013,12.58781917965412
1772701799074715400,7.21171533203125,-11.797931369245052,3.8115810256674885,11.919411384534834
1772701799084764400,7.221764404296875,-10.067588754862546,5.391158785825968,10.27675991308689
1772701799094813700,7.231813720703125,-7.711953848987817,5.313554152619838,7.930473850315809
1772701799104862500,7.241862548828125,-5.123050869986415,3.502359885933995,5.6266112172544
1772701799114910700,7.25191064453125,-2.640557178393006,1.593788217949122,3.7719045565783977
1772701799124959500,7.26195947265625,-0.3500526240766048,0.6905901085719466,2.3455998340725897
1772701799135008500,7.272008544921875,2.1373680025249717,0.37468349972516296,1.1475403880953787
1772701799145057500,7.2820576171875,4.651431136858463,0.28060718579813837,0.0009381576329469681
1772701799155105500,7.29210546875,6.797202810591459,0.20297157293185591,-0.7988944159463047
1772701799165154600,7.302154541015625,8.429371466469764,-0.03450008936449885,-1.4005685159638523
1772701799175203600,7.31220361328125,9.885306772607564,-0.3283886354096234,-1.991544988617301
1772701799185251600,7.32225146484375,10.94323878597021,-0.8054083278849721,-2.472275956700742
1772701799195300600,7.332300537109375,11.75533842818737,-1.4098133141711353,-3.266871214148402
1772701799205349400,7.342349365234375,12.322947761517762,-1.9442516147837041,-4.09911640329361
1772701799215398700,7.352398681640625,12.67629592000842,-2.4210025733202696,-5.030381938639283
1772701799225446400,7.3624462890625,13.172097908234596,-2.899597990679741,-6.123198218378424
1772701799235495700,7.37249560546875,13.78942550445795,-3.364711410653591,-7.1529136065602295
1772701799245544400,7.38254443359375,14.312253446775674,-3.673959146133065,-7.972026926931738
1772701799255593500,7.392593505859375,14.893804796218872,-3.946850496856868,-8.611932850188017
1772701799265641500,7.402641357421875,15.427993505984544,-4.229063510416448,-8.993197189608216
1772701799275690500,7.4126904296875,15.677141285288332,-4.385839003232121,-9.017337359130382
1772701799285739500,7.422739501953125,14.635499896991252,-4.131043865691125,-8.19312116266191
1772701799295788500,7.43278857421875,13.163172258979081,-3.863921453757584,-7.469858910804986
1772701799305836500,7.44283642578125,12.048417703676224,-3.8112513553217053,-7.0683549164325
1772701799315885600,7.452885498046875,10.430655174291132,-4.103735587526858,-6.6855053536474705
1772701799325934600,7.4629345703125,8.793181982263922,-4.635582410341501,-6.7298752412497995
1772701799335983600,7.472983642578125,7.948610395509004,-5.095319982495903,-7.043260222664475
1772701799346031400,7.48303125,8.430653907495737,-4.78296638995558,-7.084473692062497
1772701799356080600,7.49308056640625,8.339923835256695,-4.152207649751007,-6.191131936919689
1772701799366129700,7.503129638671875,7.796632950624823,-3.8179125667765734,-5.3637791959911585
1772701799376178400,7.513178466796875,6.916454043915867,-3.6341014752581713,-4.880517540386319
1772701799386226700,7.523226806640625,6.1373506623715155,-3.266395705591142,-4.395247467568517
1772701799396275500,7.533275390625,5.560894590240717,-2.6358386254385113,-3.833731190416217
1772701799406324700,7.54332470703125,4.758371170142293,-1.7755407695025205,-3.309047975620627
1772701799416373500,7.55337353515625,3.6680811940103766,-0.9881687413066625,-2.89419116320014
1772701799426421800,7.563421875,2.5527485465586186,-0.7086062422558664,-2.491694650658965
1772701799436470500,7.573470458984375,1.9232067809283733,-0.9974155853405594,-1.8560580752849578
1772701799446519600,7.58351953125,1.1547031193315982,-1.2042518708765506,-1.015408045887947
1772701799456568600,7.593568603515625,0.45187575273811814,-1.1088266265586018,0.27308745781779287
1772701799466616600,7.603616455078125,-1.5422756189852953,-1.1548366825833916,1.7506892368406057
1772701799476665600,7.61366552734375,-4.3820524704307315,-1.2966029684461653,3.5172885749965905
1772701799486714600,7.623714599609375,-7.2116744230866425,-1.0169871317729353,6.577625409165025
1772701799496763400,7.633763427734375,-11.431377692222595,-0.1402788237839937,9.925574485588074
1772701799506811600,7.643811767578125,-16.354716721725463,2.374156358732283,10.800931086707115
1772701799516860400,7.6538603515625,-19.69679778289795,5.388678659448027,11.817454400360583
1772701799526909700,7.66390966796875,-19.652154339051247,6.933976841124892,13.8994418764472
1772701799536958500,7.67395849609375,-18.416591968631742,6.294802739274502,14.2185838139534
1772701799547006700,7.6840068359375,-17.635875306671856,3.5179636977791784,12.243748552596568
1772701799557055500,7.694055419921875,-16.961514740628004,0.9577278642050921,8.674950739637017
1772701799567104500,7.7041044921875,-14.896263295286893,0.8617010007321834,4.872618311569094
1772701799577153500,7.714153564453125,-12.38425475539565,1.9838620328992604,3.21140943916738
1772701799587201500,7.724201416015625,-9.508501750683784,2.2290536219231782,2.935961097437143
1772701799597250600,7.73425048828125,-6.762480456778406,1.6286936732441186,2.3163842609822747
1772701799607299600,7.744299560546875,-4.056897556245326,0.8104680954925716,1.6500643780529498
1772701799617347600,7.75434765625,-1.866734952121973,-0.028266967128589747,0.9895680867105722
1772701799627396600,7.764396728515625,-0.3742483231782913,-0.5032064192637801,0.6272697290450334
1772701799637445400,7.7744453125,0.7148860531777143,-0.5844333346202969,0.7276859135180711
1772701799647494700,7.78449462890625,1.5267653306424618,-0.41634924293532966,0.8418827860623598
1772701799657542400,7.79454248046875,2.0443547877848145,-0.18783274824991822,0.7755354599297046
1772701799667591700,7.804591796875,2.2067168485611677,-0.04223214492127299,0.48146483531594275
1772701799677640400,7.814640380859375,2.2169874826848504,0.06602379326671362,-0.10619009169936179
1772701799687689500,7.824689453125,2.257287344369292,0.10711305176317691,-0.6780483146458863
1772701799697737500,7.834737548828125,2.108997063565254,-0.017314853546768427,-0.9450941542118787
1772701799707786500,7.844786376953125,1.851162119936943,-0.16159721388369797,-1.0430237825661897
1772701799717835500,7.85483544921875,1.5933780297130344,-0.26358678515329953,-1.30472066231966
1772701799727884500,7.864884521484375,1.45418232499063,-0.40816644793637097,-1.7847224393457173
1772701799737932500,7.8749326171875,1.4861960043668747,-0.5126279622774571,-2.3098884692221877
1772701799747981600,7.884981689453125,1.6331383776932953,-0.5686622033841907,-2.837639839416742
1772701799758030600,7.895030517578125,1.893366938459873,-0.6636747021827847,-3.2469179749220607
1772701799768079600,7.90507958984375,2.1912381244003774,-0.7680586212430149,-3.66673270201087
1772701799778127400,7.91512744140625,2.1878876449286935,-0.6994041141465306,-3.8528888953506946
1772701799788176600,7.9251767578125,1.9071184004366397,-0.318574659012258,-3.626207799398899
1772701799798225700,7.9352255859375,1.8535364478528498,0.13640826596096156,-3.2885692512154576
1772701799808274400,7.9452744140625,2.054166572225094,0.3652095689371228,-2.8797002810329198
1772701799818322400,7.955322509765625,2.2592133439958095,0.31669717470258474,-2.490805008342862
1772701799828371500,7.965371337890625,2.258043131172657,0.017495909202098845,-2.127379107952118
1772701799838420700,7.975420654296875,2.100627294626832,-0.29882921731770035,-1.9049720360577105
1772701799848469500,7.985469482421875,1.7983254327625036,-0.3704392862841487,-1.752766043114662
1772701799858517800,7.995517822265625,1.302195527756214,-0.3297235372751951,-1.654683854547143
1772701799868566500,8.00556640625,0.7321756261527538,0.1480801451846957,-1.5379215154290198
1772701799878615600,8.015615478515626,0.10502104791998862,0.9613405017443001,-1.3807763125181198
1772701799888664600,8.02566455078125,-0.39906946070194244,1.472967543350905,-1.3812977060437202
1772701799898712600,8.035712646484376,-0.8897826013565063,1.6170299773268402,-1.424265910154581
1772701799908761600,8.04576171875,-1.548755044132471,1.6610544124923645,-1.0164210223227739
1772701799918810600,8.055810546875,-2.1634318335860967,1.6409458365738392,-0.20396832888424396
1772701799928859400,8.065859375,-2.336556111395359,1.4386043782390654,0.6638590457737445
1772701799938907600,8.07590771484375,-2.480415131753683,1.338776515047997,1.569080039280653
1772701799948956400,8.085956298828124,-2.592742703294754,1.4510158237837254,2.1073066262602804
1772701799959005700,8.096005615234375,-2.6947920419275757,1.5519427342578769,2.1248107187688348
1772701799969054500,8.106054443359374,-2.864018143254518,1.4895818474128841,2.0089555576235054
1772701799979102700,8.116102783203125,-3.173057788941264,1.303310795521736,2.0123872856378555
1772701799989151500,8.1261513671875,-3.4549639285087586,1.3188044249907136,1.900066143837571
1772701799999200500,8.136200439453125,-3.0541327188313008,1.5264099413335321,1.1908423542052506
1772701800009249500,8.14624951171875,-2.257891740003228,1.708660651667416,0.5025841957122087
1772701800019297500,8.156297607421875,-1.558355816170573,1.7673671076580881,0.23187165033221244
1772701800029346600,8.1663466796875,-0.8615309048622846,1.4538698980405926,0.8001812408864498
1772701800039395600,8.1763955078125,-0.2715922508239746,0.9298150442764163,1.4141653719007967
1772701800049444400,8.1864443359375,0.1388379773259163,0.3054126873612404,1.3409253636449574
1772701800059492600,8.19649267578125,0.2533352941215038,-0.27360826682150363,1.2507640312045811
1772701800069541400,8.206541259765626,0.6051970134466886,-0.6446855587482452,1.0179507161080836
1772701800079590700,8.216590576171875,0.9511065463691949,-0.7443623230308294,0.8523977503359317
1772701800089639400,8.226639404296876,1.0295090519547463,-0.7478624401062727,0.906404065811634
1772701800099687700,8.236687744140625,1.1141659417599439,-0.549660127402842,0.6718915455818176
1772701800109736400,8.246736328125,1.3912649733066558,-0.3099941699326038,0.4988730662345886
1772701800119785500,8.256785400390624,1.823651012676954,-0.15531331130862236,0.34789807639122006
1772701800129834800,8.266834716796875,2.243707147306204,-0.3015380378849804,0.3081049951851368
1772701800139882500,8.276882568359374,2.637905202579498,-0.43475086880549785,-0.02600070269703865
1772701800149931500,8.286931640625,2.553922851034999,-0.5048724527798593,-0.32587972132861615
1772701800159980500,8.29698046875,2.1189000334203243,-0.5876869295887649,-0.555574027621746
1772701800170029600,8.307029541015625,1.6749796236008405,-0.6375083605952561,-0.9257476487070322
1772701800180077600,8.31707763671875,1.1159709453552962,-0.6932093511596321,-0.9878665434896945
1772701800190126300,8.327126220703125,0.42929917927086353,-0.7444058699116111,-0.8175099768280982
1772701800200175600,8.337175537109376,0.03553250115215778,-0.5191569987200201,-0.5839642558038234
1772701800210224600,8.347224609375,0.15365736079514025,-0.2225901733763516,-0.3666571373969316
1772701800220272000,8.357272216796876,0.40435938380360603,-0.007799713965505361,-0.30586218469440934
1772701800230321000,8.36732080078125,0.31268180158138276,0.19650515339672564,-0.22583237016797064
1772701800240370000,8.377369873046876,0.0720475836008787,0.3278871156282723,-0.41440965317487716
1772701800250419000,8.3874189453125,-0.39482174012959004,0.3440503149218857,-0.3462017938673496
1772701800260467000,8.397467041015625,-0.7382096456199884,0.45851869788393373,-0.36759704859554765
1772701800270516000,8.407515869140624,-0.887729760479927,0.4482872267268598,-0.249506091222167
1772701800280565000,8.41756494140625,-0.8249550321370362,0.2941987810380757,0.11715806043744087
1772701800290614000,8.427614013671874,-0.40224692169427867,0.09460925175994635,0.46934711202085017
1772701800300662000,8.437662109375,-0.022791093000769615,0.11227774104997515,0.527947769549489
1772701800310710800,8.447710693359374,0.127296008092165,0.09094503016397357,0.35757951245009895
1772701800320760000,8.457760009765625,0.36739188141226764,-0.1875862261429429,0.07017068381309509
1772701800330808800,8.467808837890624,0.5000041160911322,-0.42457185848802326,-0.2904407436788082
1772701800340857000,8.477857177734375,0.43749826781749723,-0.4610378410980105,-0.39199966844618317
1772701800350905900,8.48790576171875,0.3188841633528471,-0.46211131554841994,-0.38376141693294047
1772701800360955000,8.497954833984375,0.20401801324486732,-0.44118528576716776,-0.2818897729545832
1772701800371004200,8.508004150390626,0.4124719631105661,-0.3051988984800875,-0.10878770697712897
1772701800381052000,8.518052001953125,0.5135352133154869,-0.19994009628146886,-0.11272095477283
1772701800391101000,8.528100830078126,0.49746436848044395,-0.27892084014639257,-0.0749625942647457
1772701800401150000,8.53814990234375,0.49657472616434095,-0.48423064676746724,0.028376784178614615
1772701800411199000,8.548198974609376,0.39137423002421856,-0.5250801051586866,0.04214811989963054
1772701800421247000,8.5582470703125,0.47386838883757587,-0.6440988449014723,0.02728255920112133
1772701800431296000,8.5682958984375,0.6300275033205748,-0.7384412624187767,-0.10054419476687908
1772701800441345000,8.578344970703125,0.7368401108324527,-0.925503610818088,-0.2639993114769459
1772701800451394000,8.58839404296875,0.7112818912059068,-0.9593732933245599,-0.3799772222191095
1772701800461442000,8.598442138671874,0.676931877836585,-0.7608508087560534,-0.3141787621408701
1772701800471491000,8.608490966796875,0.5077887786179781,-0.7745413343258202,-0.43832127463817594
1772701800481539800,8.618539794921874,0.1849924102574587,-0.6727127988368272,-0.409249493932724
1772701800491589000,8.628589111328125,-0.11839958493113517,-0.6336275736391545,-0.4566004431724548
1772701800501636900,8.638636962890626,-0.3647819911748171,-0.6055196695297956,-0.46822716808021064
1772701800511686100,8.64868603515625,-0.4634580539822578,-0.6039927522234618,-0.4600210652709007
1772701800521735000,8.65873486328125,-0.47907180269956584,-0.4460739345915615,-0.4334071991115808
1772701800531784000,8.668783935546875,-0.5011258135974407,-0.2692442263931036,-0.4404723151922226
1772701800541832000,8.67883203125,-0.4951549224942922,-0.17669965207800267,-0.42334582382440566
1772701800551881000,8.688880859375,-0.4281096772253513,-0.09240838071480392,-0.3114145581245422
1772701800561930000,8.698929931640626,-0.2991962970644235,-0.027222791837900877,-0.06499123534858227
1772701800571979000,8.70897900390625,-0.1825298195362091,0.05177519542276859,0.11273206068873405
1772701800582027000,8.719027099609375,-0.07164952419400215,0.08996274112835526,0.19232523736357687
1772701800592076000,8.729075927734375,-0.031037527820467946,0.06334799818620085,0.17652093451023101
1772701800602125000,8.739125,0.024366964015364645,0.07293678752556443,0.11303075137436389
1772701800612174000,8.749174072265625,0.0328828634262085,0.146443045502156,-0.06801438256204127
1772701800622221800,8.759221923828125,-0.0535918894559145,0.1505143865942955,-0.1623258204191923
1772701800632271000,8.76927099609375,-0.13223755614757537,0.08926409133970736,-0.1341278999388218
1772701800642320000,8.77931982421875,-0.1390209326773882,0.1248921618208289,-0.08798866457641125
1772701800652369000,8.789368896484374,-0.13605623765289782,0.19617212205007672,-0.052313540083169935
1772701800662417000,8.7994169921875,-0.12862170373797416,0.1484121536180377,-0.059598436394333834
1772701800672466000,8.8094658203125,0.03229600344896316,0.01647884111404419,-0.041995559686422344
1772701800682515000,8.819514892578125,0.11464520083367824,-0.038073563937097786,0.01329378133714199
1772701800692564000,8.82956396484375,0.18361118503212928,-0.042220892874896526,0.11448445731401442
1772701800702612000,8.839612060546875,0.19733985065519807,-0.058931496918201445,0.1759451804488897
1772701800712661000,8.849660888671876,0.10074293220937251,-0.09669950203746557,0.1609223833620548
1772701800722710000,8.8597099609375,0.08881634757220745,-0.03500263205915689,0.17610592396855354
1772701800732759000,8.869759033203126,0.06877075388729571,-0.024247137027978895,0.05445405924320221
1772701800742806800,8.879806884765625,0.09346037398576736,0.0340014921925962,-0.03766775961518287
1772701800752856000,8.88985595703125,-0.011750643548369407,0.13378405493721365,-0.08332359537482262
1772701800762904800,8.89990478515625,-0.07778934212327003,0.11388649142086506,-0.14300328031182288
1772701800772954000,8.9099541015625,0.49064475159347054,-0.13726444439888,-0.25224925245046614
1772701800783001900,8.920001953125,0.206601599997282,-0.44088864090815183,0.20824410650730132
1772701800793051000,8.93005078125,-0.26419687987565993,-0.48172523981779813,0.34313246942460535
1772701800803100200,8.94010009765625,-0.3887450505644083,-0.20190043656900525,0.24380524923205374
1772701800813149000,8.95014892578125,-0.3340238648176193,0.09795490892603993,0.09120528853535652
