time,seconds_elapsed,z,y,x
1772701791930073900,0.067073974609375,-0.10307930409908295,0.14612282812595367,-0.18860004842281342
1772701791940123100,0.077123046875,-0.08477026224136353,0.13822387158870697,-0.1498555690050125
1772701791950172000,0.087171875,-0.06083802878856659,0.12828388810157776,-0.12162579596042633
1772701791960220200,0.09722021484375,-0.04148649796843529,0.09145790338516235,-0.09795067459344864
1772701791970269000,0.10726904296875,-0.012340863235294819,0.06855498254299164,-0.08438107371330261
1772701791980318000,0.11731787109375,0.0031646571587771177,0.051478322595357895,-0.0828043669462204
1772701791990366000,0.127365966796875,0.020766552537679672,0.07449708878993988,-0.0940261259675026
1772701792000415000,0.1374150390625,0.03597092628479004,0.10154198855161667,-0.11210139095783234
1772701792010464000,0.147464111328125,0.051964275538921356,0.09314531087875366,-0.11942588537931442
1772701792020512000,0.157511962890625,0.07410702854394913,0.08626912534236908,-0.1271553337574005
1772701792030561000,0.16756103515625,0.10840694606304169,0.08812429010868073,-0.13066084682941437
1772701792040610000,0.177610107421875,0.13609446585178375,0.06943316757678986,-0.13023914396762848
1772701792050658800,0.187658935546875,0.15026620030403137,0.04844692721962929,-0.12231464684009552
1772701792060707000,0.19770703125,0.15473134815692902,0.027064986526966095,-0.11797477304935455
1772701792070755800,0.207755859375,0.1503584384918213,0.010856721550226212,-0.11449694633483887
1772701792080805000,0.21780517578125,0.14153915643692017,-0.00008941534906625748,-0.10629081726074219
1772701792090852900,0.227852783203125,0.12181153893470764,0.021391108632087708,-0.10081083327531815
1772701792100902100,0.237902099609375,0.09897179901599884,0.06573610752820969,-0.11541184782981873
1772701792110951000,0.247950927734375,0.08526317775249481,0.11267991364002228,-0.1392330378293991
1772701792120999200,0.257999267578125,0.08056239038705826,0.1487509161233902,-0.1612049639225006
1772701792131048000,0.2680478515625,0.07676419615745544,0.1542825698852539,-0.175896555185318
1772701792141097000,0.278096923828125,0.07437499612569809,0.14224974811077118,-0.1769191324710846
1772701792151146000,0.28814599609375,0.07129239290952682,0.13787150382995605,-0.15979927778244019
1772701792161194000,0.298194091796875,0.06281211227178574,0.13147172331809998,-0.12648288905620575
1772701792171243000,0.308242919921875,0.060667734593153,0.12238369137048721,-0.08844335377216339
1772701792181292000,0.3182919921875,0.0607936792075634,0.11553717404603958,-0.04970632493495941
1772701792191340000,0.328340087890625,0.06326455622911453,0.10721399635076523,-0.01552571915090084
1772701792201389000,0.33838916015625,0.06441850960254669,0.1017562672495842,0.01034432090818882
1772701792211437800,0.348437744140625,0.06677673757076263,0.09750692546367645,0.021824408322572708
1772701792221487000,0.358487060546875,0.0681329220533371,0.09629987180233002,0.02386801317334175
1772701792231534800,0.368534912109375,0.08211825042963028,0.09398878365755081,0.015060406178236008
1772701792241584000,0.378584228515625,0.10685272514820099,0.09023137390613556,0.008048823103308678
1772701792251633000,0.3886328125,0.12132541090250015,0.06661686301231384,0.013510966673493385
1772701792261681200,0.39868115234375,0.1272244155406952,0.0473223552107811,0.03650528937578201
1772701792271730000,0.40872998046875,0.1262582242488861,0.040809594094753265,0.05241154879331589
1772701792281779000,0.418779052734375,0.123470738530159,0.04037921875715256,0.05885227769613266
1772701792291827000,0.428826904296875,0.13228073716163635,0.04679397493600845,0.061652857810258865
1772701792301876000,0.4388759765625,0.138617143034935,0.05307340621948242,0.05257872864603996
1772701792311925000,0.448925048828125,0.1402139812707901,0.051639825105667114,0.025389185175299644
1772701792321974000,0.45897412109375,0.13747216761112213,0.045798853039741516,-0.003887041937559843
1772701792332022000,0.46902197265625,0.11569337546825409,0.033571746200323105,-0.04316973313689232
1772701792342071000,0.479071044921875,0.09679454565048218,0.04782724753022194,-0.06469707936048508
1772701792352119800,0.489119873046875,0.07408018410205841,0.02895156294107437,-0.10408416390419006
1772701792362168000,0.49916796875,0.013330331072211266,-0.05514669418334961,-0.1619776040315628
1772701792372216800,0.509216796875,-0.08134078234434128,-0.16617974638938904,-0.2527136206626892
1772701792382266000,0.51926611328125,-0.19375428557395935,-0.25159090757369995,-0.36378052830696106
1772701792392313900,0.52931396484375,-0.281009316444397,-0.30060508847236633,-0.4855059087276459
1772701792402363100,0.539363037109375,-0.26370111107826233,-0.28437429666519165,-0.5921684503555298
1772701792412412000,0.549411865234375,-0.19539874792099,-0.20059922337532043,-0.6574094891548157
1772701792422461000,0.5594609375,-0.11698215454816818,-0.08781960606575012,-0.6845219135284424
1772701792432509000,0.569509033203125,-0.05205801501870155,0.04059562459588051,-0.6945945024490356
1772701792442558000,0.579557861328125,-0.027294715866446495,0.19829440116882324,-0.6971687078475952
1772701792452607000,0.58960693359375,-0.029038820415735245,0.4034312963485718,-0.6900226473808289
1772701792462655000,0.599655029296875,-0.043901145458221436,0.6090901494026184,-0.6464871764183044
1772701792472704000,0.6097041015625,-0.0449104830622673,0.7918700575828552,-0.5672877430915833
1772701792482753000,0.6197529296875,0.004993553273379803,0.8791416883468628,-0.43578800559043884
1772701792492801800,0.6298017578125,0.08148433268070221,0.8352251052856445,-0.2827656865119934
1772701792502850000,0.63985009765625,0.14191743731498718,0.6573085784912109,-0.1344919204711914
1772701792512898800,0.64989892578125,0.18939360976219177,0.34368541836738586,-0.014297080226242542
1772701792522948000,0.659947998046875,0.2256908118724823,0.006787581834942102,0.07339441031217575
1772701792532995800,0.669995849609375,0.2558591067790985,-0.14026737213134766,0.12920308113098145
1772701792543045000,0.680045166015625,0.3142571449279785,-0.17203055322170258,0.1363937258720398
1772701792553094000,0.690093994140625,0.45779380202293396,-0.15115270018577576,0.1267658770084381
1772701792563143000,0.700142822265625,0.6279472708702087,-0.061485979706048965,0.17043747007846832
1772701792573191000,0.71019091796875,0.7319639921188354,-0.1514534205198288,0.22125165164470673
1772701792583240000,0.720239990234375,0.7554622292518616,-0.48543140292167664,0.2863030731678009
1772701792593289000,0.7302890625,0.7180197834968567,-0.8408033847808838,0.3691018223762512
1772701792603337000,0.7403369140625,0.6305018663406372,-1.0284267663955688,0.44983193278312683
1772701792613386000,0.750385986328125,0.5417107939720154,-0.9919691681861877,0.5097373723983765
1772701792623435000,0.76043505859375,0.50966876745224,-0.7968049049377441,0.646867573261261
1772701792633483000,0.77048291015625,0.5664263367652893,-0.5707027912139893,0.9499406218528748
1772701792643532000,0.780531982421875,0.5962501764297485,-0.3236362040042877,1.3429571390151978
1772701792653580800,0.790580810546875,0.5543581247329712,0.012483218684792519,1.634175181388855
1772701792663630000,0.800630126953125,0.358620285987854,-0.36135539412498474,1.6603714227676392
1772701792673677800,0.810677734375,0.0036520729772746563,-1.1432158946990967,1.484352469444275
1772701792683727000,0.82072705078125,-0.4224735498428345,-1.4919160604476929,1.1460858583450317
1772701792693776000,0.83077587890625,-0.6619793772697449,-1.3743844032287598,0.7794373035430908
1772701792703824100,0.84082421875,-0.6799675822257996,-1.0345497131347656,0.5075172185897827
1772701792713873000,0.850872802734375,-0.5774704813957214,-0.7721906900405884,0.34198233485221863
1772701792723922000,0.860921875,-0.409707635641098,-0.6362325549125671,0.28895437717437744
1772701792733971000,0.870970947265625,-0.19438226521015167,-0.5786324143409729,0.28991949558258057
1772701792744019000,0.88101904296875,0.00041541230166330934,-0.6222493052482605,0.3224838972091675
1772701792754068000,0.89106787109375,0.1048845648765564,-0.8019751310348511,0.2909754812717438
1772701792764117000,0.901116943359375,0.10630425065755844,-1.1542028188705444,0.1260663866996765
1772701792774165000,0.9111650390625,0.10517320781946182,-1.3181424140930176,-0.08692203462123871
1772701792784214000,0.921214111328125,0.264150470495224,-1.052367091178894,-0.3149729073047638
1772701792794262800,0.9312626953125,0.4415263235569,-0.5940753221511841,-0.513666033744812
1772701792804312000,0.94131201171875,0.5260419845581055,-0.11406948417425156,-0.61454176902771
1772701792814359800,0.95135986328125,0.5187374949455261,0.18163380026817322,-0.6794901490211487
1772701792824409000,0.9614091796875,0.46046096086502075,0.4254176914691925,-0.7287240624427795
1772701792834458000,0.9714580078125,0.42882072925567627,0.5527697801589966,-0.7570153474807739
1772701792844506000,0.981506103515625,0.41002947092056274,0.5137327313423157,-0.7610053420066833
1772701792854555000,0.991554931640625,0.3585559129714966,0.2512910068035126,-0.7764519453048706
1772701792864604000,1.00160400390625,0.24718809127807617,-0.28897935152053833,-0.8202448487281799
1772701792874652000,1.01165185546875,0.1519923210144043,-0.5498839020729065,-0.7935261726379395
1772701792884701000,1.021700927734375,0.03805968537926674,-0.46616461873054504,-0.6645993590354919
1772701792894750000,1.03175,-0.09540276229381561,-0.3319095969200134,-0.47622060775756836
1772701792904799000,1.041799072265625,-0.22408276796340942,-0.25703686475753784,-0.26447272300720215
1772701792914847000,1.051846923828125,-0.3239518404006958,-0.19948622584342957,-0.03141895309090614
1772701792924896000,1.06189599609375,-0.3672075867652893,-0.07611657679080963,0.22492215037345886
1772701792934945000,1.071945068359375,-0.3436359465122223,0.1057182028889656,0.5098761320114136
1772701792944993000,1.081992919921875,-0.2743174135684967,0.24171054363250732,0.816707968711853
1772701792955041800,1.092041748046875,-0.1783413589000702,0.20927298069000244,1.121754765510559
1772701792965091000,1.102091064453125,-0.11210883408784866,-0.041018009185791016,1.3243303298950195
1772701792975140000,1.11214013671875,-0.026297789067029953,-0.3069183826446533,1.4257947206497192
1772701792985188000,1.12218798828125,0.053603045642375946,-0.4577409029006958,1.4673088788986206
1772701792995237000,1.132237060546875,0.09188918024301529,-0.5460009574890137,1.4519743919372559
1772701793005286000,1.142285888671875,0.11582401394844055,-0.611657977104187,1.3768399953842163
1772701793015334000,1.152333984375,0.12210987508296967,-0.6362178921699524,1.2197943925857544
1772701793025383000,1.1623828125,0.11903096735477448,-0.44503307342529297,0.9454329609870911
1772701793035432200,1.17243212890625,0.12135297805070877,-0.042209185659885406,0.608995795249939
1772701793045480000,1.18247998046875,0.15692245960235596,0.3411906659603119,0.25517845153808594
1772701793055529000,1.192529052734375,0.20305533707141876,0.545348048210144,-0.07762693613767624
1772701793065578000,1.202577880859375,0.25014880299568176,0.5284014940261841,-0.36802706122398376
1772701793075627000,1.212626953125,0.2965905964374542,0.4307790696620941,-0.6080660223960876
1772701793085675000,1.222675048828125,0.34224721789360046,0.4172300696372986,-0.776220440864563
1772701793095724000,1.23272412109375,0.4010346531867981,0.4778188467025757,-0.8509378433227539
1772701793105773000,1.24277294921875,0.4716143012046814,0.5421245098114014,-0.7990947365760803
1772701793115820800,1.25282080078125,0.5443241596221924,0.4899097681045532,-0.6369748115539551
1772701793125870000,1.2628701171875,0.638676643371582,0.17959542572498322,-0.36004626750946045
1772701793135919000,1.272919189453125,0.739399790763855,-0.4427672028541565,0.06472979485988617
1772701793145967900,1.2829677734375,0.7550215721130371,-1.2817107439041138,0.5874764919281006
1772701793156016000,1.29301611328125,0.612402081489563,-1.7090390920639038,0.9053492546081543
1772701793166065000,1.30306494140625,0.3828653395175934,-1.2925084829330444,0.8459341526031494
1772701793176114200,1.3131142578125,0.25464051961898804,-0.43486055731773376,0.35884302854537964
1772701793186162000,1.323161865234375,0.27953121066093445,-0.02848166599869728,-0.4040026366710663
1772701793196211200,1.333211181640625,0.33479684591293335,-0.14823736250400543,-1.203695297241211
1772701793206260000,1.343260009765625,0.34679409861564636,-0.3920691907405853,-1.6993552446365356
1772701793216309200,1.353309326171875,0.2658148407936096,-0.46772345900535583,-1.8641256093978882
1772701793226357200,1.363357177734375,0.14558160305023193,-0.3351903557777405,-1.7481112480163574
1772701793236406300,1.37340625,0.03722716495394707,-0.1378253698348999,-1.4964462518692017
1772701793246455300,1.383455322265625,-0.015760645270347595,-0.005605981685221195,-1.2619229555130005
1772701793256503300,1.39350341796875,-0.0061287907883524895,0.09182363003492355,-1.058214783668518
1772701793266552300,1.40355224609375,0.014520091004669666,0.1037738248705864,-0.8026527166366577
1772701793276601300,1.413601318359375,-0.015682552009820938,0.04381408914923668,-0.4645952880382538
1772701793286650000,1.423650146484375,-0.0923224538564682,-0.10428369045257568,-0.06948740035295486
1772701793296698400,1.433698486328125,-0.19176913797855377,-0.2842009961605072,0.31994664669036865
1772701793306747100,1.4437470703125,-0.26442769169807434,-0.3429887294769287,0.6508677005767822
1772701793316796400,1.45379638671875,-0.30391040444374084,-0.36286628246307373,0.92412269115448
1772701793326844200,1.46384423828125,-0.32424676418304443,-0.4028046131134033,1.145866870880127
1772701793336893400,1.4738935546875,-0.3292601704597473,-0.46168363094329834,1.3056690692901611
1772701793346942200,1.483942138671875,-0.3127264678478241,-0.5034233927726746,1.3976757526397705
1772701793356991200,1.4939912109375,-0.2883012592792511,-0.4781196117401123,1.4349322319030762
1772701793367039200,1.504039306640625,-0.25548917055130005,-0.3642200231552124,1.4302610158920288
1772701793377088300,1.514088134765625,-0.2088651955127716,-0.2102443277835846,1.4032621383666992
1772701793387137300,1.52413720703125,-0.16959242522716522,-0.12876975536346436,1.3697378635406494
1772701793397185300,1.534185302734375,-0.14436590671539307,-0.1390993595123291,1.3086925745010376
1772701793407234300,1.544234375,-0.1560022383928299,-0.17968590557575226,1.1973950862884521
1772701793417283300,1.554283447265625,-0.17375247180461884,-0.16601723432540894,1.0271719694137573
1772701793427331300,1.564331298828125,-0.19543218612670898,-0.0375933013856411,0.7986920475959778
1772701793437380400,1.57438037109375,-0.20732691884040833,0.2210928499698639,0.5194244980812073
1772701793447429000,1.58442919921875,-0.2145393043756485,0.4648166596889496,0.2211361974477768
1772701793457478400,1.594478515625,-0.21604877710342407,0.5320175886154175,-0.06825646013021469
1772701793467526100,1.604526123046875,-0.21516546607017517,0.5110816955566406,-0.30043086409568787
1772701793477575400,1.614575439453125,-0.21981295943260193,0.5042360424995422,-0.4682976305484772
1772701793487624200,1.624624267578125,-0.19728800654411316,0.5801116824150085,-0.5331088900566101
1772701793497672200,1.634672119140625,-0.14098025858402252,0.7341784834861755,-0.4837878942489624
1772701793507721200,1.64472119140625,-0.05944681167602539,0.9957141280174255,-0.3385894298553467
1772701793517770200,1.654770263671875,0.004274377133697271,1.2689576148986816,-0.1542845517396927
1772701793527819500,1.664819580078125,0.007000899873673916,1.4209635257720947,0.004839691333472729
1772701793537867300,1.6748671875,-0.03423921391367912,1.3882821798324585,0.08833618462085724
1772701793547916300,1.684916259765625,-0.10289932042360306,1.2686126232147217,0.0671272948384285
1772701793557965300,1.69496533203125,-0.1447511613368988,1.0760966539382935,-0.0433904267847538
1772701793568013300,1.705013427734375,-0.1324242651462555,0.8198387026786804,-0.1634618043899536
1772701793578062300,1.715062255859375,-0.11523596197366714,0.7924920320510864,-0.2471977174282074
1772701793588111400,1.725111328125,-0.10081477463245392,0.7841777801513672,-0.2948298454284668
1772701793598160400,1.735160400390625,-0.09500215947628021,0.7867887020111084,-0.3106037676334381
1772701793608208100,1.7452080078125,-0.10172150284051895,0.9315782189369202,-0.2746053636074066
1772701793618257400,1.75525732421875,-0.12317459285259247,1.0663748979568481,-0.19118396937847137
1772701793628306400,1.765306396484375,-0.1675875186920166,1.0256909132003784,-0.07229945808649063
1772701793638354200,1.775354248046875,-0.2152778059244156,0.8269831538200378,0.06026524677872658
1772701793648403200,1.7854033203125,-0.2617109417915344,0.5641187429428101,0.17952080070972443
1772701793658452200,1.7954521484375,-0.31182602047920227,0.3812388777732849,0.24016603827476501
1772701793668501500,1.80550146484375,-0.3292505741119385,0.34169891476631165,0.21943865716457367
1772701793678549200,1.81554931640625,-0.29311439394950867,0.3002481460571289,0.1701137274503708
1772701793688598300,1.825598388671875,-0.18965356051921844,0.23819385468959808,0.1634354442358017
1772701793698647300,1.835647216796875,-0.08371087163686752,0.05207138881087303,0.2985226809978485
1772701793708695300,1.8456953125,-0.008712774142622948,-0.4011935591697693,0.5742001533508301
1772701793718744300,1.855744384765625,0.013855384662747383,-0.8455257415771484,0.877937376499176
1772701793728793300,1.86579345703125,0.007029443513602018,-1.056383490562439,1.0867081880569458
1772701793738841300,1.87584130859375,-0.014136029407382011,-1.0656564235687256,1.1791224479675293
1772701793748890400,1.885890380859375,-0.06555595993995667,-0.9801148176193237,1.2268126010894775
1772701793758939400,1.895939453125,-0.16521412134170532,-0.8349744081497192,1.2116714715957642
1772701793768988400,1.905988525390625,-0.2985171973705292,-0.6689857244491577,1.1823735237121582
1772701793779036200,1.9160361328125,-0.4523400366306305,-0.6248494386672974,1.1477950811386108
1772701793789085400,1.92608544921875,-0.6097376346588135,-0.7672707438468933,1.0242513418197632
1772701793799134200,1.93613427734375,-0.6835684776306152,-0.8779551982879639,0.7970935106277466
1772701793809183200,1.946183349609375,-0.6538076996803284,-0.9645763039588928,0.5351958274841309
1772701793819231200,1.956231201171875,-0.5969119668006897,-1.1447136402130127,0.3111526072025299
1772701793829280300,1.9662802734375,-0.5223724842071533,-1.3128325939178467,0.10703729093074799
1772701793839329300,1.976329345703125,-0.42743927240371704,-1.3836678266525269,-0.08248922973871231
1772701793849377300,1.986377197265625,-0.33501747250556946,-1.3228976726531982,-0.24736179411411285
1772701793859426300,1.99642626953125,-0.2831406891345978,-1.0962629318237305,-0.3599695563316345
1772701793869475300,2.006475341796875,-0.20765317976474762,-0.850210428237915,-0.39557525515556335
1772701793879523300,2.0165234375,-0.11256501823663712,-0.7737619876861572,-0.3881833851337433
1772701793889572400,2.026572265625,-0.0012907619820907712,-0.7287824749946594,-0.4459460377693176
1772701793899621400,2.036621337890625,0.12300242483615875,-0.771121621131897,-0.51616370677948
1772701793909670400,2.04667041015625,0.22089578211307526,-0.9128552079200745,-0.5681613683700562
1772701793919718100,2.05671826171875,0.23624277114868164,-1.1365910768508911,-0.6598633527755737
1772701793929767400,2.066767333984375,0.23152419924736023,-1.2053312063217163,-0.7556005120277405
1772701793939816200,2.076816162109375,0.1971057653427124,-1.0882078409194946,-0.8535428047180176
1772701793949865200,2.086865234375,0.13638457655906677,-0.7353956699371338,-0.9238097667694092
1772701793959913200,2.096913330078125,0.04365730658173561,-0.16948455572128296,-0.9804019331932068
1772701793969962200,2.106962158203125,-0.04380866885185242,0.3421057462692261,-1.0132404565811157
1772701793980011300,2.11701123046875,-0.10029085725545883,0.5692371726036072,-0.9670026302337646
1772701793990059300,2.127059326171875,-0.1198790967464447,0.5576421022415161,-0.8181518912315369
1772701794000108300,2.1371083984375,-0.10984350740909576,0.4300388991832733,-0.626037061214447
1772701794010157300,2.1471572265625,-0.09107515960931778,0.31104370951652527,-0.45604845881462097
1772701794020205300,2.157205322265625,-0.050841983407735825,0.22872085869312286,-0.31798219680786133
1772701794030254300,2.16725439453125,0.03582795709371567,0.17171765863895416,-0.21553903818130493
1772701794040303000,2.17730322265625,0.11853322386741638,0.26516053080558777,-0.18113498389720917
1772701794050352400,2.187352294921875,0.17563295364379883,0.5363481044769287,-0.23939895629882812
1772701794060400000,2.197400146484375,0.22185558080673218,0.8938021063804626,-0.3499249517917633
1772701794070449400,2.207449462890625,0.28915277123451233,1.2042642831802368,-0.46467483043670654
1772701794080498200,2.217498291015625,0.38009199500083923,1.392335057258606,-0.5364320874214172
1772701794090546400,2.22754638671875,0.4862077534198761,1.4361541271209717,-0.5474871397018433
1772701794100595200,2.23759521484375,0.5825686454772949,1.2669826745986938,-0.5443331599235535
1772701794110644200,2.247644287109375,0.6722427010536194,0.9178760647773743,-0.5258610844612122
1772701794120693200,2.257693359375,0.7551663517951965,0.569037675857544,-0.47817346453666687
1772701794130741200,2.2677412109375,0.7652637362480164,0.26173898577690125,-0.3794805705547333
1772701794140790300,2.277790283203125,0.7077684998512268,0.07331474125385284,-0.30494242906570435
1772701794150839300,2.28783935546875,0.6407881379127502,0.07023508101701736,-0.3232960104942322
1772701794160887300,2.29788720703125,0.5727739334106445,0.15624026954174042,-0.45802879333496094
1772701794170936300,2.307936279296875,0.5378661751747131,0.20804685354232788,-0.5935900211334229
1772701794180985000,2.317985107421875,0.5432340502738953,0.20727267861366272,-0.6657912731170654
1772701794191034400,2.328034423828125,0.5548396110534668,0.17522230744361877,-0.6763033270835876
1772701794201082000,2.33808203125,0.5621899366378784,0.009425617754459381,-0.5991941690444946
1772701794211131400,2.34813134765625,0.5644741058349609,-0.16459356248378754,-0.417910099029541
1772701794221180200,2.35818017578125,0.5577924847602844,-0.13701918721199036,-0.21303126215934753
1772701794231228400,2.368228515625,0.5818831920623779,0.12283121049404144,-0.11670937389135361
1772701794241277200,2.378277099609375,0.6526942253112793,0.5053879022598267,-0.15810447931289673
1772701794251326200,2.388326171875,0.6829617023468018,0.6762640476226807,-0.24233947694301605
1772701794261375200,2.398375244140625,0.6291040182113647,0.5677865743637085,-0.3163628578186035
1772701794271423200,2.40842333984375,0.5064452290534973,0.4026651382446289,-0.36553773283958435
1772701794281472300,2.41847216796875,0.3852551579475403,0.1921291947364807,-0.43691763281822205
1772701794291521300,2.428521240234375,0.2530589997768402,-0.06771612167358398,-0.479259729385376
1772701794301569300,2.4385693359375,0.1124693900346756,-0.2927798628807068,-0.5037410855293274
1772701794311618300,2.448618408203125,-0.0016678133979439735,-0.3293899893760681,-0.4747174382209778
1772701794321667000,2.4586669921875,-0.08332459628582001,-0.2867588996887207,-0.40278494358062744
1772701794331716400,2.46871630859375,-0.147812157869339,-0.18856871128082275,-0.2840300500392914
1772701794341764000,2.47876416015625,-0.19874164462089539,-0.08446761220693588,-0.11037705093622208
1772701794351813400,2.4888134765625,-0.23597295582294464,0.013396909460425377,0.0991629883646965
1772701794361862100,2.498862060546875,-0.24144920706748962,0.06542842090129852,0.30321118235588074
1772701794371910400,2.508910400390625,-0.19327718019485474,0.0448216013610363,0.5002965927124023
1772701794381959200,2.518959228515625,-0.11813341826200485,-0.011486945673823357,0.7029314041137695
1772701794392008200,2.52900830078125,-0.036552853882312775,-0.10616612434387207,0.9331477880477905
1772701794402057200,2.53905712890625,0.0593331977725029,-0.23700083792209625,1.1587424278259277
1772701794412105200,2.549105224609375,0.12947838008403778,-0.23988261818885803,1.326038122177124
1772701794422154200,2.559154296875,0.16750885546207428,-0.07860690355300903,1.4306811094284058
1772701794432203300,2.569203369140625,0.17668376863002777,0.14423567056655884,1.498528242111206
1772701794442251300,2.579251220703125,0.19315463304519653,0.3600526452064514,1.529754638671875
1772701794452300300,2.58930029296875,0.16350319981575012,0.518877387046814,1.4965815544128418
1772701794462349000,2.59934912109375,0.0045601543970406055,0.7309797406196594,1.32697594165802
1772701794472398300,2.6093984375,-0.16203126311302185,0.8977095484733582,1.0274277925491333
1772701794482446000,2.619446044921875,-0.32172825932502747,1.0517915487289429,0.5959936380386353
1772701794492495400,2.629495361328125,-0.45648789405822754,1.2032151222229004,0.09413519501686096
1772701794502544100,2.639544189453125,-0.5926177501678467,1.1653615236282349,-0.38303908705711365
1772701794512593200,2.64959326171875,-0.7542029023170471,0.872342050075531,-0.7261552214622498
1772701794522641200,2.65964111328125,-0.8476505279541016,0.551952064037323,-0.9167302250862122
1772701794532690200,2.669690185546875,-0.8258838653564453,0.4089706838130951,-0.9533075094223022
1772701794542739200,2.6797392578125,-0.7502391338348389,0.5103883743286133,-0.8620105981826782
1772701794552787200,2.689787109375,-0.6771005988121033,0.8558692932128906,-0.7233970761299133
1772701794562836200,2.699836181640625,-0.6311453580856323,1.0222539901733398,-0.5692437291145325
1772701794572885200,2.70988525390625,-0.5322547554969788,0.9199228882789612,-0.36465129256248474
1772701794582934000,2.71993408203125,-0.4368557929992676,0.7916192412376404,-0.12166952341794968
1772701794592982300,2.729982177734375,-0.3229610025882721,0.8115772008895874,0.11056967824697495
1772701794603031000,2.740031005859375,-0.19270607829093933,0.8527595400810242,0.3227391839027405
1772701794613080300,2.750080322265625,-0.03419357165694237,0.6955358386039734,0.5887616872787476
1772701794623128000,2.760128173828125,0.13898859918117523,0.4835157096385956,0.8740086555480957
1772701794633177300,2.77017724609375,0.2674671709537506,0.31334471702575684,1.1379166841506958
1772701794643226000,2.78022607421875,0.349665105342865,0.10682453960180283,1.396194577217102
1772701794653275100,2.790275146484375,0.39780840277671814,-0.1534518599510193,1.6281068325042725
1772701794663323100,2.8003232421875,0.38164353370666504,-0.435640424489975,1.7496079206466675
1772701794673372200,2.8103720703125,0.346142441034317,-0.8204885721206665,1.7389073371887207
1772701794683421200,2.820421142578125,0.2828289866447449,-1.2359280586242676,1.5674176216125488
1772701794693469200,2.83046923828125,0.24625615775585175,-1.6118748188018799,1.216087818145752
1772701794703518200,2.840518310546875,0.21956142783164978,-1.8238136768341064,0.725493311882019
1772701794713567200,2.850567138671875,0.22573445737361908,-1.867684006690979,0.17354291677474976
1772701794723616300,2.8606162109375,0.24252700805664062,-1.6930572986602783,-0.34155237674713135
1772701794733664300,2.870664306640625,0.15570342540740967,-1.266947627067566,-0.7908843755722046
1772701794743713000,2.880713134765625,-0.03113064169883728,-0.8404088616371155,-1.0644145011901855
1772701794753762300,2.89076220703125,-0.141693115234375,-0.7638188600540161,-1.0693447589874268
1772701794763810000,2.90081005859375,-0.1816629022359848,-0.9045807719230652,-0.834118664264679
1772701794773859300,2.910859375,-0.20541463792324066,-0.9565034508705139,-0.4335653781890869
1772701794783908000,2.920908203125,-0.18470723927021027,-0.9627152681350708,0.05182367563247681
1772701794793957000,2.93095703125,-0.1225317195057869,-1.0237820148468018,0.43504148721694946
1772701794804005000,2.941005126953125,-0.0598992258310318,-1.060543179512024,0.6948941349983215
1772701794814054100,2.95105419921875,-0.058857496827840805,-1.1216530799865723,0.7791773080825806
1772701794824103400,2.961103515625,-0.13030745089054108,-1.1662828922271729,0.659589409828186
1772701794834151200,2.971151123046875,-0.20690010488033295,-1.0764458179473877,0.39505961537361145
1772701794844200200,2.9812001953125,-0.29831603169441223,-0.8816025257110596,0.0914776399731636
1772701794854249200,2.991249267578125,-0.35116204619407654,-0.6155627369880676,-0.15486997365951538
1772701794864298200,3.00129833984375,-0.3562931716442108,-0.373593270778656,-0.297756552696228
1772701794874346200,3.01134619140625,-0.2785841226577759,-0.2072848081588745,-0.35775813460350037
1772701794884395300,3.021395263671875,-0.11194456368684769,-0.05926019698381424,-0.37749961018562317
1772701794894444300,3.0314443359375,0.05239829793572426,0.01493164338171482,-0.3782591223716736
1772701794904492000,3.041491943359375,0.1709614247083664,-0.00037833722308278084,-0.4069368541240692
1772701794914541300,3.051541259765625,0.24000594019889832,-0.009169063530862331,-0.4451186954975128
1772701794924590300,3.06159033203125,0.2482297718524933,0.07012175768613815,-0.47498470544815063
1772701794934639000,3.07163916015625,0.2185533344745636,0.3067862391471863,-0.4709400236606598
1772701794944687000,3.08168701171875,0.1963156759738922,0.6500511765480042,-0.3991830050945282
1772701794954736000,3.091736083984375,0.1764066517353058,0.8414292931556702,-0.31138408184051514
1772701794964785400,3.101785400390625,0.19294409453868866,0.905325710773468,-0.17297106981277466
1772701794974834200,3.111834228515625,0.25001710653305054,0.9556209444999695,0.016085412353277206
1772701794984882400,3.12188232421875,0.329813152551651,1.0191458463668823,0.2219695895910263
1772701794994931200,3.13193115234375,0.3829312324523926,1.1174037456512451,0.37046727538108826
1772701795004980200,3.141980224609375,0.4096784293651581,1.1741288900375366,0.4256357252597809
1772701795015028200,3.1520283203125,0.4244875907897949,1.1949410438537598,0.3671201169490814
1772701795025077200,3.1620771484375,0.38024526834487915,1.1692229509353638,0.22650493681430817
1772701795035126300,3.172126220703125,0.29675087332725525,1.0757075548171997,0.06172746792435646
1772701795045175300,3.18217529296875,0.2513013482093811,0.9384592175483704,-0.03152471408247948
1772701795055223300,3.192223388671875,0.18903088569641113,0.8098936676979065,-0.10238279402256012
1772701795065272300,3.202272216796875,0.11769331991672516,0.7724437713623047,-0.15429233014583588
1772701795075321000,3.212321044921875,0.055021271109580994,0.7654068470001221,-0.17099952697753906
1772701795085369300,3.222369384765625,-0.010419517755508423,0.7476505041122437,-0.20267143845558167
1772701795095418000,3.232418212890625,-0.07732553780078888,0.6903757452964783,-0.2877364158630371
1772701795105467400,3.24246728515625,-0.15348555147647858,0.6520302295684814,-0.435982346534729
1772701795115516200,3.25251611328125,-0.24971510469913483,0.6412398815155029,-0.6578996777534485
1772701795125564400,3.262564453125,-0.32442528009414673,0.5577356815338135,-0.9386802315711975
1772701795135613200,3.27261328125,-0.3170519769191742,0.3017338812351227,-1.129449725151062
1772701795145662200,3.282662109375,-0.21204036474227905,-0.1249103844165802,-1.1216826438903809
1772701795155710200,3.292710205078125,-0.05276118591427803,-0.6810327172279358,-0.9163496494293213
1772701795165759200,3.30275927734375,0.0902004987001419,-1.1226317882537842,-0.6158196330070496
1772701795175808300,3.312808349609375,0.2048586905002594,-1.335477352142334,-0.32714784145355225
1772701795185857300,3.322857177734375,0.30810651183128357,-1.3273237943649292,-0.10703172534704208
1772701795195905300,3.3329052734375,0.42777079343795776,-1.1889199018478394,0.017730819061398506
1772701795205954300,3.342954345703125,0.37804290652275085,-0.8342052102088928,-0.06406630575656891
1772701795216003000,3.353003173828125,0.02103501930832863,-0.284769207239151,-0.36966177821159363
1772701795226051000,3.363051025390625,-0.10583264380693436,-0.07819391787052155,-0.4854845106601715
1772701795236100000,3.37310009765625,-0.08349259942770004,0.49687573313713074,-0.4896843135356903
1772701795246149000,3.383149169921875,-0.16126249730587006,0.3203512728214264,-0.6722317337989807
1772701795256198100,3.3931982421875,-0.16844242811203003,0.269374281167984,-0.771878182888031
1772701795266246100,3.40324609375,-0.0987861156463623,0.5187271237373352,-0.8442336320877075
1772701795276295200,3.413295166015625,-0.017544973641633987,0.48752444982528687,-0.941336989402771
1772701795286344000,3.423343994140625,0.11440587043762207,0.5222763419151306,-0.8653474450111389
1772701795296393200,3.433393310546875,0.24502050876617432,0.5399321913719177,-0.5606248378753662
1772701795306441000,3.44344091796875,0.31424540281295776,0.4242932200431824,-0.18268601596355438
1772701795316490200,3.453490234375,0.31823277473449707,0.37364357709884644,0.23089264333248138
1772701795326539000,3.4635390625,0.34966233372688293,0.47743043303489685,0.6510422229766846
1772701795336587300,3.473587158203125,0.4187139868736267,0.6554413437843323,0.998576819896698
1772701795346636000,3.483635986328125,0.496664434671402,0.8034936189651489,1.2493858337402344
1772701795356685000,3.49368505859375,0.5873690843582153,0.9072144031524658,1.3331371545791626
1772701795366734000,3.503734130859375,0.7068259716033936,0.9114994406700134,1.2584224939346313
1772701795376782000,3.513781982421875,0.7955164313316345,0.7942521572113037,1.069053053855896
1772701795386831000,3.5238310546875,0.8164089322090149,0.5209369659423828,0.8006051182746887
1772701795396880100,3.533880126953125,0.7264225482940674,0.14909034967422485,0.550298810005188
1772701795406928100,3.54392822265625,0.5388832688331604,-0.23613883554935455,0.37060418725013733
1772701795416977200,3.55397705078125,0.3323589265346527,-0.6013108491897583,0.22745077311992645
1772701795427026000,3.56402587890625,0.12085361033678055,-0.9024757146835327,0.08412981778383255
1772701795437075200,3.5740751953125,-0.07823221385478973,-1.0359219312667847,-0.03232622891664505
1772701795447123000,3.584123046875,-0.17298270761966705,-0.834804356098175,-0.07347792387008667
1772701795457172200,3.594172119140625,-0.18341250717639923,-0.31728842854499817,-0.10801924765110016
1772701795467221000,3.604220947265625,-0.16777947545051575,0.3738383650779724,-0.1432504653930664
1772701795477269200,3.614269287109375,-0.17710958421230316,1.0221155881881714,-0.19574761390686035
1772701795487318000,3.624318115234375,-0.2152409851551056,1.5131341218948364,-0.228346049785614
1772701795497367000,3.634366943359375,-0.28320008516311646,1.8284209966659546,-0.2807105779647827
1772701795507416000,3.644416015625,-0.3662441074848175,1.8682727813720703,-0.41293466091156006
1772701795517464000,3.654464111328125,-0.42598697543144226,1.588120698928833,-0.5916953682899475
1772701795527513000,3.66451318359375,-0.45676887035369873,0.9571171998977661,-0.7885860800743103
1772701795537562000,3.67456201171875,-0.48443564772605896,0.015226910822093487,-0.9437175989151001
1772701795547611100,3.684611083984375,-0.46976375579833984,-0.727003276348114,-0.9346463084220886
1772701795557659100,3.6946591796875,-0.37149620056152344,-0.7606723308563232,-0.7612613439559937
1772701795567708000,3.7047080078125,-0.2838590145111084,-0.3027644157409668,-0.5832023620605469
1772701795577757200,3.714757080078125,-0.24170222878456116,0.44639769196510315,-0.4400913417339325
1772701795587805000,3.724804931640625,-0.3277793228626251,0.6863130927085876,-0.43628832697868347
1772701795597854200,3.734854248046875,-0.43856772780418396,0.6927411556243896,-0.46240007877349854
1772701795607903000,3.744903076171875,-0.44338858127593994,0.8170937299728394,-0.38419660925865173
1772701795617952000,3.754951904296875,-0.321175754070282,0.9795336723327637,-0.33902186155319214
1772701795628000000,3.765,-0.20156866312026978,0.84486323595047,-0.4301714599132538
1772701795638049000,3.775049072265625,-0.24103689193725586,0.4312744140625,-0.487129271030426
1772701795648098300,3.785098388671875,-0.3788062036037445,0.058112021535634995,-0.3494422733783722
1772701795658146000,3.79514599609375,-0.4491769075393677,-0.25986477732658386,-0.13007435202598572
1772701795668195000,3.805195068359375,-0.488156795501709,-0.4383857846260071,0.06398460268974304
1772701795678244000,3.815244140625,-0.5089699029922485,-0.4223249554634094,0.22990180552005768
1772701795688293000,3.825293212890625,-0.5390731692314148,-0.34888723492622375,0.3223470449447632
1772701795698341000,3.835341064453125,-0.5781518220901489,-0.3372904658317566,0.29671481251716614
1772701795708390100,3.84539013671875,-0.5686829686164856,-0.467006117105484,0.21943625807762146
1772701795718439200,3.855439208984375,-0.5100784301757812,-0.7740495800971985,0.18099965155124664
1772701795728488200,3.86548828125,-0.4237590432167053,-1.2091325521469116,0.2822332978248596
1772701795738536200,3.8755361328125,-0.35664284229278564,-1.6920697689056396,0.44089341163635254
1772701795748585200,3.885585205078125,-0.277113676071167,-2.0643296241760254,0.6125609874725342
1772701795758634000,3.895634033203125,-0.24559451639652252,-2.0575177669525146,0.9417721033096313
1772701795768682000,3.905681884765625,-0.25062310695648193,-1.5974828004837036,1.3844614028930664
1772701795778731000,3.91573095703125,-0.16036070883274078,-0.9333848357200623,1.822629690170288
1772701795788780300,3.9257802734375,0.030325893312692642,-0.4743455946445465,2.0189173221588135
1772701795798829000,3.9358291015625,0.20238155126571655,-0.5373886823654175,2.000633955001831
1772701795808877300,3.945877197265625,0.2941647469997406,-1.008894920349121,1.7780816555023193
1772701795818926000,3.955926025390625,0.3033778667449951,-1.683382272720337,1.4399571418762207
1772701795828975000,3.96597509765625,0.19768846035003662,-2.2083847522735596,1.1558287143707275
1772701795839023000,3.976023193359375,-0.002380738500505686,-2.2033514976501465,0.9495797753334045
1772701795849072000,3.986072021484375,-0.2120964229106903,-1.7863640785217285,0.7626652717590332
1772701795859121200,3.99612109375,-0.3880610764026642,-1.3401199579238892,0.6439281105995178
1772701795869170200,4.006170166015625,-0.5948329567909241,-1.1623404026031494,0.5429349541664124
1772701795879218200,4.01621826171875,-0.6913130283355713,-1.0080021619796753,0.5241382122039795
1772701795889267200,4.02626708984375,-0.5932239890098572,-0.3801933526992798,0.7663990259170532
1772701795899316000,4.03631591796875,-0.42129531502723694,-0.0916975662112236,1.0347574949264526
1772701795909365200,4.046365234375,-0.26668840646743774,-0.24765335023403168,1.1702979803085327
1772701795919413000,4.0564130859375,-0.1684364229440689,-0.46885257959365845,1.2040843963623047
1772701795929462300,4.066462158203125,-0.06513240933418274,-0.6165855526924133,1.196202039718628
1772701795939511000,4.076510986328125,0.039625201374292374,-0.6042655110359192,1.1651065349578857
1772701795949559300,4.086559326171875,0.15487509965896606,-0.441686749458313,1.0965690612792969
1772701795959608000,4.096608154296875,0.22222158312797546,-0.20074500143527985,0.9888859391212463
1772701795969657000,4.106656982421875,0.24536684155464172,0.07073497027158737,0.896419882774353
1772701795979706000,4.1167060546875,0.27122849225997925,0.30512285232543945,0.8283668160438538
1772701795989754000,4.126754150390625,0.24251002073287964,0.4856193959712982,0.776269793510437
1772701795999803100,4.13680322265625,0.11827564984560013,0.5672522187232971,0.6971120238304138
1772701796009852200,4.14685205078125,-0.05511371046304703,0.5563745498657227,0.5884449481964111
1772701796019901000,4.15690087890625,-0.21713308990001678,0.5467503070831299,0.4971686601638794
1772701796029949200,4.16694921875,-0.4017745554447174,0.588890552520752,0.396256685256958
1772701796039998000,4.176998046875,-0.586097776889801,0.706193208694458,0.2871721386909485
1772701796050047200,4.187047119140625,-0.7614509463310242,0.8813213109970093,0.1721225380897522
1772701796060095000,4.197094970703125,-0.9223594069480896,1.0524210929870605,0.04034784436225891
1772701796070144300,4.207144287109375,-1.015039324760437,1.1589256525039673,-0.0448666550219059
1772701796080193000,4.217193115234375,-0.9572044014930725,1.207999348640442,-0.0695972889661789
1772701796090242000,4.227241943359375,-0.867875337600708,1.1226348876953125,-0.08990336209535599
1772701796100290000,4.2372900390625,-0.7700802087783813,0.8504517078399658,-0.10641790181398392
1772701796110339000,4.247339111328125,-0.5937110185623169,0.4810126721858978,-0.07086735963821411
1772701796120388000,4.25738818359375,-0.3532792925834656,0.1654396951198578,-0.017272839322686195
1772701796130436000,4.26743603515625,-0.20223091542720795,-0.030231526121497154,0.01574050448834896
1772701796140485000,4.277485107421875,-0.1357484757900238,-0.0674709677696228,0.04838499799370766
1772701796150534100,4.2875341796875,-0.12023155391216278,0.0815557986497879,0.09282809495925903
1772701796160583000,4.2975830078125,-0.1284884214401245,0.285921186208725,0.13271799683570862
1772701796170631200,4.307631103515625,-0.14871646463871002,0.45857977867126465,0.13331478834152222
1772701796180680000,4.317679931640625,-0.13956300914287567,0.5541610717773438,0.09188560396432877
1772701796190729200,4.327729248046875,-0.12212783098220825,0.6657917499542236,0.00016287696780636907
1772701796200778000,4.337778076171875,-0.11764288693666458,0.7282447814941406,-0.1516498178243637
1772701796210826200,4.347826171875,-0.09848011285066605,0.6337470412254333,-0.31004026532173157
1772701796220875000,4.357875,-0.08150818943977356,0.4275301694869995,-0.4473295509815216
1772701796230924000,4.367924072265625,-0.09378109872341156,0.1605069786310196,-0.5460587739944458
1772701796240972000,4.377971923828125,-0.10702846944332123,-0.041644614189863205,-0.6336277723312378
1772701796251021000,4.38802099609375,-0.15126784145832062,-0.17068035900592804,-0.7226449847221375
1772701796261070000,4.398070068359375,-0.15701352059841156,-0.3920465111732483,-0.8512722253799438
1772701796271119000,4.408119140625,-0.017526989802718163,-0.830435037612915,-1.0315649509429932
1772701796281167000,4.4181669921875,0.2696908116340637,-0.8163432478904724,-1.3698874711990356
1772701796291216100,4.428216064453125,0.21840794384479523,-0.6032216548919678,-1.9645476341247559
1772701796301265000,4.438264892578125,0.8977756500244141,-1.6532400846481323,-1.7704262733459473
1772701796311314200,4.448314208984375,1.0247234106063843,-1.538941502571106,-1.0757501125335693
1772701796321362000,4.45836181640625,0.3989284038543701,-0.5314721465110779,-0.9601877927780151
1772701796331411200,4.4684111328125,0.10153559595346451,0.2949831783771515,-0.7661200761795044
1772701796341460200,4.478460205078125,-0.2657780647277832,1.0957711935043335,-0.4754839539527893
1772701796351508200,4.48850830078125,-0.46264317631721497,1.5020017623901367,-0.10278254747390747
1772701796361557000,4.498556884765625,-0.46925675868988037,1.3446046113967896,0.13646267354488373
1772701796371606000,4.50860595703125,-0.45300453901290894,0.6778843402862549,0.23891261219978333
1772701796381655300,4.5186552734375,-0.5497081279754639,0.08227008581161499,0.28789401054382324
1772701796391703000,4.528703125,-0.5651808381080627,-0.1352635622024536,0.2617603838443756
1772701796401752300,4.53875244140625,-0.5190377831459045,-0.022023331373929977,0.1459467113018036
1772701796411801000,4.548801025390625,-0.43285417556762695,0.2665458917617798,-0.013418183661997318
1772701796421850000,4.55885009765625,-0.36571618914604187,0.5550482273101807,-0.18012180924415588
1772701796431898000,4.568898193359375,-0.3467765748500824,0.6777864098548889,-0.34680986404418945
1772701796441947100,4.578947021484375,-0.3013721704483032,0.6000284552574158,-0.5015869140625
1772701796451996200,4.58899609375,-0.24918968975543976,0.35172250866889954,-0.6212707161903381
1772701796462044000,4.5990439453125,-0.16879098117351532,0.0041549596935510635,-0.6524754762649536
1772701796472093200,4.60909326171875,-0.03008982352912426,-0.32269880175590515,-0.5861755609512329
1772701796482142200,4.61914208984375,0.11656683683395386,-0.4739789366722107,-0.4777388572692871
1772701796492191000,4.62919091796875,0.1996273696422577,-0.49993303418159485,-0.3986528217792511
1772701796502239200,4.6392392578125,0.24700801074504852,-0.4563273787498474,-0.346730500459671
1772701796512288000,4.6492880859375,0.24423538148403168,-0.34654951095581055,-0.3082939088344574
1772701796522337300,4.659337158203125,0.19594335556030273,-0.2340298295021057,-0.26211509108543396
1772701796532385000,4.669385009765625,0.09036368131637573,-0.25098031759262085,-0.1771746277809143
1772701796542434300,4.679434326171875,-0.05257859826087952,-0.34350401163101196,-0.04902318865060806
1772701796552483000,4.689483154296875,-0.19061210751533508,-0.28217220306396484,0.10799918323755264
1772701796562532000,4.699531982421875,-0.24979904294013977,-0.10648141801357269,0.22525404393672943
1772701796572580000,4.709580078125,-0.2785840928554535,0.07804661244153976,0.33243003487586975
1772701796582629000,4.719629150390625,-0.2547299861907959,0.34533026814460754,0.46733778715133667
1772701796592678100,4.72967822265625,-0.20466575026512146,0.43903201818466187,0.5729195475578308
1772701796602727200,4.73972705078125,-0.10889362543821335,0.16967934370040894,0.6170616745948792
1772701796612775200,4.749775146484375,-0.03786339610815048,-0.352338582277298,0.641804039478302
1772701796622824200,4.75982421875,-0.05624222382903099,-0.8330225944519043,0.6262513995170593
1772701796632873000,4.769873046875,-0.07600899785757065,-0.8777514696121216,0.5339182615280151
1772701796642921200,4.779921142578125,-0.12121830135583878,-0.4994436502456665,0.3931307792663574
1772701796652970000,4.789969970703125,-0.18226461112499237,-0.004388393368571997,0.2741151750087738
1772701796663019300,4.800019287109375,-0.2329569011926651,0.36345571279525757,0.2659113109111786
1772701796673068000,4.810068115234375,-0.2137315422296524,0.5747343897819519,0.3369133174419403
1772701796683116300,4.8201162109375,-0.12543800473213196,0.5340947508811951,0.3772868514060974
1772701796693165000,4.8301650390625,-0.01229999028146267,0.4221615791320801,0.4366055727005005
1772701796703214000,4.840214111328125,0.0584213025867939,0.3134669363498688,0.5162926912307739
1772701796713263000,4.85026318359375,0.08711154013872147,0.1934252232313156,0.5722590088844299
1772701796723311000,4.86031103515625,0.09434396028518677,0.17390799522399902,0.5992379784584045
1772701796733360000,4.870360107421875,0.08550466597080231,0.28071328997612,0.5916935205459595
1772701796743409200,4.8804091796875,0.09496291726827621,0.4383128881454468,0.5967369079589844
1772701796753458000,4.8904580078125,0.10418757051229477,0.5609533190727234,0.5943400859832764
1772701796763506200,4.900506103515625,0.12034948170185089,0.5832417607307434,0.5738745331764221
1772701796773555000,4.910554931640625,0.14259566366672516,0.5197170972824097,0.5498785972595215
1772701796783604200,4.920604248046875,0.1680198311805725,0.39692360162734985,0.4984758794307709
1772701796793652000,4.93065185546875,0.1786586195230484,0.2156936228275299,0.38595518469810486
1772701796803701200,4.940701171875,0.16593389213085175,-0.01227099634706974,0.2274993509054184
1772701796813750000,4.95075,0.14873839914798737,-0.3162897527217865,0.04861455410718918
1772701796823799000,4.960799072265625,0.12573684751987457,-0.5648970007896423,-0.12699852883815765
1772701796833847000,4.970846923828125,0.11839238554239273,-0.7368258833885193,-0.32115548849105835
1772701796843896000,4.98089599609375,0.10984786599874496,-0.9057817459106445,-0.47962039709091187
1772701796853945000,4.990945068359375,0.10328317433595657,-1.1182665824890137,-0.49996909499168396
1772701796863994000,5.000994140625,0.06632622331380844,-1.3231514692306519,-0.3154256045818329
1772701796874042000,5.0110419921875,0.03899792209267616,-1.4186005592346191,0.000036766345147043467
1772701796884091100,5.021091064453125,-0.038302287459373474,-1.290368914604187,0.3196547031402588
1772701796894140000,5.031139892578125,-0.10466346144676208,-0.9604735374450684,0.5480562448501587
1772701796904188200,5.041188232421875,-0.13541804254055023,-0.6485397219657898,0.681089460849762
1772701796914237000,5.05123681640625,-0.12162631750106812,-0.4676162600517273,0.7548291683197021
1772701796924286200,5.0612861328125,-0.11848730593919754,-0.45324060320854187,0.8064131736755371
1772701796934335200,5.071335205078125,-0.1283138394355774,-0.5526250004768372,0.8381751179695129
1772701796944383200,5.08138330078125,-0.18033628165721893,-0.7215186357498169,0.8624140024185181
1772701796954432000,5.091431884765625,-0.23812074959278107,-0.8646388053894043,0.8718993663787842
1772701796964481000,5.10148095703125,-0.2900494635105133,-0.8816219568252563,0.8943163752555847
1772701796974530300,5.1115302734375,-0.2992895543575287,-0.8186797499656677,0.9183343648910522
1772701796984578000,5.121578125,-0.2730126678943634,-0.7598768472671509,0.9239004850387573
1772701796994627300,5.13162744140625,-0.23932208120822906,-0.600715696811676,0.8981991410255432
1772701797004676000,5.141676025390625,-0.24140650033950806,-0.4044862687587738,0.8262441754341125
1772701797014724000,5.15172412109375,-0.2544346749782562,-0.24326807260513306,0.7093148827552795
1772701797024773000,5.161773193359375,-0.23862993717193604,-0.1049979031085968,0.5765249729156494
1772701797034822100,5.171822265625,-0.18339811265468597,0.13087719678878784,0.45635145902633667
1772701797044871200,5.18187109375,-0.12568627297878265,0.4030584394931793,0.32973504066467285
1772701797054919000,5.1919189453125,-0.08978978544473648,0.6746963262557983,0.21310056746006012
1772701797064968200,5.20196826171875,-0.08247727900743484,0.8568122982978821,0.1353924572467804
1772701797075017200,5.212017333984375,-0.07499858736991882,1.0354974269866943,0.0868704617023468
1772701797085066000,5.22206591796875,-0.05852850526571274,1.266675591468811,0.05856066197156906
1772701797095114200,5.2321142578125,-0.06764290481805801,1.5689324140548706,0.05181967094540596
1772701797105163000,5.2421630859375,-0.11126746237277985,1.8952414989471436,0.07879948616027832
1772701797115212300,5.25221240234375,-0.21104812622070312,2.052530288696289,0.09483464807271957
1772701797125260000,5.262260009765625,-0.3227485716342926,1.9976886510849,0.11309327930212021
1772701797135309300,5.272309326171875,-0.4052780568599701,1.817186713218689,0.10911905020475388
1772701797145358000,5.282358154296875,-0.45597296953201294,1.644018530845642,0.10255607962608337
1772701797155407000,5.292406982421875,-0.5043162703514099,1.3951942920684814,0.08580053597688675
1772701797165455000,5.302455078125,-0.5427501797676086,0.9980980157852173,0.007585496176034212
1772701797175504100,5.312504150390625,-0.478252649307251,0.7838096618652344,-0.0734395831823349
1772701797185553200,5.32255322265625,-0.3623580038547516,0.7792516946792603,-0.18244542181491852
1772701797195602200,5.332602294921875,-0.3653828203678131,0.7828267216682434,-0.3182767629623413
1772701797205650200,5.342650146484375,-0.4062052369117737,0.8054248094558716,-0.40001970529556274
1772701797215699200,5.35269921875,-0.44655078649520874,0.8139503598213196,-0.4579005837440491
1772701797225747700,5.362747802734375,-0.4723164439201355,0.7866834998130798,-0.4554557800292969
1772701797235796000,5.3727958984375,-0.4874349534511566,0.7480425834655762,-0.43823233246803284
1772701797245844700,5.3828447265625,-0.48611411452293396,0.7077314853668213,-0.4210112690925598
1772701797255894000,5.39289404296875,-0.4663388133049011,0.6476670503616333,-0.43639954924583435
1772701797265942800,5.40294287109375,-0.417819082736969,0.5479227900505066,-0.4620644152164459
1772701797275991000,5.412990966796875,-0.363981693983078,0.37175577878952026,-0.4336269199848175
1772701797286039800,5.423039794921875,-0.3777959942817688,0.04199666529893875,-0.3380923867225647
1772701797296088800,5.4330888671875,-0.43315112590789795,-0.36967504024505615,-0.23175159096717834
1772701797306137900,5.443137939453125,-0.5066012740135193,-0.763615608215332,-0.19184692203998566
1772701797316185900,5.453185791015625,-0.5773524045944214,-1.0795438289642334,-0.21241557598114014
1772701797326235000,5.46323486328125,-0.6260873675346375,-1.2496871948242188,-0.19480913877487183
1772701797336284000,5.473283935546875,-0.6579357981681824,-1.3328694105148315,-0.1597108095884323
1772701797346332000,5.483331787109375,-0.6846711039543152,-1.474424958229065,-0.1447070986032486
1772701797356381000,5.493380859375,-0.667736828327179,-1.5811039209365845,-0.17648845911026
1772701797366429700,5.5034296875,-0.47912219166755676,-1.1906059980392456,-0.18404623866081238
1772701797376479000,5.51347900390625,-0.23248180747032166,0.022069081664085388,-0.15827269852161407
1772701797386526700,5.523526611328125,-0.24186620116233826,0.9399915337562561,-0.1945493519306183
1772701797396576000,5.533575927734375,-0.4486883580684662,0.9108163714408875,-0.3482707440853119
1772701797406624800,5.543624755859375,-0.38483381271362305,0.33086204528808594,-0.4909234941005707
1772701797416673800,5.553673828125,-0.2882300317287445,0.3738049864768982,-0.7390715479850769
1772701797426721800,5.5637216796875,-0.08712516725063324,0.7212305068969727,-0.8613513708114624
1772701797436770800,5.573770751953125,0.1595434695482254,1.069225788116455,-0.8174797892570496
1772701797446819800,5.58381982421875,0.2707267701625824,0.9382477402687073,-0.6230204105377197
1772701797456868900,5.593868896484375,0.32476842403411865,0.6675621867179871,-0.36636415123939514
1772701797466916900,5.603916748046875,0.32548269629478455,0.5667377710342407,-0.079717718064785
1772701797476966000,5.6139658203125,0.3337683379650116,0.7296960949897766,0.15676113963127136
1772701797487014700,5.6240146484375,0.3807648718357086,1.0574527978897095,0.3200840353965759
1772701797497063000,5.63406298828125,0.46096596121788025,1.4692540168762207,0.437277227640152
1772701797507111700,5.644111572265625,0.5363830924034119,1.8633583784103394,0.4581860899925232
1772701797517161000,5.654160888671875,0.5727754235267639,2.073451280593872,0.3448856472969055
1772701797527209700,5.664209716796875,0.5743153095245361,1.9851603507995605,0.09429854899644852
1772701797537258000,5.674258056640625,0.5572817325592041,1.5748945474624634,-0.19824542105197906
1772701797547306800,5.684306640625,0.5176078677177429,0.9708577394485474,-0.41955000162124634
1772701797557355800,5.694355712890625,0.47753554582595825,0.31832948327064514,-0.569391131401062
1772701797567405000,5.704405029296875,0.48632457852363586,-0.16063670814037323,-0.677776575088501
1772701797577452800,5.714452880859375,0.49601608514785767,-0.3226620852947235,-0.760481595993042
1772701797587501800,5.724501708984375,0.49369966983795166,-0.26700711250305176,-0.7520577311515808
1772701797597550800,5.73455078125,0.4717182219028473,-0.12341640889644623,-0.63502037525177
1772701797607599900,5.744599853515625,0.43920227885246277,0.021594256162643433,-0.4560065269470215
1772701797617647900,5.75464794921875,0.42898452281951904,0.11606377363204956,-0.2364984005689621
1772701797627696600,5.764696533203125,0.4171144366264343,0.1435040831565857,-0.011030799709260464
1772701797637746000,5.774745849609375,0.41005226969718933,0.10743475705385208,0.18929271399974823
1772701797647795000,5.784794921875,0.44473809003829956,0.017493270337581635,0.31451722979545593
1772701797657843000,5.794843017578125,0.5059548020362854,-0.03621736168861389,0.3733605444431305
1772701797667892000,5.80489208984375,0.5488613843917847,-0.03539235517382622,0.3395344316959381
1772701797677940700,5.814940673828125,0.5492057204246521,-0.041163958609104156,0.22907979786396027
1772701797687988700,5.82498876953125,0.5055400729179382,-0.06584866344928741,0.09408829361200333
1772701797698037800,5.835037841796875,0.44465962052345276,-0.035275042057037354,-0.003760236082598567
1772701797708087000,5.845087158203125,0.3610565662384033,0.08329716324806213,-0.07382893562316895
1772701797718135800,5.8551357421875,0.28008344769477844,0.18452604115009308,-0.12426547706127167
1772701797728184000,5.86518408203125,0.19329601526260376,0.23397377133369446,-0.14808039367198944
1772701797738232800,5.87523291015625,0.12265141308307648,0.22145132720470428,-0.1581743061542511
1772701797748281900,5.88528173828125,0.08859944343566895,0.1419755220413208,-0.18799293041229248
1772701797758331000,5.895330810546875,0.09412629902362823,0.07960481941699982,-0.2347622960805893
1772701797768379000,5.90537890625,0.12461944669485092,0.08515235781669617,-0.28551962971687317
1772701797778428000,5.915427978515625,0.1521511971950531,0.11471930146217346,-0.31079089641571045
1772701797788477000,5.925476806640625,0.1633557230234146,0.13703827559947968,-0.3240996301174164
1772701797798525000,5.93552490234375,0.17058220505714417,0.10341959446668625,-0.2980070412158966
1772701797808574000,5.945573974609375,0.21060940623283386,-0.03205440938472748,-0.2566830515861511
1772701797818622700,5.955622802734375,0.27507150173187256,-0.25442036986351013,-0.21464423835277557
1772701797828672000,5.965672119140625,0.35006070137023926,-0.49784815311431885,-0.18443894386291504
1772701797838719700,5.9757197265625,0.39965513348579407,-0.7453202605247498,-0.15483364462852478
1772701797848769000,5.98576904296875,0.41045692563056946,-0.9289361834526062,-0.1047678142786026
1772701797858817800,5.99581787109375,0.3696011006832123,-1.0299289226531982,-0.00853847898542881
1772701797868866800,6.00586669921875,0.26207235455513,-1.104815125465393,0.1709628403186798
1772701797878914800,6.015914794921875,0.09762907773256302,-1.2419705390930176,0.42896297574043274
1772701797888963800,6.0259638671875,-0.09493669867515564,-1.4269158840179443,0.7611687183380127
1772701797899012900,6.036012939453125,-0.2665417194366455,-1.5641562938690186,1.0518652200698853
1772701797909062000,6.046061767578125,-0.4101228713989258,-1.495097279548645,1.1482797861099243
1772701797919110000,6.05610986328125,-0.4785357415676117,-1.2546753883361816,1.1147345304489136
1772701797929159000,6.066158935546875,-0.5303809642791748,-0.9320517778396606,1.058225393295288
1772701797939207700,6.076207763671875,-0.5675163269042969,-0.8231513500213623,1.0133593082427979
1772701797949257000,6.086257080078125,-0.589495837688446,-0.9769029021263123,0.980063796043396
1772701797959304700,6.0963046875,-0.6184079051017761,-1.1654187440872192,1.0063060522079468
1772701797969354000,6.10635400390625,-0.6075177192687988,-1.5209227800369263,1.0456489324569702
1772701797979402800,6.11640283203125,-0.5122918486595154,-1.4581630229949951,1.0199912786483765
1772701797989451000,6.126450927734375,-0.35725855827331543,-0.8947315216064453,1.0114655494689941
1772701797999499800,6.136499755859375,-0.2066381722688675,-0.8567153811454773,0.9281056523323059
1772701798009548800,6.146548828125,-0.050319116562604904,-1.3496553897857666,0.7263498902320862
1772701798019597800,6.156597900390625,0.08453696966171265,-1.871969223022461,0.4445115625858307
1772701798029645800,6.166645751953125,0.2474452406167984,-2.083805561065674,0.08859539777040482
1772701798039694800,6.17669482421875,0.38939809799194336,-1.8876984119415283,-0.2074221521615982
1772701798049744000,6.186743896484375,0.5263211131095886,-1.5926923751831055,-0.49496909976005554
1772701798059792600,6.196792724609375,0.6613713502883911,-1.3074449300765991,-0.7213990688323975
1772701798069841000,6.2068408203125,0.7575339674949646,-0.9670622944831848,-0.8776901364326477
1772701798079889700,6.2168896484375,0.7826811075210571,-0.5737480521202087,-0.9740944504737854
1772701798089939000,6.22693896484375,0.7389941215515137,-0.21348395943641663,-1.011325716972351
1772701798099988000,6.236988037109375,0.6715543270111084,0.04701979458332062,-0.9663238525390625
1772701798110036000,6.247035888671875,0.5971954464912415,0.17642143368721008,-0.830830454826355
1772701798120084700,6.257084716796875,0.5128270387649536,0.18475791811943054,-0.6303690075874329
1772701798130133800,6.2671337890625,0.4037306010723114,0.20509104430675507,-0.3804752826690674
1772701798140183000,6.27718310546875,0.37859222292900085,0.32013189792633057,-0.10170436650514603
1772701798150230800,6.287230712890625,0.2699865400791168,0.44845208525657654,0.10305622220039368
1772701798160279800,6.29727978515625,0.18568284809589386,0.5989832878112793,0.286389023065567
1772701798170328800,6.307328857421875,0.1030159741640091,0.7164753079414368,0.40635553002357483
1772701798180376800,6.317376953125,0.2110031545162201,0.886151909828186,0.46735095977783203
1772701798190425900,6.32742578125,0.12795408070087433,0.7290642857551575,0.3694995045661926
1772701798200475000,6.337474853515625,0.06401291489601135,0.3927432894706726,0.24877281486988068
1772701798210524000,6.34752392578125,0.05345078557729721,0.19158075749874115,0.13733696937561035
1772701798220572400,6.357572509765625,0.018201982602477074,0.1274305284023285,-0.029275711625814438
1772701798230621700,6.36762158203125,-0.002901745028793812,0.15030883252620697,-0.20910632610321045
1772701798240670500,6.37767041015625,0.0009643659577704966,0.1957218497991562,-0.35498204827308655
1772701798250719500,6.387719482421875,0.023057853803038597,0.17938846349716187,-0.4503982961177826
1772701798260767500,6.397767578125,0.05069294199347496,0.1125524491071701,-0.49284136295318604
1772701798270816500,6.40781640625,0.0685533955693245,0.10938569158315659,-0.49756088852882385
1772701798280865500,6.417865478515625,0.0862378478050232,0.2819819748401642,-0.5128852725028992
1772701798290914600,6.42791455078125,0.062065914273262024,0.5411227941513062,-0.5517003536224365
1772701798300962600,6.437962646484375,0.03269098326563835,0.751019299030304,-0.5956709980964661
1772701798311011600,6.448011474609375,0.028923293575644493,0.6957288980484009,-0.5779767632484436
1772701798321060400,6.458060302734375,-0.022113526239991188,0.3402027487754822,-0.5842264294624329
1772701798331109600,6.468109619140625,-0.10768542438745499,-0.13502730429172516,-0.6533693075180054
1772701798341157400,6.478157470703125,-0.16246984899044037,-0.5127639174461365,-0.753749430179596
1772701798351206700,6.48820654296875,-0.1815226674079895,-0.8609427809715271,-0.8435619473457336
1772701798361255400,6.49825537109375,-0.2076466828584671,-1.1076103448867798,-0.9346141219139099
1772701798371303700,6.5083037109375,-0.2752609848976135,-1.1622103452682495,-1.0276250839233398
1772701798381352400,6.5183525390625,-0.3643173277378082,-1.1367769241333008,-1.1802313327789307
1772701798391401500,6.5284013671875,-0.46644434332847595,-1.0098353624343872,-1.446502447128296
1772701798401450500,6.538450439453125,-0.36938756704330444,-0.699691116809845,-1.829048991203308
1772701798411498500,6.54849853515625,0.007967498153448105,-0.19138503074645996,-2.1998841762542725
1772701798421547500,6.558547607421875,0.5389788746833801,0.5094953179359436,-2.3785455226898193
1772701798431596500,6.568596435546875,0.8263615965843201,1.1285980939865112,-2.1286258697509766
1772701798441645300,6.578645263671875,0.5968247652053833,1.3078240156173706,-1.4640426635742188
1772701798451693600,6.588693603515625,-0.15192273259162903,1.087900161743164,-0.7307289838790894
1772701798461742300,6.598742431640625,-0.5610239505767822,0.6362110376358032,-0.20072217285633087
1772701798471791600,6.60879150390625,-0.8785731792449951,0.12452977150678635,0.2047000378370285
1772701798481840600,6.618840576171875,-1.1136105060577393,0.012571807950735092,0.41043081879615784
1772701798491888600,6.628888671875,-1.039740800857544,0.15163637697696686,0.4351184666156769
1772701798501937400,6.6389375,-0.7239320278167725,0.3360626995563507,0.4445125162601471
1772701798511986400,6.648986328125,-0.40559935569763184,0.49642640352249146,0.3221723139286041
1772701798522035700,6.65903564453125,-0.13228926062583923,0.4675356447696686,0.12053722143173218
1772701798532083500,6.66908349609375,0.13607792556285858,0.4594738781452179,-0.04638092219829559
1772701798542132500,6.679132568359375,0.3518528342247009,0.47200965881347656,-0.18801768124103546
1772701798552181500,6.689181396484375,0.4960280954837799,0.44537368416786194,-0.3508565127849579
1772701798562230500,6.69923046875,0.6115078330039978,0.43875837326049805,-0.5157954096794128
1772701798572278500,6.709278564453125,0.7309077978134155,0.516460120677948,-0.618861734867096
1772701798582327600,6.71932763671875,0.8527900576591492,0.6816847920417786,-0.6186942458152771
1772701798592376600,6.72937646484375,0.9400104880332947,0.8326732516288757,-0.5248485803604126
1772701798602424300,6.73942431640625,0.9961616396903992,0.8330585956573486,-0.415320485830307
1772701798612473600,6.7494736328125,1.0177782773971558,0.6281500458717346,-0.3208067715167999
1772701798622522600,6.759522705078125,1.0169758796691895,0.32434889674186707,-0.22397741675376892
1772701798632571400,6.7695712890625,0.9960627555847168,0.028257088735699654,-0.1315111368894577
1772701798642619600,6.77961962890625,0.9532186388969421,-0.23628535866737366,-0.04399193823337555
1772701798652668400,6.78966845703125,0.922308623790741,-0.41889363527297974,0.04237957298755646
1772701798662717700,6.7997177734375,0.8802778124809265,-0.4564327597618103,0.10474841296672821
1772701798672766500,6.809766357421875,0.8101036548614502,-0.311158150434494,0.1361253559589386
1772701798682814700,6.819814697265625,0.7266769409179688,0.007913041859865189,0.15270327031612396
1772701798692863500,6.829863525390625,0.6538493037223816,0.43917471170425415,0.18507052958011627
1772701798702912500,6.83991259765625,0.6136675477027893,0.8112388253211975,0.26283350586891174
1772701798712961500,6.84996142578125,0.5982823371887207,1.007075548171997,0.34569817781448364
1772701798723009500,6.860009521484375,0.5796979665756226,1.0496770143508911,0.41525888442993164
1772701798733058600,6.87005859375,0.5326183438301086,0.9473459720611572,0.44048646092414856
1772701798743107600,6.880107666015625,0.45046862959861755,0.7606104612350464,0.41518405079841614
1772701798753156400,6.89015625,0.3708330988883972,0.5985227227210999,0.37075158953666687
1772701798763204600,6.90020458984375,0.3180873394012451,0.5130954384803772,0.32893064618110657
1772701798773253400,6.91025341796875,0.2671206295490265,0.4843986928462982,0.28179827332496643
1772701798783302700,6.920302734375,0.20149262249469757,0.4552812874317169,0.23037636280059814
1772701798793351400,6.930351318359375,0.1642993539571762,0.44521456956863403,0.18293002247810364
1772701798803399700,6.940399658203125,0.1332559585571289,0.4269340932369232,0.1288103312253952
1772701798813448400,6.950448486328125,0.1035061851143837,0.39194342494010925,0.06966777890920639
1772701798823497500,6.96049755859375,0.062205880880355835,0.35435718297958374,0.0001198599929921329
1772701798833545500,6.97054541015625,0.016718601807951927,0.2898074686527252,-0.06745665520429611
1772701798843594500,6.980594482421875,-0.023982489481568336,0.18280883133411407,-0.12991683185100555
1772701798853643500,6.9906435546875,-0.07681360095739365,0.046080734580755234,-0.16475456953048706
1772701798863692500,7.000692626953125,-0.1297854781150818,-0.0984085351228714,-0.17568445205688477
1772701798873740500,7.010740478515625,-0.15867620706558228,-0.22033192217350006,-0.17952567338943481
1772701798883789600,7.02078955078125,-0.18837764859199524,-0.332052618265152,-0.19029389321804047
1772701798893838300,7.03083837890625,-0.2051147222518921,-0.48661360144615173,-0.18053045868873596
1772701798903887600,7.0408876953125,-0.18779991567134857,-0.708616316318512,-0.09042852371931076
1772701798913935400,7.050935302734375,-0.16418419778347015,-0.9682248830795288,0.10650436580181122
1772701798923984600,7.060984619140625,-0.17708322405815125,-1.2916669845581055,0.4224889576435089
1772701798934033400,7.071033447265625,-0.2789880335330963,-1.7852513790130615,0.7820333242416382
1772701798944082400,7.08108251953125,-0.5048062205314636,-2.6238417625427246,1.1359293460845947
1772701798954130400,7.09113037109375,-0.769801676273346,-3.5275306701660156,1.3110499382019043
1772701798964179500,7.101179443359375,-0.891731321811676,-3.8870489597320557,1.2363429069519043
1772701798974228500,7.111228515625,-0.867074728012085,-3.4962308406829834,1.0124726295471191
1772701798984277500,7.121277587890625,-0.7504184246063232,-2.621394395828247,0.7400797009468079
1772701798994325500,7.131325439453125,-0.666795551776886,-1.7485134601593018,0.4433504045009613
1772701799004374500,7.14137451171875,-0.6741788983345032,-1.3257379531860352,0.1016378328204155
1772701799014423600,7.151423583984375,-0.7560580968856812,-1.279629111289978,-0.2341802418231964
1772701799024472600,7.16147265625,-0.8296718597412109,-1.3632714748382568,-0.5562693476676941
1772701799034520300,7.171520263671875,-0.782398521900177,-1.4575295448303223,-0.742902398109436
1772701799044569600,7.181569580078125,-0.6544003486633301,-1.5231056213378906,-0.7162148356437683
1772701799054618600,7.19161865234375,-0.5143455266952515,-1.5302696228027344,-0.512545645236969
1772701799064667400,7.20166748046875,-0.317655086517334,-1.5135576725006104,-0.31460943818092346
1772701799074715400,7.21171533203125,-0.11031106859445572,-1.2899372577667236,-0.22761650383472443
1772701799084764400,7.221764404296875,0.09005691111087799,-0.9228532910346985,-0.22250641882419586
1772701799094813700,7.231813720703125,0.2540302574634552,-0.6245861649513245,-0.2717564105987549
1772701799104862500,7.241862548828125,0.3652702271938324,-0.428650438785553,-0.32361266016960144
1772701799114910700,7.25191064453125,0.42712700366973877,-0.22054240107536316,-0.36987000703811646
1772701799124959500,7.26195947265625,0.42270588874816895,0.042217057198286057,-0.45989444851875305
1772701799135008500,7.272008544921875,0.38019493222236633,0.35450437664985657,-0.5802261829376221
1772701799145057500,7.2820576171875,0.3324958384037018,0.6468544602394104,-0.6933155059814453
1772701799155105500,7.29210546875,0.3013187348842621,0.9419535994529724,-0.791456937789917
1772701799165154600,7.302154541015625,0.2898452877998352,1.1891151666641235,-0.863178014755249
1772701799175203600,7.31220361328125,0.29738107323646545,1.4100725650787354,-0.923030436038971
1772701799185251600,7.32225146484375,0.2752360701560974,1.6167213916778564,-0.997660219669342
1772701799195300600,7.332300537109375,0.23506544530391693,1.7944438457489014,-1.0514636039733887
1772701799205349400,7.342349365234375,0.1625789999961853,1.948249101638794,-1.0646740198135376
1772701799215398700,7.352398681640625,0.02622489258646965,2.0653536319732666,-1.0661909580230713
1772701799225446400,7.3624462890625,-0.13570062816143036,2.094146251678467,-1.0870674848556519
1772701799235495700,7.37249560546875,-0.3058423399925232,1.918222188949585,-1.1322381496429443
1772701799245544400,7.38254443359375,-0.49484050273895264,1.4965773820877075,-1.232682228088379
1772701799255593500,7.392593505859375,-0.691157341003418,0.8411293029785156,-1.415394902229309
1772701799265641500,7.402641357421875,-0.8231177926063538,-0.07689744979143143,-1.7256182432174683
1772701799275690500,7.4126904296875,-0.7857657074928284,-0.8032305240631104,-1.9525316953659058
1772701799285739500,7.422739501953125,-0.6606067419052124,-1.3442226648330688,-2.073479413986206
1772701799295788500,7.43278857421875,-0.42126408219337463,-1.3668674230575562,-1.9409514665603638
1772701799305836500,7.44283642578125,-0.07430507987737656,-0.6912551522254944,-1.4586106538772583
1772701799315885600,7.452885498046875,0.26249513030052185,0.4210966229438782,-0.7061778903007507
1772701799325934600,7.4629345703125,0.3883262872695923,0.9183820486068726,-0.2577660083770752
1772701799335983600,7.472983642578125,0.38632601499557495,0.7382122278213501,-0.16795554757118225
1772701799346031400,7.48303125,0.39499354362487793,0.3818226754665375,-0.20077474415302277
1772701799356080600,7.49308056640625,0.4075702130794525,0.023521985858678818,-0.23093438148498535
1772701799366129700,7.503129638671875,0.43963518738746643,-0.26210150122642517,-0.1934700906276703
1772701799376178400,7.513178466796875,0.47884422540664673,-0.4907289743423462,-0.1194552481174469
1772701799386226700,7.523226806640625,0.5283433198928833,-0.6093574166297913,0.015072198584675789
1772701799396275500,7.533275390625,0.5625308752059937,-0.6731916069984436,0.23540589213371277
1772701799406324700,7.54332470703125,0.5861685276031494,-0.6972005367279053,0.6077666878700256
1772701799416373500,7.55337353515625,0.60788893699646,-0.745453953742981,1.0734742879867554
1772701799426421800,7.563421875,0.6647951006889343,-0.9015924334526062,1.6114474534988403
1772701799436470500,7.573470458984375,0.7173100113868713,-1.270351767539978,2.116048812866211
1772701799446519600,7.58351953125,0.5724324584007263,-1.8596112728118896,2.13863468170166
1772701799456568600,7.593568603515625,0.2690375745296478,-2.07950496673584,2.028912305831909
1772701799466616600,7.603616455078125,0.04475334286689758,-1.3092275857925415,1.796891450881958
1772701799476665600,7.61366552734375,0.23860035836696625,0.14071650803089142,1.647667407989502
1772701799486714600,7.623714599609375,0.7080519795417786,1.7033497095108032,1.697618007659912
1772701799496763400,7.633763427734375,0.9130894541740417,2.700227975845337,1.7444552183151245
1772701799506811600,7.643811767578125,0.9375883936882019,2.6779568195343018,1.6156316995620728
1772701799516860400,7.6538603515625,0.6616045832633972,2.027940273284912,1.1155338287353516
1772701799526909700,7.66390966796875,0.0020783680956810713,1.067899227142334,0.49543240666389465
1772701799536958500,7.67395849609375,-0.3098933696746826,0.3782951235771179,0.31365489959716797
1772701799547006700,7.6840068359375,-0.471102237701416,0.37044385075569153,0.4675152897834778
1772701799557055500,7.694055419921875,-0.5407780408859253,0.44888460636138916,0.6626082062721252
1772701799567104500,7.7041044921875,-0.49043896794319153,0.5658863186836243,0.7530786991119385
1772701799577153500,7.714153564453125,-0.42081302404403687,0.8039019703865051,0.7562417387962341
1772701799587201500,7.724201416015625,-0.36580491065979004,0.9674762487411499,0.669501006603241
1772701799597250600,7.73425048828125,-0.34196633100509644,1.050804853439331,0.4970526695251465
1772701799607299600,7.744299560546875,-0.35905423760414124,1.0884227752685547,0.317768931388855
1772701799617347600,7.75434765625,-0.35407555103302,1.090305209159851,0.16014403104782104
1772701799627396600,7.764396728515625,-0.3140791356563568,1.0225716829299927,0.031975142657756805
1772701799637445400,7.7744453125,-0.2375069260597229,0.852498471736908,-0.05248275399208069
1772701799647494700,7.78449462890625,-0.14435754716396332,0.6320632696151733,-0.08591794222593307
1772701799657542400,7.79454248046875,-0.0436272919178009,0.43362346291542053,-0.06532131880521774
1772701799667591700,7.804591796875,0.028339043259620667,0.2502965033054352,-0.035248368978500366
1772701799677640400,7.814640380859375,0.07847651094198227,0.05286826938390732,-0.006829787045717239
1772701799687689500,7.824689453125,0.10441064089536667,-0.07705990225076675,0.02926616370677948
1772701799697737500,7.834737548828125,0.11732932925224304,-0.06009674444794655,0.07122041285037994
1772701799707786500,7.844786376953125,0.1117771714925766,0.047584179788827896,0.1184486448764801
1772701799717835500,7.85483544921875,0.0870865136384964,0.16632333397865295,0.161814883351326
1772701799727884500,7.864884521484375,0.04960918053984642,0.23018991947174072,0.18966595828533173
1772701799737932500,7.8749326171875,-0.0017736724112182856,0.2429780662059784,0.1848991960287094
1772701799747981600,7.884981689453125,-0.05365338176488876,0.2129804939031601,0.14308063685894012
1772701799758030600,7.895030517578125,-0.13175226747989655,0.13220341503620148,0.02957778051495552
1772701799768079600,7.90507958984375,-0.1988772451877594,0.0899033471941948,-0.08979468047618866
1772701799778127400,7.91512744140625,-0.24674494564533234,0.09754371643066406,-0.17340555787086487
1772701799788176600,7.9251767578125,-0.2812778949737549,0.12706086039543152,-0.27372363209724426
1772701799798225700,7.9352255859375,-0.3298827111721039,0.16914333403110504,-0.4110492765903473
1772701799808274400,7.9452744140625,-0.3919799029827118,0.21467353403568268,-0.5624907612800598
1772701799818322400,7.955322509765625,-0.45348766446113586,0.28201258182525635,-0.7096067070960999
1772701799828371500,7.965371337890625,-0.515011191368103,0.3938746750354767,-0.8429315090179443
1772701799838420700,7.975420654296875,-0.5509016513824463,0.49095481634140015,-0.9168802499771118
1772701799848469500,7.985469482421875,-0.5752519965171814,0.47493723034858704,-0.9073586463928223
1772701799858517800,7.995517822265625,-0.5835695266723633,0.4152050018310547,-0.8176273107528687
1772701799868566500,8.00556640625,-0.5729073286056519,0.3249789774417877,-0.6711683869361877
1772701799878615600,8.015615478515626,-0.583511471748352,0.1891910433769226,-0.5622706413269043
1772701799888664600,8.02566455078125,-0.6017948985099792,0.02607748843729496,-0.48488956689834595
1772701799898712600,8.035712646484376,-0.5926610827445984,-0.12219664454460144,-0.42279115319252014
1772701799908761600,8.04576171875,-0.5724127888679504,-0.15421903133392334,-0.36611029505729675
1772701799918810600,8.055810546875,-0.5440176129341125,-0.049358680844306946,-0.3529943823814392
1772701799928859400,8.065859375,-0.4818383753299713,0.14801697432994843,-0.370528906583786
1772701799938907600,8.07590771484375,-0.398178368806839,0.27678415179252625,-0.38226279616355896
1772701799948956400,8.085956298828124,-0.3467058539390564,0.09261457622051239,-0.38448813557624817
1772701799959005700,8.096005615234375,-0.356781542301178,-0.4000798761844635,-0.35020774602890015
1772701799969054500,8.106054443359374,-0.4077698886394501,-0.8995431661605835,-0.2657224237918854
1772701799979102700,8.116102783203125,-0.45230957865715027,-1.0799750089645386,-0.17867980897426605
1772701799989151500,8.1261513671875,-0.46163198351860046,-0.9024628400802612,-0.15170598030090332
1772701799999200500,8.136200439453125,-0.4737841486930847,-0.6382087469100952,-0.12627452611923218
1772701800009249500,8.14624951171875,-0.4473631680011749,-0.4683230519294739,-0.06809989362955093
1772701800019297500,8.156297607421875,-0.33887842297554016,-0.45055556297302246,0.027239929884672165
1772701800029346600,8.1663466796875,-0.24586591124534607,-0.4685057997703552,0.1361328661441803
1772701800039395600,8.1763955078125,-0.2021954506635666,-0.4979711174964905,0.24718360602855682
1772701800049444400,8.1864443359375,-0.17945897579193115,-0.5411263108253479,0.3686666190624237
1772701800059492600,8.19649267578125,-0.2011127471923828,-0.6458295583724976,0.4357350170612335
1772701800069541400,8.206541259765626,-0.21944008767604828,-0.7874442338943481,0.5017286539077759
1772701800079590700,8.216590576171875,-0.24148866534233093,-0.8838919401168823,0.5910114049911499
1772701800089639400,8.226639404296876,-0.24886402487754822,-0.8863588571548462,0.7081140875816345
1772701800099687700,8.236687744140625,-0.1957470029592514,-0.7660607099533081,0.7953278422355652
1772701800109736400,8.246736328125,-0.09127040207386017,-0.515767514705658,0.8095110058784485
1772701800119785500,8.256785400390624,0.02271963842213154,-0.20599611103534698,0.7639565467834473
1772701800129834800,8.266834716796875,0.10737113654613495,0.013853691518306732,0.7127048373222351
1772701800139882500,8.276882568359374,0.1277291476726532,0.02671956457197666,0.708678662776947
1772701800149931500,8.286931640625,0.10606992244720459,-0.15416233241558075,0.7150849103927612
1772701800159980500,8.29698046875,0.008493832312524319,-0.3529711663722992,0.6940904259681702
1772701800170029600,8.307029541015625,-0.1257782280445099,-0.4648313820362091,0.6543086767196655
1772701800180077600,8.31707763671875,-0.2483493685722351,-0.36668646335601807,0.637215256690979
1772701800190126300,8.327126220703125,-0.31034934520721436,-0.07569403946399689,0.6447523236274719
1772701800200175600,8.337175537109376,-0.3301060199737549,0.17029906809329987,0.6621328592300415
1772701800210224600,8.347224609375,-0.338467538356781,0.2642117142677307,0.7199714183807373
1772701800220272000,8.357272216796876,-0.35557693243026733,0.2022818773984909,0.7951353788375854
1772701800230321000,8.36732080078125,-0.3751884400844574,0.058993156999349594,0.8801807761192322
1772701800240370000,8.377369873046876,-0.36761099100112915,-0.1257491260766983,0.9538266062736511
1772701800250419000,8.3874189453125,-0.34853076934814453,-0.3382134437561035,0.9976529479026794
1772701800260467000,8.397467041015625,-0.3256484270095825,-0.4580824375152588,1.0027791261672974
1772701800270516000,8.407515869140624,-0.2908896505832672,-0.37253105640411377,0.94661545753479
1772701800280565000,8.41756494140625,-0.2680622637271881,-0.18354079127311707,0.8447558879852295
1772701800290614000,8.427614013671874,-0.2783980071544647,-0.010101106017827988,0.741905152797699
1772701800300662000,8.437662109375,-0.28155946731567383,0.08503781259059906,0.6352113485336304
1772701800310710800,8.447710693359374,-0.3164956271648407,0.10855352878570557,0.47692665457725525
1772701800320760000,8.457760009765625,-0.3460333049297333,0.07768938690423965,0.3117698132991791
1772701800330808800,8.467808837890624,-0.3583267331123352,0.031180746853351593,0.15939196944236755
1772701800340857000,8.477857177734375,-0.34593379497528076,0.04356834664940834,0.08990263938903809
1772701800350905900,8.48790576171875,-0.3043016791343689,0.05937660112977028,0.04334365949034691
1772701800360955000,8.497954833984375,-0.23827388882637024,0.08712994307279587,0.0024208887480199337
1772701800371004200,8.508004150390626,-0.21568042039871216,0.15017709136009216,0.00031352948280982673
1772701800381052000,8.518052001953125,-0.1986156404018402,0.14538589119911194,-0.0033468706533312798
1772701800391101000,8.528100830078126,-0.20145216584205627,0.20528677105903625,-0.002312765223905444
1772701800401150000,8.53814990234375,-0.21343794465065002,0.29625964164733887,0.004837407730519772
1772701800411199000,8.548198974609376,-0.21326856315135956,0.3749917447566986,-0.010233687236905098
1772701800421247000,8.5582470703125,-0.21046079695224762,0.42793577909469604,-0.046000752598047256
1772701800431296000,8.5682958984375,-0.21504728496074677,0.4929398000240326,-0.07578128576278687
1772701800441345000,8.578344970703125,-0.1869516372680664,0.5460092425346375,-0.08156539499759674
1772701800451394000,8.58839404296875,-0.17262916266918182,0.5386285185813904,-0.0780383050441742
1772701800461442000,8.598442138671874,-0.1605278104543686,0.5380083322525024,-0.045152898877859116
1772701800471491000,8.608490966796875,-0.16064418852329254,0.5042338371276855,-0.0011124684242531657
1772701800481539800,8.618539794921874,-0.16075675189495087,0.45418012142181396,0.04038888216018677
1772701800491589000,8.628589111328125,-0.1707254946231842,0.4157019555568695,0.08713322132825851
1772701800501636900,8.638636962890626,-0.1703583002090454,0.35238972306251526,0.12311720103025436
1772701800511686100,8.64868603515625,-0.15483206510543823,0.26885756850242615,0.16809560358524323
1772701800521735000,8.65873486328125,-0.1302906721830368,0.1519061028957367,0.21211788058280945
1772701800531784000,8.668783935546875,-0.10311152040958405,0.05305568873882294,0.25766992568969727
1772701800541832000,8.67883203125,-0.08655296266078949,-0.016221165657043457,0.27920958399772644
1772701800551881000,8.688880859375,-0.07608567178249359,-0.046772152185440063,0.2880326211452484
1772701800561930000,8.698929931640626,-0.0701122060418129,-0.03504037484526634,0.2791840136051178
1772701800571979000,8.70897900390625,-0.07176043838262558,0.00196637911722064,0.2428683638572693
1772701800582027000,8.719027099609375,-0.06495579332113266,0.04525047168135643,0.1837368607521057
1772701800592076000,8.729075927734375,-0.050663940608501434,0.06956726312637329,0.10336186736822128
1772701800602125000,8.739125,-0.036240123212337494,0.06529080867767334,0.04145919904112816
1772701800612174000,8.749174072265625,-0.03302275761961937,0.04887747764587402,0.011898640543222427
1772701800622221800,8.759221923828125,-0.0342777743935585,0.02858586236834526,-0.005604047793895006
1772701800632271000,8.76927099609375,-0.021788083016872406,0.011013790033757687,-0.007577450014650822
1772701800642320000,8.77931982421875,-0.003153500845655799,-0.016642024740576744,0.028989620506763458
1772701800652369000,8.789368896484374,0.007534296717494726,-0.01733631081879139,0.056832168251276016
1772701800662417000,8.7994169921875,0.017522795125842094,0.012135537341237068,0.055421892553567886
1772701800672466000,8.8094658203125,0.03248177096247673,0.05246219038963318,0.04013694450259209
1772701800682515000,8.819514892578125,0.041886188089847565,0.0858871340751648,0.01455649547278881
1772701800692564000,8.82956396484375,0.04912306368350983,0.12224274128675461,-0.019285889342427254
1772701800702612000,8.839612060546875,0.04916611686348915,0.18053658306598663,-0.05204144865274429
1772701800712661000,8.849660888671876,0.048469703644514084,0.2261860966682434,-0.0596809908747673
1772701800722710000,8.8597099609375,0.04609660059213638,0.24616244435310364,-0.03237094357609749
1772701800732759000,8.869759033203126,0.03848288953304291,0.21921443939208984,0.0026797186583280563
1772701800742806800,8.879806884765625,0.033327847719192505,0.1803237795829773,0.027364719659090042
1772701800752856000,8.88985595703125,0.06036932021379471,0.13833771646022797,0.19366422295570374
1772701800762904800,8.89990478515625,0.05088811740279198,0.14994990825653076,0.19598698616027832
1772701800772954000,8.9099541015625,0.004516358487308025,0.17102298140525818,0.06579464673995972
1772701800783001900,8.920001953125,-0.0394926443696022,0.29720568656921387,-0.0786466896533966
1772701800793051000,8.93005078125,-0.046008866280317307,0.41216716170310974,-0.14904895424842834
1772701800803100200,8.94010009765625,-0.03978026658296585,0.4547436535358429,-0.1587119698524475
1772701800813149000,8.95014892578125,-0.02538374997675419,0.3969050943851471,-0.16091494262218475
