time,seconds_elapsed,z,y,x
1772701791922538000,0.0595380859375,-0.11346877366304398,0.17302531003952026,-0.22895488142967224
1772701791932586000,0.0695859375,-0.09875454008579254,0.15225425362586975,-0.17868798971176147
1772701791942635000,0.079635009765625,-0.08049004524946213,0.14485812187194824,-0.14259016513824463
1772701791952684000,0.08968408203125,-0.058995943516492844,0.12637977302074432,-0.11896660178899765
1772701791962733000,0.099733154296875,-0.03405969962477684,0.093210369348526,-0.09830739349126816
1772701791972781000,0.109781005859375,-0.006419549696147442,0.06940224021673203,-0.08712025731801987
1772701791982830000,0.119830078125,0.008217183873057365,0.06006040796637535,-0.08534206449985504
1772701791992878800,0.12987890625,0.02244352363049984,0.09025745838880539,-0.1004597619175911
1772701792002927000,0.139927001953125,0.03917962685227394,0.10827640444040298,-0.11374227702617645
1772701792012975900,0.149975830078125,0.055395081639289856,0.09335338324308395,-0.1184597983956337
1772701792023025200,0.160025146484375,0.08393032103776932,0.09577153623104095,-0.12826450169086456
1772701792033074000,0.170073974609375,0.11641875654459,0.09216215461492538,-0.12919659912586212
1772701792043122200,0.1801220703125,0.1414753645658493,0.07271015644073486,-0.12718245387077332
1772701792053171000,0.1901708984375,0.1496635228395462,0.05174575373530388,-0.12332087010145187
1772701792063220000,0.200219970703125,0.15414242446422577,0.030959779396653175,-0.12195146828889847
1772701792073268000,0.21026806640625,0.14446157217025757,0.012855078093707561,-0.1155678778886795
1772701792083317000,0.22031689453125,0.1357298642396927,0.010235060937702656,-0.1043170839548111
1772701792093366000,0.230365966796875,0.1122162863612175,0.038970835506916046,-0.10303317755460739
1772701792103414000,0.2404140625,0.09321542829275131,0.08377639204263687,-0.12192244082689285
1772701792113463000,0.250463134765625,0.0831228494644165,0.13083897531032562,-0.1481442004442215
1772701792123512000,0.260511962890625,0.07917870581150055,0.15820881724357605,-0.16824279725551605
1772701792133560800,0.270560791015625,0.0765823945403099,0.15722423791885376,-0.1804264932870865
1772701792143609000,0.280609130859375,0.07227525860071182,0.15053704380989075,-0.17211876809597015
1772701792153657900,0.290657958984375,0.06710047274827957,0.14386077225208282,-0.15526069700717926
1772701792163707100,0.30070703125,0.06335340440273285,0.13570456206798553,-0.11821398884057999
1772701792173755000,0.3107548828125,0.05902949720621109,0.12689855694770813,-0.07666707783937454
1772701792183804200,0.32080419921875,0.06170171499252319,0.12198875844478607,-0.04177940636873245
1772701792193853000,0.33085302734375,0.06331026554107666,0.11206848174333572,-0.0108886007219553
1772701792203901000,0.34090087890625,0.06262556463479996,0.10891556739807129,0.01110298465937376
1772701792213950000,0.350949951171875,0.06440269201993942,0.1061599925160408,0.021832328289747238
1772701792223999000,0.3609990234375,0.07002329081296921,0.10104192793369293,0.02262275479733944
1772701792234048000,0.371048095703125,0.08753517270088196,0.10242677479982376,0.012973588891327381
1772701792244096000,0.381095947265625,0.10972543060779572,0.09137412160634995,0.005857889074832201
1772701792254145000,0.39114501953125,0.12293843924999237,0.06576516479253769,0.015084942802786827
1772701792264194000,0.401194091796875,0.1274453103542328,0.051529236137866974,0.04372937232255936
1772701792274242000,0.411241943359375,0.1284855306148529,0.04842159524559975,0.054545532912015915
1772701792284291000,0.421291015625,0.12625247240066528,0.05000218003988266,0.062010373920202255
1772701792294339800,0.43133984375,0.13223420083522797,0.05795358121395111,0.060496632009744644
1772701792304388000,0.44138818359375,0.1355418562889099,0.05913921818137169,0.04700559005141258
1772701792314436900,0.451436767578125,0.14151638746261597,0.058877430856227875,0.01974121481180191
1772701792324486100,0.461486083984375,0.1322467178106308,0.05567258223891258,-0.011329087428748608
1772701792334535000,0.471534912109375,0.10667877644300461,0.041298169642686844,-0.04914011433720589
1772701792344583000,0.4815830078125,0.0924535021185875,0.05728406086564064,-0.07634563744068146
1772701792354632000,0.4916318359375,0.06132301315665245,0.023905333131551743,-0.1159345954656601
1772701792364681000,0.501680908203125,-0.009372995235025883,-0.07921838760375977,-0.18671394884586334
1772701792374729000,0.51172900390625,-0.108714759349823,-0.18219244480133057,-0.2756057381629944
1772701792384778000,0.521778076171875,-0.2214793860912323,-0.2605791389942169,-0.3922277092933655
1772701792394827000,0.531826904296875,-0.28570765256881714,-0.297596275806427,-0.5173068046569824
1772701792404876000,0.5418759765625,-0.25114142894744873,-0.261288046836853,-0.6135334372520447
1772701792414924000,0.551924072265625,-0.1770504117012024,-0.16864441335201263,-0.6692097783088684
1772701792424973000,0.56197314453125,-0.09976360946893692,-0.05016516521573067,-0.6930336356163025
1772701792435021800,0.572021728515625,-0.04537813365459442,0.08451541513204575,-0.696447491645813
1772701792445070000,0.582070068359375,-0.026156501844525337,0.2527049481868744,-0.6987122893333435
1772701792455118800,0.592118896484375,-0.035051193088293076,0.46147653460502625,-0.6833330392837524
1772701792465168000,0.60216796875,-0.048291098326444626,0.6682949662208557,-0.6286903023719788
1772701792475216000,0.6122158203125,-0.03597664460539818,0.8293150067329407,-0.5418832302093506
1772701792485265000,0.622264892578125,0.021437380462884903,0.8878995180130005,-0.3985668122768402
1772701792495314000,0.63231396484375,0.09600242972373962,0.8070517778396606,-0.24400468170642853
1772701792505363000,0.642363037109375,0.15638534724712372,0.594297468662262,-0.10308004915714264
1772701792515411000,0.652410888671875,0.19817672669887543,0.2594299614429474,0.005486644338816404
1772701792525460000,0.6624599609375,0.2299399971961975,-0.04917580261826515,0.08899405598640442
1772701792535509000,0.672509033203125,0.26279568672180176,-0.13943059742450714,0.1411547213792801
1772701792545557000,0.682556884765625,0.3426406979560852,-0.17848213016986847,0.13011911511421204
1772701792555606000,0.69260595703125,0.49718794226646423,-0.12152057141065598,0.13372930884361267
1772701792565655000,0.702655029296875,0.6605933904647827,-0.04963945969939232,0.18244677782058716
1772701792575704000,0.7127041015625,0.7447633743286133,-0.21188722550868988,0.23319783806800842
1772701792585752000,0.722751953125,0.7547081708908081,-0.574718177318573,0.30103227496147156
1772701792595800800,0.73280078125,0.6987159848213196,-0.9026773571968079,0.3942098915576935
1772701792605849900,0.742849853515625,0.6009559035301208,-1.0282789468765259,0.4669346809387207
1772701792615897900,0.75289794921875,0.5252515077590942,-0.9517495632171631,0.5280715227127075
1772701792625947000,0.76294677734375,0.512557864189148,-0.7227116227149963,0.7127649784088135
1772701792635996200,0.77299609375,0.5762068629264832,-0.5199060440063477,1.04252028465271
1772701792646044000,0.7830439453125,0.5950614809989929,-0.21850571036338806,1.4305510520935059
1772701792656093000,0.793093017578125,0.5241769552230835,0.017887920141220093,1.67156183719635
1772701792666142000,0.803141845703125,0.283137708902359,-0.5558853149414062,1.6279985904693604
1772701792676191000,0.81319091796875,-0.1079658791422844,-1.276092290878296,1.4116610288619995
1772701792686239000,0.823239013671875,-0.5042341351509094,-1.4919835329055786,1.0494306087493896
1772701792696288000,0.8332880859375,-0.6833639144897461,-1.2937607765197754,0.7011343836784363
1772701792706337000,0.8433369140625,-0.6634453535079956,-0.9440029859542847,0.4570216238498688
1772701792716384800,0.853384765625,-0.540209174156189,-0.7206918597221375,0.3186056911945343
1772701792726434000,0.86343408203125,-0.3609485924243927,-0.6101669669151306,0.28130677342414856
1772701792736483000,0.873483154296875,-0.1412157118320465,-0.5686290860176086,0.2936079204082489
1772701792746531800,0.88353173828125,0.03404691815376282,-0.6417200565338135,0.3248569071292877
1772701792756579800,0.893579833984375,0.11166394501924515,-0.8747610449790955,0.2553670406341553
1772701792766628900,0.90362890625,0.09879608452320099,-1.228790521621704,0.06874870508909225
1772701792776678100,0.91367822265625,0.12987090647220612,-1.2817304134368896,-0.14361335337162018
1772701792786726000,0.923725830078125,0.31284844875335693,-0.9377549290657043,-0.37262603640556335
1772701792796775200,0.933775146484375,0.4698122441768646,-0.4623761475086212,-0.5497004389762878
1772701792806824000,0.943823974609375,0.5292742252349854,-0.009691243059933186,-0.6313276290893555
1772701792816873000,0.953873046875,0.5095846652984619,0.2510351538658142,-0.6934946179389954
1772701792826921000,0.9639208984375,0.4469047784805298,0.4798201322555542,-0.7365413904190063
1772701792836970000,0.973969970703125,0.42284393310546875,0.5650410056114197,-0.7598792314529419
1772701792847019000,0.98401904296875,0.40267741680145264,0.48340633511543274,-0.7634718418121338
1772701792857067000,0.99406689453125,0.3326035141944885,0.1382705271244049,-0.7849643230438232
1772701792867116000,1.004115966796875,0.2249649316072464,-0.3978099524974823,-0.8250230550765991
1772701792877165000,1.0141650390625,0.12742693722248077,-0.5413545966148376,-0.7715145945549011
1772701792887213000,1.024213134765625,0.0049465554766356945,-0.41781294345855713,-0.6213279962539673
1772701792897262000,1.034261962890625,-0.13329388201236725,-0.2989957630634308,-0.4269651770591736
1772701792907310800,1.044310791015625,-0.2572166323661804,-0.23536591231822968,-0.21026109158992767
1772701792917360000,1.054360107421875,-0.3417261838912964,-0.1689288318157196,0.027531493455171585
1772701792927407900,1.064407958984375,-0.36992931365966797,-0.02467924728989601,0.29324573278427124
1772701792937457200,1.07445703125,-0.331782728433609,0.1541147381067276,0.5824498534202576
1772701792947506000,1.084505859375,-0.2510857582092285,0.2604544758796692,0.9001849293708801
1772701792957554200,1.09455419921875,-0.15876008570194244,0.1655450165271759,1.1863505840301514
1772701792967603000,1.10460302734375,-0.08967955410480499,-0.11353641748428345,1.3564022779464722
1772701792977652000,1.11465185546875,-0.0024205471854656935,-0.34726423025131226,1.4410444498062134
1772701792987701000,1.124700927734375,0.06768424063920975,-0.47754791378974915,1.4647095203399658
1772701792997749000,1.1347490234375,0.10187762975692749,-0.5608912706375122,1.4421645402908325
1772701793007798000,1.144798095703125,0.11167300492525101,-0.6181103587150574,1.3425514698028564
1772701793017847000,1.154846923828125,0.12326601147651672,-0.6128892302513123,1.1624194383621216
1772701793027895000,1.16489501953125,0.11827550828456879,-0.3472077548503876,0.8626604676246643
1772701793037944000,1.174944091796875,0.13051752746105194,0.06942860782146454,0.5214282870292664
1772701793047992800,1.184992919921875,0.1664249300956726,0.4198595881462097,0.16975520551204681
1772701793058042000,1.1950419921875,0.21181665360927582,0.5687372088432312,-0.15553367137908936
1772701793068089900,1.20508984375,0.26015302538871765,0.5066863894462585,-0.43366435170173645
1772701793078139100,1.21513916015625,0.3067335784435272,0.4242173135280609,-0.659453272819519
1772701793088188000,1.22518798828125,0.3551788628101349,0.4335290789604187,-0.8071668148040771
1772701793098236200,1.235236083984375,0.41852349042892456,0.5038554072380066,-0.8488181233406067
1772701793108285000,1.245284912109375,0.4907958209514618,0.5537119507789612,-0.7694751024246216
1772701793118334000,1.255333984375,0.5664042830467224,0.44535696506500244,-0.5836807489395142
1772701793128382000,1.2653818359375,0.6601960062980652,0.06376832723617554,-0.27598685026168823
1772701793138431000,1.275430908203125,0.7568455934524536,-0.6458245515823364,0.19356600940227509
1772701793148480000,1.28547998046875,0.7358790636062622,-1.445407748222351,0.6976051926612854
1772701793158529000,1.295529052734375,0.5591974854469299,-1.676579236984253,0.9283078908920288
1772701793168577000,1.305576904296875,0.32921889424324036,-1.0729279518127441,0.7620155811309814
1772701793178626000,1.3156259765625,0.25384026765823364,-0.2648039758205414,0.19026687741279602
1772701793188674800,1.3256748046875,0.29143691062927246,-0.01215946115553379,-0.6216779351234436
1772701793198724000,1.33572412109375,0.3405493199825287,-0.20589883625507355,-1.3659017086029053
1772701793208771800,1.345771728515625,0.33814263343811035,-0.4206835627555847,-1.7724425792694092
1772701793218821400,1.3558212890625,0.22682489454746246,-0.449311763048172,-1.8591551780700684
1772701793228870400,1.365870361328125,0.11683154106140137,-0.2685537040233612,-1.690399169921875
1772701793238918400,1.37591845703125,0.017237842082977295,-0.09690017998218536,-1.4287656545639038
1772701793248967200,1.38596728515625,-0.020596621558070183,0.029165608808398247,-1.2119039297103882
1772701793259016200,1.39601611328125,-0.0009070726810023189,0.11219684779644012,-1.000920057296753
1772701793269064200,1.406064208984375,0.007692274637520313,0.10073833167552948,-0.7268227338790894
1772701793279113200,1.41611328125,-0.029500899836421013,0.02491706795990467,-0.3691234588623047
1772701793289162500,1.42616259765625,-0.11766272038221359,-0.1454956829547882,0.028608208522200584
1772701793299211300,1.436211181640625,-0.21368512511253357,-0.3059055805206299,0.40970656275749207
1772701793309259300,1.44625927734375,-0.27947771549224854,-0.34195494651794434,0.7263590693473816
1772701793319308300,1.456308349609375,-0.30853042006492615,-0.36392122507095337,0.9841618537902832
1772701793329357300,1.466357421875,-0.3288191556930542,-0.4088732600212097,1.1897523403167725
1772701793339405300,1.4764052734375,-0.32532110810279846,-0.47112971544265747,1.3361715078353882
1772701793349454300,1.486454345703125,-0.3098936676979065,-0.4964691400527954,1.4105794429779053
1772701793359503400,1.49650341796875,-0.27968063950538635,-0.45079460740089417,1.4348301887512207
1772701793369552400,1.506552490234375,-0.24624359607696533,-0.31713375449180603,1.4217631816864014
1772701793379600400,1.516600341796875,-0.20274299383163452,-0.16925133764743805,1.3953096866607666
1772701793389649400,1.5266494140625,-0.16006477177143097,-0.11816072463989258,1.3591845035552979
1772701793399698200,1.5366982421875,-0.14549195766448975,-0.1420452892780304,1.2850977182388306
1772701793409746200,1.54674609375,-0.1605241596698761,-0.17868132889270782,1.1641985177993774
1772701793419795200,1.556795166015625,-0.1803455352783203,-0.14139680564403534,0.9752508997917175
1772701793429844500,1.566844482421875,-0.20014773309230804,0.027633758261799812,0.7326212525367737
1772701793439893200,1.576893310546875,-0.21331466734409332,0.30067381262779236,0.4443497657775879
1772701793449941500,1.58694140625,-0.21553921699523926,0.5041475892066956,0.14514067769050598
1772701793459990300,1.596990234375,-0.2148880660533905,0.5374248623847961,-0.12936225533485413
1772701793470039300,1.607039306640625,-0.21769849956035614,0.512474775314331,-0.3492163121700287
1772701793480087300,1.61708740234375,-0.21804764866828918,0.5209193825721741,-0.4925053119659424
1772701793490136300,1.62713623046875,-0.185465469956398,0.615595281124115,-0.5333816409111023
1772701793500185300,1.637185302734375,-0.12186864763498306,0.7978212833404541,-0.4567398428916931
1772701793510233300,1.6472333984375,-0.036611806601285934,1.0748339891433716,-0.29203611612319946
1772701793520282400,1.657282470703125,0.007949535734951496,1.335135817527771,-0.10775496065616608
1772701793530331400,1.667331298828125,0.0012500877492129803,1.4332677125930786,0.03534068167209625
1772701793540380200,1.677380126953125,-0.05503715202212334,1.3698352575302124,0.09220476448535919
1772701793550428400,1.687428466796875,-0.11521100997924805,1.2307820320129395,0.04543565958738327
1772701793560477200,1.697477294921875,-0.1489175707101822,1.0166285037994385,-0.0741911381483078
1772701793570526500,1.7075263671875,-0.1256340891122818,0.7991049289703369,-0.19060616195201874
1772701793580574200,1.71757421875,-0.10700847208499908,0.8005422353744507,-0.26166144013404846
1772701793590623500,1.72762353515625,-0.0999889150261879,0.7865701913833618,-0.3019388020038605
1772701793600672300,1.73767236328125,-0.09425299614667892,0.8174343705177307,-0.30772265791893005
1772701793610721300,1.74772119140625,-0.10496024042367935,0.9831818342208862,-0.26030242443084717
1772701793620769300,1.757769287109375,-0.13380147516727448,1.0881085395812988,-0.16235508024692535
1772701793630818300,1.767818359375,-0.18055033683776855,0.9914594292640686,-0.04094024375081062
1772701793640867300,1.777867431640625,-0.22950589656829834,0.7690788507461548,0.09435313194990158
1772701793650915300,1.787915283203125,-0.27485206723213196,0.5099500417709351,0.20424021780490875
1772701793660964400,1.79796435546875,-0.32080039381980896,0.3678291440010071,0.24114631116390228
1772701793671013400,1.808013427734375,-0.326774924993515,0.34289395809173584,0.2059563547372818
1772701793681062100,1.818062255859375,-0.27194949984550476,0.29019293189048767,0.161278635263443
1772701793691110400,1.8281103515625,-0.16244404017925262,0.21776162087917328,0.18570542335510254
1772701793701159200,1.8381591796875,-0.06357710808515549,-0.03110145963728428,0.35783112049102783
1772701793711208400,1.84820849609375,0.003658917034044862,-0.5197073817253113,0.6521040201187134
1772701793721256200,1.858256103515625,0.010970626026391983,-0.9174765944480896,0.9433984160423279
1772701793731305500,1.868305419921875,0.0014506238512694836,-1.0631359815597534,1.1187859773635864
1772701793741354200,1.878354248046875,-0.022955382242798805,-1.0423487424850464,1.1937947273254395
1772701793751403300,1.8884033203125,-0.08327171951532364,-0.9475796222686768,1.2230201959609985
1772701793761451300,1.898451171875,-0.20059089362621307,-0.7853097319602966,1.203930139541626
1772701793771500300,1.908500244140625,-0.33052757382392883,-0.632775604724884,1.1723746061325073
1772701793781549300,1.91854931640625,-0.4979107081890106,-0.6393743753433228,1.1246297359466553
1772701793791597300,1.928597412109375,-0.642728865146637,-0.7918126583099365,0.9739227890968323
1772701793801646300,1.938646240234375,-0.6796999573707581,-0.8887226581573486,0.7269082069396973
1772701793811695400,1.9486953125,-0.6378558278083801,-0.9956581592559814,0.474197119474411
1772701793821744000,1.958744140625,-0.5830133557319641,-1.1894646883010864,0.25301122665405273
1772701793831792400,1.96879248046875,-0.5018585920333862,-1.3339952230453491,0.05921165645122528
1772701793841841200,1.978841064453125,-0.40036818385124207,-1.37428879737854,-0.1265624761581421
1772701793851890400,1.988890380859375,-0.3215324878692627,-1.2740086317062378,-0.285417377948761
1772701793861938200,1.998938232421875,-0.26625457406044006,-1.016550898551941,-0.37928685545921326
1772701793871987500,2.008987548828125,-0.1867499053478241,-0.8084715008735657,-0.395108699798584
1772701793882036200,2.0190361328125,-0.09015385806560516,-0.7548016309738159,-0.39685866236686707
1772701793892085200,2.029085205078125,0.024861939251422882,-0.7228407859802246,-0.4631381034851074
1772701793902133200,2.03913330078125,0.15449343621730804,-0.7862983345985413,-0.5281407833099365
1772701793912182300,2.049182373046875,0.22941720485687256,-0.9624203443527222,-0.589895486831665
1772701793922231300,2.059231201171875,0.2351270318031311,-1.1646157503128052,-0.6889869570732117
1772701793932279300,2.069279296875,0.22438836097717285,-1.1869639158248901,-0.7815485596656799
1772701793942328300,2.079328369140625,0.1801639050245285,-1.0154284238815308,-0.8768281936645508
1772701793952377300,2.08937744140625,0.114000603556633,-0.6016941070556641,-0.9392234086990356
1772701793962426000,2.099426025390625,0.021587051451206207,-0.013324061408638954,-0.9897792339324951
1772701793972474400,2.109474365234375,-0.06323862075805664,0.43472161889076233,-1.0135732889175415
1772701793982523100,2.119523193359375,-0.10993795096874237,0.5899210572242737,-0.9369341731071472
1772701793992572400,2.129572509765625,-0.11792663484811783,0.5404437780380249,-0.774588942527771
1772701794002620200,2.1396201171875,-0.10758931189775467,0.40050214529037476,-0.5791813135147095
1772701794012669400,2.14966943359375,-0.0868464782834053,0.296066015958786,-0.41886916756629944
1772701794022718200,2.15971826171875,-0.03172677010297775,0.215375155210495,-0.29120680689811707
1772701794032767200,2.169767333984375,0.055628906935453415,0.1878734976053238,-0.19843453168869019
1772701794042815200,2.179815185546875,0.12980353832244873,0.3258635997772217,-0.1900671422481537
1772701794052864300,2.1898642578125,0.18400178849697113,0.6299425363540649,-0.2669198513031006
1772701794062913300,2.199913330078125,0.23786263167858124,0.9852744936943054,-0.38027942180633545
1772701794072961300,2.209961181640625,0.31221169233322144,1.2685917615890503,-0.48765328526496887
1772701794083010300,2.22001025390625,0.40271949768066406,1.4260679483413696,-0.5439456105232239
1772701794093059300,2.230059326171875,0.509954571723938,1.4288077354431152,-0.5511302351951599
1772701794103108000,2.240108154296875,0.602141797542572,1.1852589845657349,-0.5427053570747375
1772701794113156400,2.25015625,0.6938841938972473,0.837722897529602,-0.5197030901908875
1772701794123205000,2.260205078125,0.7603058815002441,0.49568191170692444,-0.45610442757606506
1772701794133254400,2.27025439453125,0.753075122833252,0.20644718408584595,-0.35447871685028076
1772701794143302100,2.28030224609375,0.6873629093170166,0.06412173062562943,-0.2996461093425751
1772701794153351400,2.290351318359375,0.623965322971344,0.09783761203289032,-0.35373517870903015
1772701794163400200,2.300400146484375,0.5581106543540955,0.18016044795513153,-0.49588778614997864
1772701794173449200,2.31044921875,0.5384280681610107,0.21711847186088562,-0.6170525550842285
1772701794183497200,2.320497314453125,0.5415785908699036,0.21598155796527863,-0.6735293865203857
1772701794193546200,2.330546142578125,0.5549122095108032,0.1553318053483963,-0.6659239530563354
1772701794203595500,2.340595458984375,0.5605477094650269,-0.04050987586379051,-0.5602113604545593
1772701794213643300,2.350643310546875,0.5621248483657837,-0.1712963879108429,-0.3668874502182007
1772701794223692300,2.3606923828125,0.556944727897644,-0.08938980102539062,-0.1750895231962204
1772701794233741300,2.3707412109375,0.5966474413871765,0.22776418924331665,-0.1155279278755188
1772701794243790000,2.3807900390625,0.6662864089012146,0.5817095041275024,-0.18072611093521118
1772701794253838300,2.39083837890625,0.6799367070198059,0.6852523684501648,-0.26268142461776733
1772701794263887000,2.40088720703125,0.5986208319664001,0.5216461420059204,-0.3320399820804596
1772701794273936400,2.410936279296875,0.4736011326313019,0.3714403808116913,-0.38143283128738403
1772701794283984100,2.420984130859375,0.35218387842178345,0.14100399613380432,-0.45211926102638245
1772701794294033400,2.431033447265625,0.21771927177906036,-0.13676024973392487,-0.4909159243106842
1772701794304082200,2.441082275390625,0.07935314625501633,-0.3057471215724945,-0.5013856291770935
1772701794314131200,2.451131103515625,-0.023310648277401924,-0.3215588629245758,-0.4603327214717865
1772701794324179200,2.46117919921875,-0.09911273419857025,-0.25714099407196045,-0.37502768635749817
1772701794334228200,2.471228271484375,-0.16244935989379883,-0.15351605415344238,-0.24737383425235748
1772701794344277200,2.48127734375,-0.2117396742105484,-0.04611369967460632,-0.06451427936553955
1772701794354325200,2.4913251953125,-0.2401404231786728,0.038359373807907104,0.14839665591716766
1772701794364374300,2.501374267578125,-0.233249232172966,0.07422842085361481,0.3489939570426941
1772701794374423300,2.51142333984375,-0.17672443389892578,0.03864859417080879,0.5485826730728149
1772701794384472000,2.52147216796875,-0.10024590790271759,-0.018911372870206833,0.7564557194709778
1772701794394520300,2.531520263671875,-0.013367736712098122,-0.13502731919288635,0.9934828877449036
1772701794404569000,2.541569091796875,0.07655230164527893,-0.24823696911334991,1.2078678607940674
1772701794414618400,2.551618408203125,0.14070917665958405,-0.2047068029642105,1.3556281328201294
1772701794424666000,2.561666015625,0.17086228728294373,-0.020620856434106827,1.4509607553482056
1772701794434715400,2.57171533203125,0.1786014288663864,0.21038173139095306,1.512136697769165
1772701794444764200,2.58176416015625,0.19973361492156982,0.40578213334083557,1.5301463603973389
1772701794454813200,2.591813232421875,0.12946398556232452,0.5775461792945862,1.463032603263855
1772701794464861200,2.601861083984375,-0.038246188312768936,0.7859007120132446,1.264067530632019
1772701794474910200,2.61191015625,-0.20175601541996002,0.941058874130249,0.9308192729949951
1772701794484959200,2.621959228515625,-0.3616634011268616,1.096909999847412,0.4754469692707062
1772701794495007200,2.63200732421875,-0.48803144693374634,1.229988694190979,-0.03591139614582062
1772701794505056300,2.64205615234375,-0.6336142420768738,1.1137059926986694,-0.481893926858902
1772701794515105300,2.652105224609375,-0.7907676100730896,0.7954971194267273,-0.7890639901161194
1772701794525154300,2.662154296875,-0.8497766256332397,0.5000535249710083,-0.9382058382034302
1772701794535202300,2.672202392578125,-0.8149592280387878,0.4204987585544586,-0.9430269598960876
1772701794545251000,2.6822509765625,-0.7227904200553894,0.5898771286010742,-0.8254960179328918
1772701794555300400,2.69230029296875,-0.6669407486915588,0.9366454482078552,-0.6905126571655273
1772701794565348000,2.70234814453125,-0.6123379468917847,1.0250786542892456,-0.525043785572052
1772701794575397400,2.7123974609375,-0.5084384679794312,0.8830400109291077,-0.3082614243030548
1772701794585446400,2.7224462890625,-0.41050922870635986,0.7832149267196655,-0.05896584689617157
1772701794595495200,2.7324951171875,-0.2913724482059479,0.841323733329773,0.15943600237369537
1772701794605543200,2.742543212890625,-0.1577230542898178,0.8323723077774048,0.38475301861763
1772701794615592200,2.75259228515625,0.014104633592069149,0.6507303714752197,0.6575626730918884
1772701794625641500,2.762641357421875,0.17601443827152252,0.44827818870544434,0.9411581754684448
1772701794635689200,2.772689208984375,0.2893314063549042,0.27590081095695496,1.2040385007858276
1772701794645738200,2.78273828125,0.36468449234962463,0.051361192017793655,1.4615765810012817
1772701794655787300,2.792787353515625,0.39597317576408386,-0.20995590090751648,1.673137903213501
1772701794665836300,2.802836181640625,0.3730851709842682,-0.513676643371582,1.7568037509918213
1772701794675884300,2.81288427734375,0.33211615681648254,-0.9181684255599976,1.7144101858139038
1772701794685933300,2.822933349609375,0.27091723680496216,-1.330265760421753,1.4953001737594604
1772701794695982300,2.832982421875,0.23799632489681244,-1.6736547946929932,1.104112982749939
1772701794706031400,2.84303125,0.21833527088165283,-1.8446159362792969,0.5853228569030762
1772701794716079400,2.853079345703125,0.23586098849773407,-1.8382562398910522,0.04144357889890671
1772701794726128400,2.86312841796875,0.23470039665699005,-1.6012237071990967,-0.461041659116745
1772701794736177200,2.87317724609375,0.11330152302980423,-1.1355034112930298,-0.8862488865852356
1772701794746225400,2.883225341796875,-0.07401031255722046,-0.7773287892341614,-1.0911273956298828
1772701794756274200,2.893274169921875,-0.15620984137058258,-0.7843344807624817,-1.0275404453277588
1772701794766323500,2.903323486328125,-0.18997792899608612,-0.9212403893470764,-0.7501272559165955
1772701794776371200,2.91337109375,-0.20489536225795746,-0.949809193611145,-0.31332382559776306
1772701794786420200,2.923420166015625,-0.17500030994415283,-0.968124270439148,0.16114574670791626
1772701794796469200,2.93346923828125,-0.10547183454036713,-1.0307133197784424,0.5112702250480652
1772701794806518300,2.943518310546875,-0.05324750766158104,-1.0676532983779907,0.7320300340652466
1772701794816566300,2.953566162109375,-0.07591287046670914,-1.1355359554290771,0.7623003125190735
1772701794826615300,2.963615234375,-0.15035435557365417,-1.1506792306900024,0.6068060398101807
1772701794836664300,2.973664306640625,-0.23294830322265625,-1.0264922380447388,0.3162253499031067
1772701794846713300,2.98371337890625,-0.3186456263065338,-0.8158756494522095,0.02044854871928692
1772701794856761300,2.99376123046875,-0.35835176706314087,-0.5402363538742065,-0.20363940298557281
1772701794866810400,3.003810302734375,-0.3474532961845398,-0.3237367868423462,-0.31676650047302246
1772701794876859100,3.013859130859375,-0.2400251179933548,-0.15760880708694458,-0.36959242820739746
1772701794886907400,3.023907470703125,-0.06961183249950409,-0.024985510855913162,-0.37843677401542664
1772701794896956200,3.0339560546875,0.08589919656515121,0.020416591316461563,-0.38220304250717163
1772701794907005200,3.044005126953125,0.19424431025981903,0.001076982356607914,-0.42007771134376526
1772701794917054200,3.05405419921875,0.24364835023880005,0.007834487594664097,-0.45518428087234497
1772701794927102200,3.064102294921875,0.23827968537807465,0.12114240229129791,-0.47763368487358093
1772701794937151200,3.074151123046875,0.20974977314472198,0.40201693773269653,-0.4591907560825348
1772701794947200300,3.0842001953125,0.19201284646987915,0.7283790707588196,-0.37901681661605835
1772701794957248300,3.094248291015625,0.17272889614105225,0.8653390407562256,-0.28532999753952026
1772701794967297300,3.10429736328125,0.2009221911430359,0.9249046444892883,-0.1317465752363205
1772701794977346300,3.11434619140625,0.268308162689209,0.9743781685829163,0.07088562101125717
1772701794987395300,3.124395263671875,0.3416103422641754,1.0489195585250854,0.2664274275302887
1772701794997443000,3.134443115234375,0.3919968008995056,1.1464256048202515,0.3965524137020111
1772701795007492400,3.144492431640625,0.4133297801017761,1.186151385307312,0.42369508743286133
1772701795017541000,3.154541015625,0.4192204475402832,1.2015788555145264,0.33901748061180115
1772701795027589400,3.16458935546875,0.36063089966773987,1.159101128578186,0.1841099113225937
1772701795037638100,3.17463818359375,0.28071048855781555,1.0530139207839966,0.026460370048880577
1772701795047687200,3.184687255859375,0.23705676198005676,0.9041056036949158,-0.05295322835445404
1772701795057736200,3.194736083984375,0.1709003746509552,0.7989994287490845,-0.12098580598831177
1772701795067784200,3.2047841796875,0.10003312677145004,0.7789234519004822,-0.15759308636188507
1772701795077833200,3.214833251953125,0.0414411835372448,0.7711347937583923,-0.17608368396759033
1772701795087882200,3.22488232421875,-0.027813522145152092,0.7419065833091736,-0.21468806266784668
1772701795097930200,3.23493017578125,-0.09454035013914108,0.6832712292671204,-0.3190706670284271
1772701795107979300,3.244979248046875,-0.17973195016384125,0.6559235453605652,-0.48624980449676514
1772701795118028300,3.2550283203125,-0.2713196575641632,0.6384840607643127,-0.7266477346420288
1772701795128077300,3.265077392578125,-0.33434441685676575,0.5193063020706177,-0.9996641278266907
1772701795138125000,3.275125,-0.2997978925704956,0.2179325968027115,-1.1505903005599976
1772701795148174300,3.28517431640625,-0.1763281673192978,-0.2519664764404297,-1.0839207172393799
1772701795158223000,3.29522314453125,-0.013904097490012646,-0.8015140295028687,-0.850356936454773
1772701795168271400,3.305271240234375,0.11928697675466537,-1.1923004388809204,-0.5408377051353455
1772701795178320100,3.315320068359375,0.23216693103313446,-1.3410757780075073,-0.26346758008003235
1772701795188369200,3.325369140625,0.3378262519836426,-1.2992931604385376,-0.06830235570669174
1772701795198418200,3.335418212890625,0.4483911097049713,-1.1202137470245361,0.01882774941623211
1772701795208466200,3.345466064453125,0.3074973523616791,-0.7086322903633118,-0.12392354011535645
1772701795218515200,3.35551513671875,-0.06199519336223602,-0.14208337664604187,-0.4306563138961792
1772701795228564000,3.36556396484375,-0.09594037383794785,0.015623700805008411,-0.49198251962661743
1772701795238613200,3.37561328125,-0.10669315606355667,0.5532429218292236,-0.5212461352348328
1772701795248661000,3.385660888671875,-0.16969183087348938,0.2353280931711197,-0.7107803821563721
1772701795258710300,3.395710205078125,-0.1596413254737854,0.3651960790157318,-0.7971221804618835
1772701795268759000,3.405759033203125,-0.08037207275629044,0.5269900560379028,-0.8676133751869202
1772701795278807000,3.41580712890625,0.014360830187797546,0.4887092411518097,-0.9534681439399719
1772701795288856000,3.42585595703125,0.1464967578649521,0.5494018793106079,-0.8051396608352661
1772701795298905000,3.435905029296875,0.2671542167663574,0.5266912579536438,-0.46531814336776733
1772701795308954000,3.4459541015625,0.31494569778442383,0.40664392709732056,-0.08228688687086105
1772701795319002000,3.456002197265625,0.31737902760505676,0.3935001492500305,0.34215041995048523
1772701795329051100,3.466051025390625,0.3635113537311554,0.5265287756919861,0.747926652431488
1772701795339100200,3.47610009765625,0.4370982348918915,0.7054471373558044,1.0696359872817993
1772701795349148200,3.486148193359375,0.5137975215911865,0.8398494124412537,1.2866761684417725
1772701795359197200,3.496197265625,0.61769038438797,0.9324845671653748,1.3255410194396973
1772701795369246000,3.506245849609375,0.7355791926383972,0.8943371772766113,1.2250272035598755
1772701795379295200,3.516295166015625,0.8089833855628967,0.7525014877319336,1.0063971281051636
1772701795389343000,3.526343017578125,0.8042336106300354,0.4394242465496063,0.73686283826828
1772701795399392000,3.53639208984375,0.681564450263977,0.05618657171726227,0.4999887943267822
1772701795409441300,3.546441162109375,0.49061766266822815,-0.3260689079761505,0.3312769830226898
1772701795419490000,3.556489990234375,0.2793214023113251,-0.6749592423439026,0.19253376126289368
1772701795429538000,3.5665380859375,0.0663963332772255,-0.9527791738510132,0.04650092124938965
1772701795439587000,3.576587158203125,-0.11375026404857635,-1.0101045370101929,-0.0449613481760025
1772701795449636000,3.586635986328125,-0.18591581284999847,-0.725799024105072,-0.08183760941028595
1772701795459684000,3.59668408203125,-0.18295809626579285,-0.15034236013889313,-0.11473403871059418
1772701795469733000,3.606733154296875,-0.16571760177612305,0.5608787536621094,-0.1550777405500412
1772701795479782100,3.6167822265625,-0.1868617683649063,1.1664589643478394,-0.20401917397975922
1772701795489831200,3.6268310546875,-0.23006941378116608,1.6227655410766602,-0.23781175911426544
1772701795499879200,3.636879150390625,-0.30545657873153687,1.87391996383667,-0.3112998306751251
1772701795509928200,3.64692822265625,-0.3852161169052124,1.8362996578216553,-0.4545462131500244
1772701795519977200,3.656977294921875,-0.4338316023349762,1.4715341329574585,-0.6418377757072449
1772701795530025000,3.66702490234375,-0.4669056534767151,0.749042272567749,-0.8354005813598633
1772701795540074000,3.677073974609375,-0.49271488189697266,-0.210891991853714,-0.961089551448822
1772701795550123300,3.687123291015625,-0.4498390555381775,-0.7887537479400635,-0.9009324908256531
1772701795560172000,3.697172119140625,-0.3491217792034149,-0.6871418952941895,-0.7141215801239014
1772701795570220300,3.70722021484375,-0.2667970657348633,-0.09059115499258041,-0.5374778509140015
1772701795580269000,3.71726904296875,-0.2466593086719513,0.5605882406234741,-0.4263494610786438
1772701795590318000,3.727318115234375,-0.35967668890953064,0.6935880780220032,-0.44826778769493103
1772701795600367000,3.7373671875,-0.4563334584236145,0.714450478553772,-0.4530814588069916
1772701795610415000,3.7474150390625,-0.4248306453227997,0.8661076426506042,-0.3619787096977234
1772701795620464000,3.757464111328125,-0.2863313555717468,0.9990260004997253,-0.3502134084701538
1772701795630513200,3.76751318359375,-0.19659002125263214,0.7488976716995239,-0.45814892649650574
1772701795640561200,3.77756103515625,-0.2784968614578247,0.33920708298683167,-0.4666942059993744
1772701795650610200,3.787610107421875,-0.4045219123363495,-0.025475798174738884,-0.29550302028656006
1772701795660659200,3.7976591796875,-0.45951005816459656,-0.31644079089164734,-0.07512164860963821
1772701795670708200,3.807708251953125,-0.4956046938896179,-0.44194677472114563,0.10683297365903854
1772701795680756000,3.817755859375,-0.5155056715011597,-0.39703232049942017,0.2613125741481781
1772701795690805200,3.82780517578125,-0.549537718296051,-0.3283006548881531,0.3292500674724579
1772701795700854000,3.83785400390625,-0.5791121125221252,-0.3506072759628296,0.2817661762237549
1772701795710902300,3.84790234375,-0.5627493858337402,-0.5192146897315979,0.1991940587759018
1772701795720951000,3.857950927734375,-0.4893036484718323,-0.8674541711807251,0.19104212522506714
1772701795731000000,3.868,-0.403363972902298,-1.3213773965835571,0.3202618956565857
1772701795741049000,3.878049072265625,-0.3401666283607483,-1.7899795770645142,0.476957768201828
1772701795751097000,3.88809716796875,-0.2659304738044739,-2.1030914783477783,0.6770807504653931
1772701795761146000,3.89814599609375,-0.24853897094726562,-1.9737216234207153,1.0469450950622559
1772701795771195100,3.908195068359375,-0.24397698044776917,-1.4331284761428833,1.505710244178772
1772701795781243100,3.9182431640625,-0.11602301150560379,-0.7757449746131897,1.8925937414169312
1772701795791292200,3.928292236328125,0.07640369236469269,-0.43280601501464844,2.0324597358703613
1772701795801341200,3.938341064453125,0.2317783683538437,-0.6163148880004883,1.9655143022537231
1772701795811390200,3.94839013671875,0.3042243421077728,-1.162018895149231,1.6961749792099
1772701795821438000,3.95843798828125,0.2894746959209442,-1.837601661682129,1.3604071140289307
1772701795831487200,3.9684873046875,0.15371286869049072,-2.2572853565216064,1.096174955368042
1772701795841536000,3.978535888671875,-0.05668245255947113,-2.1189539432525635,0.9061786532402039
1772701795851585000,3.9885849609375,-0.2573316693305969,-1.6624360084533691,0.7221563458442688
1772701795861633000,3.998633056640625,-0.4363320469856262,-1.2462477684020996,0.6186507344245911
1772701795871682000,4.00868212890625,-0.6382289528846741,-1.165602207183838,0.5165640115737915
1772701795881731000,4.01873095703125,-0.6843258738517761,-0.8656445145606995,0.5636945366859436
1772701795891779000,4.028779052734375,-0.5530179142951965,-0.24418070912361145,0.8448010087013245
1772701795901828000,4.038828125,-0.37733370065689087,-0.10305474698543549,1.0806071758270264
1772701795911877000,4.048877197265625,-0.24304407835006714,-0.2949962317943573,1.1858038902282715
1772701795921926100,4.058926025390625,-0.1427832543849945,-0.5106036067008972,1.2089920043945312
1772701795931974100,4.06897412109375,-0.03971518948674202,-0.6199879050254822,1.1862469911575317
1772701795942023000,4.07902294921875,0.06977348774671555,-0.567628026008606,1.1548521518707275
1772701795952072200,4.089072265625,0.17858251929283142,-0.3808578550815582,1.068674921989441
1772701795962121000,4.099120849609375,0.22511593997478485,-0.12372726947069168,0.961320161819458
1772701795972169200,4.109169189453125,0.2465037852525711,0.1368100494146347,0.8782125115394592
1772701795982218000,4.119218017578125,0.2718115448951721,0.3617717921733856,0.8167960047721863
1772701795992267000,4.12926708984375,0.21839146316051483,0.5216599702835083,0.7607862949371338
1772701796002315000,4.13931494140625,0.07590887695550919,0.5769466757774353,0.6708553433418274
1772701796012364000,4.149364013671875,-0.10524759441614151,0.5553761124610901,0.566429853439331
1772701796022413000,4.1594130859375,-0.26334428787231445,0.5615131258964539,0.4729555547237396
1772701796032462000,4.169462158203125,-0.44791147112846375,0.6151742339134216,0.3684408664703369
1772701796042510000,4.179510009765625,-0.6335161924362183,0.7522950768470764,0.2595572769641876
1772701796052559000,4.18955908203125,-0.8042812943458557,0.9337623119354248,0.14292946457862854
1772701796062608100,4.199608154296875,-0.9616591930389404,1.0934590101242065,0.014296913519501686
1772701796072656100,4.20965625,-1.0060415267944336,1.184956431388855,-0.054967112839221954
1772701796082705000,4.219704833984375,-0.9367834329605103,1.2111930847167969,-0.07460792362689972
1772701796092754200,4.229754150390625,-0.8437591791152954,1.07220458984375,-0.10016335546970367
1772701796102803200,4.23980322265625,-0.7345978021621704,0.7693555355072021,-0.10319482535123825
1772701796112851200,4.249851318359375,-0.5351424813270569,0.3948509097099304,-0.05884307622909546
1772701796122900000,4.25989990234375,-0.30421021580696106,0.11218592524528503,-0.008436094969511032
1772701796132949000,4.269948974609375,-0.18263879418373108,-0.05052842199802399,0.02214844524860382
1772701796142998300,4.279998291015625,-0.12932150065898895,-0.037999048829078674,0.05754238739609718
1772701796153046000,4.2900458984375,-0.12213123589754105,0.13804548978805542,0.10307631641626358
1772701796163095300,4.30009521484375,-0.13515302538871765,0.3394366502761841,0.1385325789451599
1772701796173144000,4.31014404296875,-0.14873115718364716,0.4913731813430786,0.13013909757137299
1772701796183192000,4.320192138671875,-0.13509602844715118,0.5884736180305481,0.07486971467733383
1772701796193241000,4.330240966796875,-0.12037408351898193,0.700255274772644,-0.03754391148686409
1772701796203290000,4.3402900390625,-0.11357183754444122,0.7245894074440002,-0.1888681799173355
1772701796213339100,4.350339111328125,-0.09408441931009293,0.5976178646087646,-0.3494805097579956
1772701796223387000,4.360386962890625,-0.08333723247051239,0.3705778121948242,-0.47652101516723633
1772701796233436200,4.370436279296875,-0.09802483022212982,0.1084364652633667,-0.5704642534255981
1772701796243485200,4.380485107421875,-0.11651889234781265,-0.06930983066558838,-0.6548657417297363
1772701796253534000,4.390533935546875,-0.15949751436710358,-0.20047637820243835,-0.7554051280021667
1772701796263582200,4.400582275390625,-0.13998453319072723,-0.48021480441093445,-0.8896926045417786
1772701796273631000,4.410630859375,0.04773716256022453,-0.9194888472557068,-1.0973798036575317
1772701796283680300,4.42068017578125,0.30128926038742065,-0.6171175241470337,-1.4975857734680176
1772701796293728000,4.43072802734375,0.26889991760253906,-0.924106240272522,-2.0722815990448
1772701796303777300,4.44077734375,1.1282258033752441,-1.743462324142456,-1.549695611000061
1772701796313826000,4.450825927734375,0.8253061771392822,-1.316003441810608,-1.0091063976287842
1772701796323875000,4.460875,0.3241482377052307,-0.24929797649383545,-0.9384090304374695
1772701796333923000,4.470923095703125,0.01125212199985981,0.4900684952735901,-0.7067304849624634
1772701796343972000,4.48097216796875,-0.344218373298645,1.2482318878173828,-0.3747275471687317
1772701796354021000,4.491021240234375,-0.47036057710647583,1.5366623401641846,-0.0296122208237648
1772701796364070100,4.501070068359375,-0.4660225510597229,1.218865990638733,0.16791710257530212
1772701796374118100,4.5111181640625,-0.4744594693183899,0.5078773498535156,0.25938042998313904
1772701796384167200,4.521167236328125,-0.5634814500808716,-0.004090082831680775,0.2889612317085266
1772701796394216000,4.5312158203125,-0.5615701079368591,-0.12386415153741837,0.236068993806839
1772701796404264200,4.54126416015625,-0.5025361180305481,0.04162414371967316,0.11001278460025787
1772701796414313000,4.55131298828125,-0.4111452102661133,0.3510429859161377,-0.05533968657255173
1772701796424362200,4.5613623046875,-0.36201971769332886,0.6145433187484741,-0.2239806354045868
1772701796434411000,4.571410888671875,-0.3393557071685791,0.6828675270080566,-0.3884659707546234
1772701796444459300,4.581459228515625,-0.2935032546520233,0.5618867874145508,-0.5416187644004822
1772701796454508000,4.591508056640625,-0.23627857863903046,0.2758086919784546,-0.6423224806785583
1772701796464557000,4.60155712890625,-0.14381229877471924,-0.08323656767606735,-0.6421842575073242
1772701796474606000,4.611606201171875,0.010065416805446148,-0.3656195104122162,-0.559493899345398
1772701796484654000,4.621654052734375,0.1408924013376236,-0.4836907684803009,-0.4563680589199066
1772701796494703000,4.631703125,0.2140185534954071,-0.4882516860961914,-0.38755810260772705
1772701796504752000,4.641752197265625,0.25158828496932983,-0.4270341396331787,-0.3371335566043854
1772701796514800000,4.651800048828125,0.2370828539133072,-0.307648628950119,-0.2976498007774353
1772701796524849200,4.66184912109375,0.1717051863670349,-0.21746760606765747,-0.24045094847679138
1772701796534898000,4.67189794921875,0.06022205948829651,-0.2608132064342499,-0.15156422555446625
1772701796544947200,4.681947265625,-0.09718939661979675,-0.34733185172080994,-0.008837966248393059
1772701796554995000,4.691994873046875,-0.2129945605993271,-0.22839215397834778,0.1419675201177597
1772701796565044200,4.702044189453125,-0.2588323652744293,-0.057975683361291885,0.2517526149749756
1772701796575093000,4.712093017578125,-0.28158000111579895,0.14955167472362518,0.3669276833534241
1772701796585142000,4.72214208984375,-0.24776984751224518,0.40171414613723755,0.49913763999938965
1772701796595190000,4.73218994140625,-0.1860329806804657,0.41261765360832214,0.5878558158874512
1772701796605239000,4.742239013671875,-0.0833798423409462,0.06801313906908035,0.6222766041755676
1772701796615288000,4.7522880859375,-0.04157673940062523,-0.4878476858139038,0.6426900029182434
1772701796625336000,4.762336181640625,-0.06345433741807938,-0.8918250203132629,0.6130335927009583
1772701796635385000,4.772385009765625,-0.08713756501674652,-0.8064507246017456,0.5008095502853394
1772701796645434000,4.78243408203125,-0.13762018084526062,-0.3667486906051636,0.3578340411186218
1772701796655483000,4.79248291015625,-0.1994803547859192,0.11010439693927765,0.25846031308174133
1772701796665531100,4.80253125,-0.23831510543823242,0.44239339232444763,0.2833142578601837
1772701796675580000,4.812579833984375,-0.19821108877658844,0.5936734676361084,0.34997957944869995
1772701796685629200,4.822629150390625,-0.09134110063314438,0.5101016163825989,0.38465020060539246
1772701796695678200,4.83267822265625,0.007900266908109188,0.40715470910072327,0.45531532168388367
1772701796705726200,4.842726318359375,0.06990904361009598,0.28604987263679504,0.5330132842063904
1772701796715775000,4.85277490234375,0.09010885655879974,0.1851259171962738,0.5850877165794373
1772701796725824000,4.862823974609375,0.09230595827102661,0.19704009592533112,0.5967763066291809
1772701796735872000,4.8728720703125,0.08433085680007935,0.3277009129524231,0.5924393534660339
1772701796745921000,4.882921142578125,0.09849807620048523,0.48161137104034424,0.5964942574501038
1772701796755970000,4.892969970703125,0.10776960849761963,0.5822287797927856,0.5909229516983032
1772701796766019000,4.90301904296875,0.12570972740650177,0.579879879951477,0.5681145787239075
1772701796776067000,4.913067138671875,0.145250141620636,0.5027097463607788,0.5430750250816345
1772701796786116000,4.9231162109375,0.1692899614572525,0.3637169599533081,0.4721347689628601
1772701796796165000,4.9331650390625,0.17597049474716187,0.17409536242485046,0.34778088331222534
1772701796806214100,4.943214111328125,0.16385631263256073,-0.07644923776388168,0.18308193981647491
1772701796816262000,4.953261962890625,0.14290282130241394,-0.38172072172164917,0.006080262828618288
1772701796826311200,4.963311279296875,0.12448280304670334,-0.6072140336036682,-0.17523466050624847
1772701796836360200,4.973360107421875,0.11493510752916336,-0.7653237581253052,-0.3688203692436218
1772701796846408200,4.983408203125,0.10864605009555817,-0.9457800984382629,-0.5007845163345337
1772701796856457200,4.993457275390625,0.09164256602525711,-1.1674147844314575,-0.47302454710006714
1772701796866506000,5.003506103515625,0.06413531303405762,-1.3544970750808716,-0.24392744898796082
1772701796876555300,5.01355517578125,0.022471487522125244,-1.406618595123291,0.08625872433185577
1772701796886603000,5.02360302734375,-0.05889793857932091,-1.2138198614120483,0.38795146346092224
1772701796896652300,5.03365234375,-0.1196795254945755,-0.8624886870384216,0.5864555239677429
1772701796906701000,5.043701171875,-0.1368662416934967,-0.5827350616455078,0.7023834586143494
1772701796916750000,5.05375,-0.11743048578500748,-0.43825751543045044,0.7677541971206665
1772701796926798000,5.063798095703125,-0.11764594167470932,-0.4654664993286133,0.8149778842926025
1772701796936847000,5.07384716796875,-0.13830994069576263,-0.5788202285766602,0.8460127711296082
1772701796946896100,5.083896240234375,-0.19678336381912231,-0.7573758363723755,0.8662083148956299
1772701796956944100,5.093944091796875,-0.25079014897346497,-0.8764918446540833,0.8735884428024292
1772701796966993200,5.1039931640625,-0.3015875518321991,-0.8632117509841919,0.9021311402320862
1772701796977042200,5.114042236328125,-0.29915449023246765,-0.8028639554977417,0.9207953810691833
1772701796987091000,5.124091064453125,-0.26508307456970215,-0.7194729447364807,0.9193205237388611
1772701796997139200,5.13413916015625,-0.23896357417106628,-0.5453160405158997,0.884212076663971
1772701797007188000,5.14418798828125,-0.2457333356142044,-0.3477126955986023,0.8001105189323425
1772701797017237200,5.1542373046875,-0.25565946102142334,-0.20142419636249542,0.6712785363197327
1772701797027286000,5.1642861328125,-0.2264357954263687,-0.05934961140155792,0.545129656791687
1772701797037334300,5.174334228515625,-0.16786544024944305,0.21082249283790588,0.4274629056453705
1772701797047383000,5.184383056640625,-0.11598332971334457,0.4793122708797455,0.29439595341682434
1772701797057432000,5.19443212890625,-0.08533433824777603,0.7331544160842896,0.18890520930290222
1772701797067480000,5.20447998046875,-0.08817034214735031,0.9020075798034668,0.12451023608446121
1772701797077529000,5.214529052734375,-0.06732311099767685,1.0993057489395142,0.07748520374298096
1772701797087578000,5.224578125,-0.058222025632858276,1.339748740196228,0.05264004319906235
1772701797097627100,5.234627197265625,-0.07293572276830673,1.6691093444824219,0.056650228798389435
1772701797107675100,5.244675048828125,-0.13312023878097534,1.9587488174438477,0.08347784727811813
1772701797117724200,5.25472412109375,-0.23369690775871277,2.0651938915252686,0.0992959588766098
1772701797127773000,5.26477294921875,-0.35561323165893555,1.9621633291244507,0.10888999700546265
1772701797137822200,5.274822265625,-0.42047399282455444,1.7805441617965698,0.1078961044549942
1772701797147870000,5.284869873046875,-0.4702652394771576,1.6014440059661865,0.10099425911903381
1772701797157919200,5.294919189453125,-0.5169933438301086,1.3082951307296753,0.07125340402126312
1772701797167968000,5.304968017578125,-0.5378924608230591,0.9239874482154846,-0.014989069662988186
1772701797178016300,5.315016357421875,-0.4507400095462799,0.7743406891822815,-0.09556327760219574
1772701797188065000,5.32506494140625,-0.3530680537223816,0.7895849347114563,-0.21912916004657745
1772701797198114000,5.335114013671875,-0.3795928657054901,0.7935594320297241,-0.3440881371498108
1772701797208162000,5.345162109375,-0.41650959849357605,0.8193907737731934,-0.4226953387260437
1772701797218210800,5.3552109375,-0.4537597596645355,0.8171616792678833,-0.4628280997276306
1772701797228259800,5.365259765625,-0.47715404629707336,0.782964289188385,-0.4525517523288727
1772701797238308900,5.375308837890625,-0.48712971806526184,0.7459138631820679,-0.43187204003334045
1772701797248356900,5.38535693359375,-0.4849746823310852,0.7037986516952515,-0.42097386717796326
1772701797258406000,5.395406005859375,-0.4589734375476837,0.628303587436676,-0.4440261721611023
1772701797268455000,5.405454833984375,-0.40161827206611633,0.5208373665809631,-0.4632211923599243
1772701797278504000,5.41550390625,-0.3592929244041443,0.31224924325942993,-0.41659456491470337
1772701797288551700,5.4255517578125,-0.39081117510795593,-0.05361848697066307,-0.31077173352241516
1772701797298601000,5.43560107421875,-0.44937941431999207,-0.4624294340610504,-0.2150513231754303
1772701797308649700,5.445649658203125,-0.5270837545394897,-0.8524301648139954,-0.20004680752754211
1772701797318698000,5.455697998046875,-0.5931733250617981,-1.1238614320755005,-0.2131197303533554
1772701797328746800,5.465746826171875,-0.6339313983917236,-1.2667828798294067,-0.18771131336688995
1772701797338795800,5.475795654296875,-0.6662403345108032,-1.3494257926940918,-0.15835262835025787
1772701797348844800,5.4858447265625,-0.6900977492332458,-1.5118643045425415,-0.1474997103214264
1772701797358892800,5.495892822265625,-0.6406809091567993,-1.5439870357513428,-0.18462364375591278
1772701797368941800,5.50594189453125,-0.4118485450744629,-0.9297521114349365,-0.1754317432641983
1772701797378990800,5.515990966796875,-0.20319466292858124,0.3276095688343048,-0.16451197862625122
1772701797389039900,5.526039794921875,-0.28479233384132385,1.0122665166854858,-0.21911343932151794
1772701797399087900,5.536087890625,-0.4572831392288208,0.7959469556808472,-0.3862864673137665
1772701797409137000,5.546136962890625,-0.36885926127433777,0.2832828462123871,-0.5548765063285828
1772701797419186000,5.55618603515625,-0.248213529586792,0.45509374141693115,-0.7867587804794312
1772701797429235000,5.56623486328125,-0.027848409488797188,0.8411183953285217,-0.8659933805465698
1772701797439283000,5.576282958984375,0.2060232013463974,1.0866237878799438,-0.7760922908782959
1772701797449331700,5.586331787109375,0.28342559933662415,0.870456337928772,-0.5638436675071716
1772701797459381000,5.596381103515625,0.3308753967285156,0.6287656426429749,-0.29505082964897156
1772701797469428700,5.6064287109375,0.3231716752052307,0.5939107537269592,-0.013391172513365746
1772701797479477800,5.616477783203125,0.34079647064208984,0.80912184715271,0.19998767971992493
1772701797489527000,5.626527099609375,0.39886564016342163,1.163118839263916,0.3557237386703491
1772701797499575800,5.636575927734375,0.48379597067832947,1.5822277069091797,0.452077716588974
1772701797509623800,5.646623779296875,0.5496383905410767,1.9455549716949463,0.43890732526779175
1772701797519672800,5.6566728515625,0.5731762051582336,2.0910396575927734,0.29314079880714417
1772701797529721900,5.666721923828125,0.5711415410041809,1.9190491437911987,0.014287326484918594
1772701797539771000,5.67677099609375,0.5482154488563538,1.442206621170044,-0.26321592926979065
1772701797549819000,5.68681884765625,0.5055790543556213,0.8116308450698853,-0.4654071033000946
1772701797559868000,5.696867919921875,0.47850292921066284,0.1815040111541748,-0.6029497981071472
1772701797569917000,5.7069169921875,0.48977741599082947,-0.22443976998329163,-0.7055869698524475
1772701797579966000,5.716966064453125,0.49712374806404114,-0.3154650032520294,-0.7697259783744812
1772701797590014000,5.727013916015625,0.48877981305122375,-0.23007741570472717,-0.731033444404602
1772701797600062700,5.737062744140625,0.46041953563690186,-0.07694537937641144,-0.5953424572944641
1772701797610112000,5.747112060546875,0.4325873851776123,0.0598263144493103,-0.40152451395988464
1772701797620160800,5.757160888671875,0.42562347650527954,0.13466353714466095,-0.1787114292383194
1772701797630209000,5.767208984375,0.41390129923820496,0.1491260975599289,0.042224686592817307
1772701797640257800,5.7772578125,0.4151601791381836,0.0954090803861618,0.22665365040302277
1772701797650306800,5.787306884765625,0.4578644931316376,0.006841394584625959,0.3339103162288666
1772701797660355800,5.79735595703125,0.5182918906211853,-0.03568395972251892,0.37402498722076416
1772701797670403800,5.80740380859375,0.5534791946411133,-0.02395486831665039,0.3171824812889099
1772701797680452900,5.817452880859375,0.5401045083999634,-0.037581197917461395,0.1901065558195114
1772701797690502000,5.827501953125,0.49382835626602173,-0.0601847767829895,0.06251451373100281
1772701797700551000,5.837551025390625,0.42288148403167725,-0.0022335932590067387,-0.022530609741806984
1772701797710599000,5.847598876953125,0.3411850333213806,0.1165335401892662,-0.0874536857008934
1772701797720648000,5.85764794921875,0.25719183683395386,0.20970715582370758,-0.1305614709854126
1772701797730697000,5.867697021484375,0.17291025817394257,0.2439870983362198,-0.15002144873142242
1772701797740744700,5.87774462890625,0.10971424728631973,0.21292905509471893,-0.1641354113817215
1772701797750794000,5.8877939453125,0.08972775191068649,0.1277582347393036,-0.19909179210662842
1772701797760842800,5.8978427734375,0.10121157020330429,0.08072653412818909,-0.24516181647777557
1772701797770892000,5.90789208984375,0.13501933217048645,0.10004057735204697,-0.2979278266429901
1772701797780939800,5.917939697265625,0.15437811613082886,0.12849032878875732,-0.3158825933933258
1772701797790988800,5.92798876953125,0.15773770213127136,0.13934510946273804,-0.31913724541664124
1772701797801037800,5.938037841796875,0.17666637897491455,0.09000099450349808,-0.2893276810646057
1772701797811086800,5.9480869140625,0.22560995817184448,-0.07831131666898727,-0.2486090213060379
1772701797821134800,5.958134765625,0.2936718165874481,-0.3094249665737152,-0.20440426468849182
1772701797831184000,5.968183837890625,0.3632383942604065,-0.5546110272407532,-0.17861315608024597
1772701797841233000,5.97823291015625,0.4055776000022888,-0.7923489809036255,-0.14703285694122314
1772701797851282000,5.988281982421875,0.40365612506866455,-0.9541900753974915,-0.08512581139802933
1772701797861330000,5.998329833984375,0.34880006313323975,-1.0388938188552856,0.03031875751912594
1772701797871379000,6.00837890625,0.22453457117080688,-1.1225296258926392,0.2261577695608139
1772701797881427700,6.018427734375,0.05088448524475098,-1.2804619073867798,0.5082107782363892
1772701797891476000,6.02847607421875,-0.13965989649295807,-1.4651588201522827,0.850742518901825
1772701797901524700,6.038524658203125,-0.3074811100959778,-1.5655573606491089,1.0904752016067505
1772701797911573800,6.04857373046875,-0.4356079399585724,-1.4453526735305786,1.146440029144287
1772701797921622800,6.058622802734375,-0.488877534866333,-1.1684174537658691,1.1016725301742554
1772701797931670800,6.0686708984375,-0.5451269745826721,-0.8661127090454102,1.043963074684143
1772701797941719800,6.0787197265625,-0.5771533250808716,-0.837209939956665,1.000997543334961
1772701797951768800,6.088768798828125,-0.5971710085868835,-1.0050625801086426,0.9754330515861511
1772701797961817900,6.09881787109375,-0.6237403154373169,-1.2341700792312622,1.0211457014083862
1772701797971865900,6.108865966796875,-0.5929152369499207,-1.5673904418945312,1.0386288166046143
1772701797981915000,6.118914794921875,-0.4796523451805115,-1.3232930898666382,1.0151463747024536
1772701797991964000,6.1289638671875,-0.3165832757949829,-0.7879172563552856,0.9957711100578308
1772701798002013000,6.139012939453125,-0.16615089774131775,-0.9509966969490051,0.8884427547454834
1772701798012061000,6.14906103515625,-0.016199477016925812,-1.4824259281158447,0.6625361442565918
1772701798022110000,6.15910986328125,0.12284868955612183,-1.9602117538452148,0.35826945304870605
1772701798032159000,6.169158935546875,0.28390735387802124,-2.051790952682495,0.008353270590305328
1772701798042208000,6.1792080078125,0.4249848425388336,-1.8052623271942139,-0.27675357460975647
1772701798052255700,6.189255859375,0.5559071898460388,-1.5210574865341187,-0.5580363869667053
1772701798062305000,6.199304931640625,0.690542459487915,-1.2176529169082642,-0.767195999622345
1772701798072353800,6.209353759765625,0.7681070566177368,-0.8669643998146057,-0.9093635082244873
1772701798082401800,6.21940185546875,0.7770875096321106,-0.4704303443431854,-0.9911915063858032
1772701798092450800,6.229450927734375,0.7223392724990845,-0.1286405324935913,-1.0068786144256592
1772701798102499800,6.239499755859375,0.6466674208641052,0.09873536229133606,-0.9400327205657959
1772701798112548900,6.249548828125,0.5727623105049133,0.19267357885837555,-0.7850138545036316
1772701798122596900,6.259596923828125,0.48810282349586487,0.19337105751037598,-0.5742462277412415
1772701798132646000,6.26964599609375,0.39365649223327637,0.23702186346054077,-0.3063673973083496
1772701798142695000,6.27969482421875,0.3521559238433838,0.35366034507751465,-0.04807804524898529
1772701798152744000,6.289743896484375,0.24606730043888092,0.4996891915798187,0.15221670269966125
1772701798162792000,6.2997919921875,0.16238811612129211,0.6354749798774719,0.3206309974193573
1772701798172841000,6.309841064453125,0.12367666512727737,0.7733042240142822,0.4323490262031555
1772701798182890000,6.319889892578125,0.20844508707523346,0.8927776217460632,0.456898033618927
1772701798192938800,6.329938720703125,0.09975802153348923,0.6521934866905212,0.3335510790348053
1772701798202987000,6.339987060546875,0.06308682262897491,0.33005115389823914,0.22603605687618256
1772701798213035800,6.350035888671875,0.044620998203754425,0.17002978920936584,0.0999782606959343
1772701798223085300,6.360085205078125,0.010042247362434864,0.134303480386734,-0.07576347142457962
1772701798233134600,6.370134521484375,-0.00621022516861558,0.1659165322780609,-0.2507597804069519
1772701798243182300,6.380182373046875,0.0059716058894991875,0.20568950474262238,-0.38470932841300964
1772701798253231600,6.390231689453125,0.03292226418852806,0.16890938580036163,-0.463692307472229
1772701798263280400,6.4002802734375,0.05221793055534363,0.10800769180059433,-0.49666568636894226
1772701798273328600,6.41032861328125,0.0727013647556305,0.13905775547027588,-0.49991661310195923
1772701798283377400,6.42037744140625,0.07945860922336578,0.3562595844268799,-0.5169579386711121
1772701798293426400,6.430426513671875,0.051595814526081085,0.6100087761878967,-0.568528413772583
1772701798303475500,6.440475341796875,0.029589584097266197,0.7839787006378174,-0.6008692979812622
1772701798313523500,6.4505234375,0.018254371359944344,0.6344118118286133,-0.5744062662124634
1772701798323572500,6.460572509765625,-0.04512406885623932,0.2325000911951065,-0.5980029702186584
1772701798333621500,6.47062158203125,-0.12556271255016327,-0.23486018180847168,-0.6786860823631287
1772701798343670500,6.48067041015625,-0.17258162796497345,-0.5923171043395996,-0.7794875502586365
1772701798353718500,6.490718505859375,-0.1816060096025467,-0.933677613735199,-0.8653497099876404
1772701798363767300,6.500767333984375,-0.2244674563407898,-1.1306532621383667,-0.959376335144043
1772701798373816600,6.510816650390625,-0.29632753133773804,-1.1448519229888916,-1.0592172145843506
1772701798383865600,6.520865478515625,-0.3905685544013977,-1.1179563999176025,-1.2347655296325684
1772701798393913600,6.53091357421875,-0.47045671939849854,-0.9430895447731018,-1.539767861366272
1772701798403962600,6.540962646484375,-0.3007177710533142,-0.5865577459335327,-1.9288614988327026
1772701798414011400,6.551011474609375,0.1310613453388214,-0.00860360823571682,-2.266832113265991
1772701798424060700,6.561060791015625,0.650720477104187,0.6787745356559753,-2.3710410594940186
1772701798434108400,6.5711083984375,0.8263298869132996,1.2349717617034912,-1.993067979812622
1772701798444157700,6.58115771484375,0.4255952537059784,1.2979557514190674,-1.279892086982727
1772701798454206500,6.59120654296875,-0.28878653049468994,0.9732239842414856,-0.576737105846405
1772701798464255500,6.60125537109375,-0.6381290555000305,0.5197103023529053,-0.08944013714790344
1772701798474303500,6.611303466796875,-0.9554052948951721,0.056533049792051315,0.28495052456855774
1772701798484352500,6.6213525390625,-1.1298013925552368,0.045100633054971695,0.4166395664215088
1772701798494401500,6.631401611328125,-0.9728308916091919,0.20093204081058502,0.4441971480846405
1772701798504449500,6.641449462890625,-0.6433573961257935,0.3941933810710907,0.4255558252334595
1772701798514498600,6.65149853515625,-0.3330115079879761,0.5112161636352539,0.276271790266037
1772701798524547600,6.661547607421875,-0.06007132679224014,0.471871942281723,0.07678905129432678
1772701798534596400,6.671596435546875,0.1980518251657486,0.4782174527645111,-0.08017126470804214
1772701798544644600,6.68164453125,0.39260372519493103,0.4713779091835022,-0.22732369601726532
1772701798554693400,6.691693359375,0.5246858596801758,0.44979697465896606,-0.3963659703731537
1772701798564742700,6.70174267578125,0.6377213597297668,0.4567750096321106,-0.5516865849494934
1772701798574791400,6.71179150390625,0.7634947299957275,0.5606124401092529,-0.6314938068389893
1772701798584839700,6.721839599609375,0.8801978826522827,0.730510413646698,-0.6025732159614563
1772701798594888400,6.731888427734375,0.9536742568016052,0.8666030168533325,-0.49139663577079773
1772701798604937500,6.7419375,1.002271056175232,0.8022642135620117,-0.3882169723510742
1772701798614986500,6.751986572265625,1.0178558826446533,0.5626324415206909,-0.2949061989784241
1772701798625034500,6.762034423828125,1.0116997957229614,0.25753700733184814,-0.1978560835123062
1772701798635083500,6.77208349609375,0.9857248663902283,-0.035594213753938675,-0.11508291214704514
1772701798645132500,6.782132568359375,0.9431784749031067,-0.28428950905799866,-0.023206252604722977
1772701798655181300,6.792181396484375,0.9126328229904175,-0.43622738122940063,0.05789818614721298
1772701798665229600,6.8022294921875,0.8651169538497925,-0.4283561408519745,0.1119007021188736
1772701798675278300,6.8122783203125,0.7883872985839844,-0.23567751049995422,0.14232678711414337
1772701798685327600,6.82232763671875,0.7039254307746887,0.11951494216918945,0.157841295003891
1772701798695376400,6.83237646484375,0.6388459801673889,0.551792323589325,0.19973787665367126
1772701798705424600,6.842424560546875,0.6082790493965149,0.8857958912849426,0.27977094054222107
1772701798715473400,6.852473388671875,0.5949235558509827,1.0402888059616089,0.36247193813323975
1772701798725522400,6.8625224609375,0.5724211931228638,1.0402517318725586,0.42955324053764343
1772701798735570400,6.8725703125,0.516436755657196,0.910800039768219,0.4378165006637573
1772701798745619500,6.882619384765625,0.42803043127059937,0.7215134501457214,0.4053861200809479
1772701798755668500,6.89266845703125,0.35381853580474854,0.5745413303375244,0.3571045994758606
1772701798765717500,6.902717529296875,0.30702465772628784,0.5095298290252686,0.3144969642162323
1772701798775765500,6.912765625,0.24916428327560425,0.48300501704216003,0.26717525720596313
1772701798785814500,6.922814453125,0.1909017711877823,0.45974069833755493,0.21955180168151855
1772701798795863300,6.93286328125,0.15330113470554352,0.44896793365478516,0.16889794170856476
1772701798805912600,6.94291259765625,0.12413286417722702,0.42446473240852356,0.11468131095170975
1772701798815960300,6.952960205078125,0.0920976996421814,0.3884713053703308,0.05205414444208145
1772701798826009600,6.963009521484375,0.04830867797136307,0.34761762619018555,-0.017403757199645042
1772701798836058400,6.973058349609375,0.005730589851737022,0.2736957371234894,-0.08596736937761307
1772701798846107400,6.983107421875,-0.03365569934248924,0.15989859402179718,-0.14021223783493042
1772701798856155400,6.9931552734375,-0.09126493334770203,0.015594406053423882,-0.17230066657066345
1772701798866204400,7.003204345703125,-0.13984417915344238,-0.12387347221374512,-0.17912501096725464
1772701798876253700,7.013253662109375,-0.16677433252334595,-0.2409186065196991,-0.18579941987991333
1772701798886302500,7.023302490234375,-0.19764064252376556,-0.3581688106060028,-0.1912786215543747
1772701798896350500,7.0333505859375,-0.2051542103290558,-0.5278387665748596,-0.16555701196193695
1772701798906399500,7.0433994140625,-0.1835314780473709,-0.7638209462165833,-0.052872803062200546
1772701798916448500,7.053448486328125,-0.1586679369211197,-1.0333459377288818,0.17857693135738373
1772701798926497500,7.06349755859375,-0.1927689164876938,-1.3878198862075806,0.5096036195755005
1772701798936545500,7.073545654296875,-0.32064005732536316,-1.956614375114441,0.8755115270614624
1772701798946594600,7.083594482421875,-0.5751351714134216,-2.8600680828094482,1.202139973640442
1772701798956643600,7.0936435546875,-0.8188818097114563,-3.6769120693206787,1.3127927780151367
1772701798966692400,7.1036923828125,-0.8997476100921631,-3.8466110229492188,1.1892790794372559
1772701798976740600,7.11374072265625,-0.8442396521568298,-3.2977428436279297,0.9433537125587463
1772701798986789400,7.123789306640625,-0.722436249256134,-2.3646116256713867,0.6709546446800232
1772701798996838700,7.133838623046875,-0.6627108454704285,-1.5885335206985474,0.3551785945892334
1772701799006886400,7.143886474609375,-0.6901091933250427,-1.2796107530593872,0.01920165680348873
1772701799016935700,7.153935791015625,-0.7817352414131165,-1.2878751754760742,-0.3170037865638733
1772701799026984400,7.163984375,-0.8325853943824768,-1.3826450109481812,-0.6200180053710938
1772701799037033500,7.174033447265625,-0.7531968355178833,-1.4699653387069702,-0.7588573694229126
1772701799047081500,7.18408154296875,-0.6243528127670288,-1.5204486846923828,-0.6780861020088196
1772701799057130500,7.194130615234375,-0.4704969525337219,-1.5221281051635742,-0.4538990557193756
1772701799067179500,7.204179443359375,-0.26670360565185547,-1.4729321002960205,-0.28467488288879395
1772701799077228500,7.214228515625,-0.060982394963502884,-1.1943323612213135,-0.2199281007051468
1772701799087276500,7.224276611328125,0.13842631876468658,-0.8293583989143372,-0.23246467113494873
1772701799097325600,7.23432568359375,0.2839808464050293,-0.5601208209991455,-0.28833726048469543
1772701799107374300,7.244374267578125,0.38579457998275757,-0.3750109076499939,-0.3314855098724365
1772701799117423600,7.254423583984375,0.4305140972137451,-0.1510089486837387,-0.38756558299064636
1772701799127471400,7.264471435546875,0.4116027355194092,0.12611159682273865,-0.48998647928237915
1772701799137520600,7.274520751953125,0.3625880479812622,0.44007644057273865,-0.6132591366767883
1772701799147569400,7.2845693359375,0.3226102590560913,0.7256690263748169,-0.7220119833946228
1772701799157618400,7.294618408203125,0.29208245873451233,1.0241111516952515,-0.813969075679779
1772701799167666400,7.30466650390625,0.2935898005962372,1.2536969184875488,-0.8751869201660156
1772701799177715500,7.314715576171875,0.29009732604026794,1.4723951816558838,-0.9460658431053162
1772701799187764500,7.324764404296875,0.26756539940834045,1.6735016107559204,-1.0149825811386108
1772701799197813500,7.3348134765625,0.2224663645029068,1.8421926498413086,-1.0594943761825562
1772701799207861500,7.344861572265625,0.13030047714710236,1.9875184297561646,-1.068160057067871
1772701799217910500,7.35491064453125,-0.012046809308230877,2.095797061920166,-1.0739461183547974
1772701799227959600,7.36495947265625,-0.1743805855512619,2.0763556957244873,-1.0914952754974365
1772701799238008600,7.375008544921875,-0.35114604234695435,1.8417772054672241,-1.1508450508117676
1772701799248056600,7.385056640625,-0.5418222546577454,1.3619799613952637,-1.2684992551803589
1772701799258105600,7.395105712890625,-0.739844799041748,0.6269991993904114,-1.4898452758789062
1772701799268154600,7.405154541015625,-0.8246499300003052,-0.2773541212081909,-1.7944622039794922
1772701799278203400,7.415203369140625,-0.7630425095558167,-0.948986291885376,-1.9923200607299805
1772701799288251600,7.425251708984375,-0.6172805428504944,-1.4178088903427124,-2.0770187377929688
1772701799298300400,7.435300537109375,-0.3416164517402649,-1.2455060482025146,-1.8522785902023315
1772701799308349700,7.445349609375,0.01684529334306717,-0.43110427260398865,-1.2833194732666016
1772701799318397400,7.4553974609375,0.32020944356918335,0.6647465825080872,-0.5371084809303284
1772701799328446700,7.46544677734375,0.39081862568855286,0.9126847386360168,-0.2149575799703598
1772701799338495500,7.47549560546875,0.3879064619541168,0.6624423861503601,-0.16883881390094757
1772701799348544500,7.48554443359375,0.39896097779273987,0.2937738299369812,-0.215243861079216
1772701799358592500,7.495592529296875,0.4140605628490448,-0.040335703641176224,-0.2232690304517746
1772701799368641500,7.5056416015625,0.4526228606700897,-0.3130441904067993,-0.1734040081501007
1772701799378690600,7.515690673828125,0.487454891204834,-0.5265964269638062,-0.09769140928983688
1772701799388739600,7.525739501953125,0.5373982191085815,-0.6206709742546082,0.05856397747993469
1772701799398787600,7.53578759765625,0.5683861970901489,-0.6773497462272644,0.31038424372673035
1772701799408836600,7.545836669921875,0.5909757018089294,-0.69889897108078,0.7176779508590698
1772701799418885400,7.555885498046875,0.6196603178977966,-0.7609468698501587,1.1981308460235596
1772701799428934700,7.5659345703125,0.6799353957176208,-0.9663985967636108,1.7581124305725098
1772701799438982400,7.575982421875,0.706445038318634,-1.3958446979522705,2.1628053188323975
1772701799449031700,7.58603173828125,0.5001818537712097,-1.974186658859253,2.1161935329437256
1772701799459080400,7.59608056640625,0.1886032074689865,-1.977560043334961,1.9769837856292725
1772701799469129500,7.60612939453125,0.047734763473272324,-0.9816704392433167,1.7383911609649658
1772701799479177500,7.616177490234375,0.35373276472091675,0.5582379698753357,1.6514708995819092
1772701799489226500,7.6262265625,0.7861526012420654,2.0421440601348877,1.710212230682373
1772701799499275500,7.636275634765625,0.9341878890991211,2.7959611415863037,1.7363536357879639
1772701799509324500,7.646324462890625,0.9091432690620422,2.5629208087921143,1.5162196159362793
1772701799519372500,7.65637255859375,0.5056799650192261,1.8093739748001099,0.9503940343856812
1772701799529421600,7.666421630859375,-0.10947269946336746,0.821147620677948,0.38994669914245605
1772701799539470300,7.67647021484375,-0.3575291037559509,0.3524776101112366,0.33884117007255554
1772701799549519600,7.68651953125,-0.4986739754676819,0.39925071597099304,0.5215492248535156
1772701799559567400,7.6965673828125,-0.5367505550384521,0.47003087401390076,0.695242166519165
1772701799569616600,7.70661669921875,-0.47019094228744507,0.6285965442657471,0.7600070238113403
1772701799579665400,7.71666552734375,-0.4077424705028534,0.8606148958206177,0.7416781187057495
1772701799589714400,7.72671435546875,-0.35522758960723877,1.0016196966171265,0.6327707767486572
1772701799599762400,7.736762451171875,-0.34259676933288574,1.0696088075637817,0.45189929008483887
1772701799609811500,7.7468115234375,-0.3634037673473358,1.1000287532806396,0.27315908670425415
1772701799619860700,7.75686083984375,-0.34955161809921265,1.0914452075958252,0.12325242906808853
1772701799629909500,7.766909423828125,-0.2956385612487793,0.9982614517211914,0.00464721629396081
1772701799639957500,7.77695751953125,-0.21571364998817444,0.806047260761261,-0.06489990651607513
1772701799650006500,7.787006591796875,-0.11856073141098022,0.5859910249710083,-0.0883016362786293
1772701799660055600,7.7970556640625,-0.0234062559902668,0.3953353464603424,-0.05799592658877373
1772701799670104600,7.8071044921875,0.04025234654545784,0.20873910188674927,-0.029284652322530746
1772701799680152300,7.81715234375,0.08665313571691513,0.012823120690882206,0.0009374326909892261
1772701799690201600,7.82720166015625,0.10755042731761932,-0.07880107313394547,0.035167306661605835
1772701799700250600,7.837250732421875,0.11565335839986801,-0.03290202468633652,0.08175691217184067
1772701799710299400,7.84729931640625,0.1070936992764473,0.08792159706354141,0.13099956512451172
1772701799720347600,7.85734765625,0.07794539630413055,0.1962834894657135,0.16908995807170868
1772701799730396400,7.867396484375,0.03584934398531914,0.24319374561309814,0.18709158897399902
1772701799740445700,7.87744580078125,-0.016138490289449692,0.2491893172264099,0.17825335264205933
1772701799750494500,7.887494384765625,-0.0746111199259758,0.20316936075687408,0.11712822318077087
1772701799760542700,7.897542724609375,-0.15375174582004547,0.12239568680524826,-0.004759867675602436
1772701799770591500,7.907591552734375,-0.2119319587945938,0.09312088787555695,-0.11218912154436111
1772701799780640500,7.917640625,-0.2540288269519806,0.107871875166893,-0.1985948532819748
1772701799790689500,7.927689453125,-0.293112576007843,0.1442224234342575,-0.3074664771556854
1772701799800737500,7.937737548828125,-0.34376856684684753,0.1857730597257614,-0.44748854637145996
1772701799810786600,7.94778662109375,-0.40786072611808777,0.23736754059791565,-0.5996847748756409
1772701799820835600,7.957835693359375,-0.4733142852783203,0.3167044520378113,-0.7471581101417542
1772701799830884400,7.96788427734375,-0.5282042026519775,0.43437862396240234,-0.8726515769958496
1772701799840932600,7.9779326171875,-0.5600473284721375,0.5029334425926208,-0.922322690486908
1772701799850981400,7.9879814453125,-0.5792955756187439,0.4706023931503296,-0.8915184736251831
1772701799861030700,7.99803076171875,-0.5812264084815979,0.4054732024669647,-0.7792827486991882
1772701799871079400,8.008079345703125,-0.5752553343772888,0.29682981967926025,-0.6461747288703918
1772701799881127700,8.018127685546874,-0.587428629398346,0.16153164207935333,-0.5394171476364136
1772701799891176400,8.028176513671875,-0.6011031270027161,-0.007952997460961342,-0.47317659854888916
1772701799901225500,8.0382255859375,-0.5901511907577515,-0.13758395612239838,-0.4026329219341278
1772701799911274500,8.0482744140625,-0.5694786310195923,-0.13233353197574615,-0.3592521846294403
1772701799921322500,8.058322509765626,-0.5304715633392334,0.0018836538074538112,-0.3562238812446594
1772701799931371500,8.06837158203125,-0.4604608118534088,0.2053171992301941,-0.37529292702674866
1772701799941420500,8.078420654296876,-0.38062697649002075,0.2696588933467865,-0.3875250816345215
1772701799951468500,8.088468505859375,-0.3405857980251312,-0.0003784351865760982,-0.3790613114833832
1772701799961517600,8.098517578125,-0.37184998393058777,-0.5336612462997437,-0.33428850769996643
1772701799971566300,8.10856640625,-0.4205951690673828,-0.979321300983429,-0.24072818458080292
1772701799981615600,8.11861572265625,-0.4554421007633209,-1.0543854236602783,-0.17139704525470734
1772701799991664600,8.12866455078125,-0.46614426374435425,-0.8296705484390259,-0.15093998610973358
1772701800001712600,8.138712646484375,-0.4763851761817932,-0.5732765793800354,-0.11496786773204803
1772701800011761400,8.148761474609374,-0.42702749371528625,-0.44498491287231445,-0.04514351114630699
1772701800021810400,8.158810546875,-0.31281834840774536,-0.44660651683807373,0.05174921452999115
1772701800031858400,8.1688583984375,-0.22984331846237183,-0.46829795837402344,0.15993639826774597
1772701800041907500,8.178907470703125,-0.19139179587364197,-0.49674877524375916,0.27484646439552307
1772701800051956700,8.188956787109374,-0.18102625012397766,-0.5549542903900146,0.3904801309108734
1772701800062005500,8.199005615234375,-0.20536060631275177,-0.6724497675895691,0.45176559686660767
1772701800072053500,8.209053466796876,-0.2228783518075943,-0.811051607131958,0.5236853361129761
1772701800082102500,8.2191025390625,-0.24937866628170013,-0.8842397928237915,0.6159058213233948
1772701800092151600,8.229151611328126,-0.24249865114688873,-0.8605027794837952,0.7379273176193237
1772701800102200600,8.23920068359375,-0.17701871693134308,-0.7022111415863037,0.8074246048927307
1772701800112248300,8.249248291015626,-0.06168466806411743,-0.4304523169994354,0.8026818037033081
1772701800122297600,8.259297607421875,0.04469077289104462,-0.13169890642166138,0.744325578212738
1772701800132346600,8.2693466796875,0.11485680937767029,0.047329697757959366,0.7073318362236023
1772701800142395400,8.2793955078125,0.1282634288072586,-0.0015899071004241705,0.7087073922157288
1772701800152443600,8.289443603515625,0.08502887189388275,-0.2003978043794632,0.7132629752159119
1772701800162492400,8.299492431640624,-0.02034948021173477,-0.3877362906932831,0.6859166026115417
1772701800172541700,8.309541748046875,-0.15857845544815063,-0.45834413170814514,0.6513098478317261
1772701800182590500,8.319590576171874,-0.270630419254303,-0.2969251573085785,0.634868323802948
1772701800192638700,8.329638671875,-0.31628552079200745,0.0003014698449987918,0.6466051340103149
1772701800202687500,8.3396875,-0.3337068557739258,0.21999014914035797,0.6703887581825256
1772701800212736500,8.349736572265625,-0.34083855152130127,0.27207332849502563,0.7359344959259033
1772701800222785000,8.359784912109374,-0.36327701807022095,0.18086005747318268,0.813155472278595
1772701800232833000,8.3698330078125,-0.375380277633667,0.019816847518086433,0.900638997554779
1772701800242882000,8.379882080078126,-0.3657580018043518,-0.16534528136253357,0.9657149314880371
1772701800252930800,8.389930908203125,-0.34416109323501587,-0.3773480951786041,1.0004348754882812
1772701800262980000,8.39997998046875,-0.3178570568561554,-0.4464355409145355,0.9931207299232483
1772701800273027800,8.41002783203125,-0.28139519691467285,-0.32180947065353394,0.9205876588821411
1772701800283077000,8.4200771484375,-0.2698003351688385,-0.12566418945789337,0.8189659714698792
1772701800293126100,8.430126220703125,-0.2803272604942322,0.02792564034461975,0.7167109847068787
1772701800303175000,8.4401748046875,-0.2879055440425873,0.10608382523059845,0.5967275500297546
1772701800313223000,8.450222900390624,-0.3277997076511383,0.10955791920423508,0.43136683106422424
1772701800323272000,8.46027197265625,-0.3505961000919342,0.0700206309556961,0.26615551114082336
1772701800333321200,8.4703212890625,-0.3598894774913788,0.03814392164349556,0.13657516241073608
1772701800343370000,8.480369873046875,-0.338021457195282,0.05716794729232788,0.0773584395647049
1772701800353418000,8.49041796875,-0.28590497374534607,0.06801127642393112,0.031973112374544144
1772701800363467000,8.500467041015625,-0.22825953364372253,0.1105470135807991,-0.002846652874723077
1772701800373516000,8.51051611328125,-0.2150028496980667,0.15697497129440308,-0.0032583775464445353
1772701800383565000,8.52056494140625,-0.19356600940227509,0.15818670392036438,-0.003995540551841259
1772701800393613000,8.530613037109376,-0.2051427662372589,0.2392309606075287,0.00011717908637365326
1772701800403662000,8.540662109375,-0.21646732091903687,0.31919023394584656,0.0017752632265910506
1772701800413711000,8.550711181640626,-0.2115122526884079,0.3996374011039734,-0.01786768063902855
1772701800423760000,8.560759765625,-0.21204887330532074,0.45030590891838074,-0.05572584643959999
1772701800433808100,8.57080810546875,-0.21715468168258667,0.5183704495429993,-0.07855712622404099
1772701800443857000,8.58085693359375,-0.1856420338153839,0.5523568987846375,-0.08328450471162796
1772701800453906200,8.59090625,-0.17115284502506256,0.5425373315811157,-0.07443295419216156
1772701800463955000,8.600954833984375,-0.16064932942390442,0.5375846028327942,-0.034922562539577484
1772701800474003200,8.611003173828125,-0.16519108414649963,0.49647581577301025,0.006788664031773806
1772701800484052000,8.621052001953124,-0.16346056759357452,0.4569624960422516,0.05387654900550842
1772701800494101000,8.63110107421875,-0.1720588505268097,0.4103204309940338,0.09996521472930908
1772701800504150000,8.64114990234375,-0.1687738448381424,0.3417637348175049,0.1318240761756897
1772701800514199000,8.651198974609375,-0.15086275339126587,0.24805481731891632,0.17921529710292816
1772701800524247000,8.6612470703125,-0.12034984678030014,0.13109250366687775,0.22293348610401154
1772701800534296000,8.671296142578125,-0.09958997368812561,0.04231629893183708,0.26425349712371826
1772701800544344800,8.6813447265625,-0.08240725845098495,-0.01745355874300003,0.28327032923698425
1772701800554393000,8.69139306640625,-0.07729718834161758,-0.04121800884604454,0.2860757112503052
1772701800564441900,8.70144189453125,-0.07445985078811646,-0.019470371305942535,0.27171167731285095
1772701800574491100,8.7114912109375,-0.0728909820318222,0.02105761505663395,0.22852957248687744
1772701800584540000,8.721539794921876,-0.06053951010107994,0.06312677264213562,0.16351835429668427
1772701800594588200,8.731588134765625,-0.047514788806438446,0.08011374622583389,0.08297663927078247
1772701800604637000,8.741636962890626,-0.03747520223259926,0.06683255732059479,0.03322799503803253
1772701800614686000,8.75168603515625,-0.034508440643548965,0.05125785991549492,0.000580036488827318
1772701800624735000,8.76173486328125,-0.031009314581751823,0.030589867383241653,-0.0072957295924425125
1772701800634783000,8.771782958984375,-0.01690441556274891,0.010432933457195759,0.0014269216917455196
1772701800644832000,8.78183203125,-0.0008556736283935606,-0.013075588271021843,0.040712542831897736
1772701800654881000,8.791881103515625,0.009579123929142952,-0.005481318105012178,0.06052912399172783
1772701800664930000,8.801929931640625,0.020314060151576996,0.03160692751407623,0.0523364394903183
1772701800674978000,8.81197802734375,0.034940142184495926,0.06822352856397629,0.03947923332452774
1772701800685026800,8.82202685546875,0.04331817850470543,0.10171783715486526,0.0024000408593565226
1772701800695076000,8.832076171875,0.0489097535610199,0.14870132505893707,-0.032159268856048584
1772701800705125000,8.842125,0.04917260631918907,0.20118743181228638,-0.05600574612617493
1772701800715173000,8.852173095703124,0.049552373588085175,0.24334101378917694,-0.05566619336605072
1772701800725222100,8.86222216796875,0.04265531897544861,0.25291189551353455,-0.022960176691412926
1772701800735271000,8.87227099609375,0.03333638608455658,0.21649688482284546,0.010851582512259483
1772701800745320200,8.8823203125,0.03647119179368019,0.16832828521728516,0.03430550917983055
1772701800755368000,8.892367919921876,0.05811922997236252,0.1560809463262558,0.2347315549850464
1772701800765417200,8.902417236328125,0.04325027018785477,0.15740346908569336,0.1657881736755371
1772701800775466000,8.912466064453126,-0.013062804937362671,0.20548205077648163,0.024203073233366013
1772701800785515000,8.922514892578125,-0.04573606327176094,0.33815115690231323,-0.10310667753219604
1772701800795563000,8.93256298828125,-0.04631343483924866,0.4388095736503601,-0.15141908824443817
1772701800805612000,8.942612060546875,-0.03561605140566826,0.45563703775405884,-0.15993240475654602
1772701800815661000,8.9526611328125,-0.02472292259335518,0.37959498167037964,-0.1702558845281601
