time,seconds_elapsed,z,y,x
1772702124247155200,0.0631552734375,0.0012707505881786347,-0.02429853842165321,0.004215405188349541
1772702124257205200,0.073205322265625,0.016679916644096373,-0.011324545357096939,0.009544587154744658
1772702124267254000,0.08325390625,-0.001273088675737381,-0.0006539886630140244,-0.0015334886110154912
1772702124277304000,0.093303955078125,0.0051566521108150475,-0.0010664601877331734,0.012080832200672012
1772702124287353300,0.103353271484375,-0.00606675269305706,0.008392875819373875,0.009377790636918506
1772702124297403400,0.1134033203125,0.006947627180814743,0.013499222515057772,0.002063691064156592
1772702124307452200,0.1234521484375,-0.004873743516206741,0.008419928223080932,-0.0074695001970278094
1772702124317502200,0.133502197265625,0.024755671072006224,-0.005868508440908044,0.007742439953470602
1772702124327551200,0.14355126953125,-0.005918868654966354,-0.001563376859202981,-0.003778408860438503
1772702124337601300,0.153601318359375,0.0000672200173139572,-0.007257478581275791,0.0021514401295571585
1772702124347651300,0.1636513671875,0.006351414853334426,-0.006943005804624408,0.018744776752032337
1772702124357700000,0.1737001953125,-0.0015764555364847182,0.0008662614405155182,-0.013996942904125897
1772702124367750100,0.183750244140625,-0.01983107415139675,-0.002632010737713426,0.0046369116861838845
1772702124377799200,0.193799072265625,-0.016086042404174803,0.00020969722792506216,0.00682180199419381
1772702124387849200,0.20384912109375,0.006959902140498161,-0.0007645911643281579,0.004433582550252322
1772702124397898200,0.213898193359375,0.002470189505815506,-0.00611508534681052,0.013943692046659998
1772702124407948300,0.2239482421875,-0.01638473308980465,0.0013824125354178248,0.007883921650238334
1772702124417997000,0.2339970703125,-0.010398644417524337,-0.004956142836343496,-0.0034268212270806542
1772702124428047000,0.244047119140625,0.006953472399711609,-0.006355104647763073,0.008254668358503841
1772702124438097200,0.25409716796875,-0.0023240590333938596,0.0056148259407840665,0.010986093483236618
1772702124448146400,0.264146484375,-0.0015787936240434645,0.011244173597265034,0.012529281504359096
1772702124458196200,0.2741962890625,-0.003974164327979088,0.0036683680481277405,0.001087361411866732
1772702124468245200,0.284245361328125,0.007695230677723884,-0.0037237332308664916,-0.0004374233028851449
1772702124478295300,0.29429541015625,0.005752864438295364,0.007345887517090886,-0.004804584986844565
1772702124488344300,0.30434423828125,-0.005169511592388153,-0.004996493113040924,-0.002805417376128025
1772702124498394400,0.314394287109375,0.0018628712624311446,-0.011407620530668645,0.010124795912206172
1772702124508443100,0.324443115234375,0.007248071432113647,0.0025939254833385345,-0.0002831369234714657
1772702124518493200,0.3344931640625,-0.010557049849629402,-0.008846391740534454,0.002089031001389958
1772702124528542700,0.344542724609375,0.005755787047743797,-0.00325575039293617,0.01408251371217193
1772702124538592800,0.3545927734375,-0.0005289923101663589,0.008105912104155868,0.0035390288803027943
1772702124548642800,0.364642822265625,-0.0006757073044776916,-0.005761285206768662,0.003001165993802715
1772702124558691800,0.37469189453125,0.01249298634827137,-0.004723119531758129,0.009335814658715389
1772702124568742000,0.384741943359375,-0.005462357059121132,0.012594894086476415,-0.003566875868453644
1772702124578791000,0.394791015625,0.008751461732387542,-0.01008305739602074,-0.0006255114872008562
1772702124588841000,0.404841064453125,-0.0020259528696537016,-0.0014262151445262133,-0.004888970768090803
1772702124598889700,0.4148896484375,0.008450432959198952,-0.0035796668513678014,0.00051746398586547
1772702124608939800,0.424939697265625,0.015180617997050285,-0.007025679119396954,0.02571309052784927
1772702124618988800,0.43498876953125,0.0068014967083930965,0.0040292555160820484,0.005579455516592133
1772702124629038800,0.445038818359375,0.004108019840717315,-0.0076193706962279974,0.013868864111625589
1772702124639089000,0.4550888671875,0.003957797715067863,-0.001946713620983064,0.023904157392762134
1772702124649137700,0.4651376953125,-0.003819850549101829,-0.001625628440454602,0.007914526851056144
1772702124659187700,0.475187744140625,-0.006965747359395026,0.0006193009421229362,0.015487211144634055
1772702124669237000,0.485237060546875,0.0030558804392814636,-0.008025138485524804,0.013253563491185194
1772702124679287000,0.495287109375,0.025801380732655525,-0.0019115327097475527,0.022283303308836183
1772702124689335800,0.505335693359375,0.004252981269359589,-0.011914346210099756,0.007099497840856201
1772702124699385900,0.5153857421875,0.007242226213216781,-0.012250391497742383,-0.0029074438453419132
1772702124709434600,0.5254345703125,-0.000090016371011734,-0.00837455471139401,0.005519804601091891
1772702124719485000,0.53548486328125,0.0029027357041835782,-0.006859419174399226,0.010168034549022558
1772702124729535000,0.545534912109375,0.008737433207035064,-0.004590889720525592,0.008608308668341487
1772702124739584000,0.555583984375,-0.0011368950754404067,0.005204765568859875,0.011691109080589375
1772702124749633800,0.5656337890625,0.005301613539457321,0.00395622681248933,0.00045048371385782957
1772702124759682800,0.575682861328125,0.009942132821679115,-0.005540208068303763,0.004363168212142773
1772702124769732900,0.58573291015625,0.014285130462050438,0.008086860343813895,-0.0032654178370023143
1772702124779782000,0.595781982421875,0.0066501055389642716,0.005562712161056697,0.003437096025922801
1772702124789832000,0.60583203125,-0.0012824410259723662,0.002490118048992008,0.00725938969386043
1772702124799880700,0.615880615234375,0.0005143792629241943,0.017402458764985203,0.018537798920867498
1772702124809930800,0.6259306640625,0.007543254986405372,0.00023112360844388603,0.017124283427710177
1772702124819980800,0.635980712890625,0.0018587796092033385,-0.01780587020041421,0.024803241107356735
1772702124830030000,0.646030029296875,-0.00008826280534267425,-0.004235701340995729,0.018315004749351646
1772702124840080000,0.656079833984375,0.006347323200106621,0.001393390587158501,-0.0008923434465541504
1772702124850129000,0.66612890625,0.007842530193924904,-0.008438596390932798,-0.014781928402511402
1772702124860179000,0.676178955078125,0.006644260320067406,-0.011225834222976117,-0.009215820991259534
1772702124870227700,0.686227783203125,0.001858195087313652,0.0023057744580321014,-0.012488024762074928
1772702124880277800,0.69627783203125,0.0018628712624311446,-0.00553390619168058,0.018014206588314846
1772702124890326800,0.706326904296875,0.00919511384665966,-0.01617114513805136,0.012647320676746312
1772702124900376800,0.716376953125,-0.0011316343784332275,0.010233918842487037,0.001979095220356248
1772702124910427000,0.726427001953125,0.006499883413314819,0.006797605984564871,-0.0003381641794927418
1772702124920476000,0.736475830078125,0.002011924344301224,0.0029884594925679263,0.0020335174048901534
1772702124930525700,0.746525634765625,0.009344751450419426,-0.009001070845592766,0.003264011331205256
1772702124940575000,0.756574951171875,0.0069493807464838025,0.015427304500807076,0.00427933498674538
1772702124950625000,0.766625,-0.006668225717544555,0.027893695103097707,-0.004221113409928512
1772702124960673800,0.776673828125,0.0009650456398725509,-0.006872114259190857,0.017758752256212755
1772702124970723800,0.786723876953125,-0.004869067341089248,0.00876528932834044,0.015162187291216104
1772702124980772900,0.79677294921875,-0.00037993922829627987,0.003971406115312129,0.004070117249432951
1772702124990823000,0.806822998046875,-0.005317980152368545,-0.008156601111777127,0.002642109723330941
1772702125000873000,0.816873046875,-0.00008183306455612182,-0.0073757529323920604,-0.01156917461779667
1772702125010922000,0.826921875,0.0029109190106391906,0.002789137528184801,-0.0023928294036886654
1772702125020971800,0.8369716796875,0.001263151803612709,-0.005235708696395158,0.007691011160332709
1772702125031020800,0.847020751953125,0.00021627309918403624,0.0001191876665689051,0.009191209423099644
1772702125041070800,0.85707080078125,0.01248597208559513,-0.001224226299021393,-0.00022136939940974116
1772702125051119900,0.867119873046875,0.01518295608460903,-0.010529120663087815,0.012319230366696137
1772702125061170000,0.877169921875,0.006056231299042702,-0.0023456680770032106,-0.005066366311744786
1772702125071219000,0.887218994140625,-0.015194646522402763,0.0011802958257496356,0.017953678889980073
1772702125081268700,0.897268798828125,0.009042553633451461,-0.008972155278362334,0.003326119065273087
1772702125091318000,0.907318115234375,-0.002480126377940178,-0.0038281251871027052,-0.0013087741937604731
1772702125101368000,0.9173681640625,-0.0039770869374275205,-0.006044157268758863,0.00005029856526525691
1772702125111417900,0.92741796875,0.003806406545639038,-0.00047150823557749386,0.008397919603961053
1772702125121467000,0.937466796875,-0.012353870138525963,-0.007376848910935222,0.006960559727624058
1772702125131517000,0.947516845703125,-0.0005301613539457321,-0.008525598820950836,0.011660028955736196
1772702125141565700,0.957565673828125,0.011440846946835517,-0.01421082311682403,-0.006224635252065491
1772702125151615700,0.96761572265625,-0.0023258125990629195,-0.0026734021940268576,0.020837805791816207
1772702125161665000,0.9776650390625,0.008746201035380362,0.0036444026506505904,0.012693068647768813
1772702125171714800,0.98771484375,0.000668108519911766,-0.006910692703910172,-0.0026941618542652575
1772702125181763800,0.997763916015625,0.006205868902802467,-0.010673643700312822,0.012064335440308787
1772702125191814000,1.00781396484375,0.010998363876342773,0.004879661800339817,0.007828282472863792
1772702125201863700,1.01786376953125,0.00007657236754894256,0.008531553637702017,0.013318239924963563
1772702125211913000,1.027912841796875,0.000678045392036438,0.013056319319456815,-0.0034386577953468074
1772702125221963000,1.037962890625,-0.00021568857729434965,-0.0037334326409734784,-0.002778422054636758
1772702125232011800,1.04801171875,0.004873158994317055,-0.0042388796787709,0.005371564369974657
1772702125242061800,1.058061767578125,0.012204232534766197,-0.012403627564385532,0.02340927284817444
1772702125252110800,1.06811083984375,0.0008300210833549499,-0.01574888287167996,0.0078096599707845596
1772702125262161000,1.078160888671875,-0.0053033671051263805,0.0013883490858599542,0.0011436718760989605
1772702125272210000,1.0882099609375,-0.013532850790023802,-0.0007257752575911582,0.007068495347816496
1772702125282260000,1.098260009765625,-0.0073988780796527855,-0.0036535723377950488,-0.0004218649741495028
1772702125292308700,1.108308837890625,0.0033750293910503387,0.00655254518231377,0.001662896277499385
1772702125302358800,1.11835888671875,0.00651683454811573,0.00047108811046928166,0.00018018343907315283
1772702125312408800,1.128408935546875,0.00023030162453651428,-0.0006733144179917872,0.009727768551791086
1772702125322457900,1.138457763671875,0.003821604114770889,-0.006362557301856577,0.00467671397360973
1772702125332508000,1.1485078125,0.006513911938667297,-0.004203369973972439,-0.0204254529981059
1772702125342557000,1.158556884765625,0.006363105291128158,0.000798475167620927,0.0041077389962156305
1772702125352606700,1.168606689453125,0.006812018102407455,0.0048283517382107675,0.009924161056859884
1772702125362656000,1.178656005859375,-0.002766542103886604,-0.0012449402934871614,0.004235918253415729
1772702125372706000,1.1887060546875,0.007110124266147613,0.004429981804080307,0.005059100887319073
1772702125382754800,1.1987548828125,-0.000374094009399414,-0.0034146490153856572,0.0066377689304878
1772702125392804900,1.208804931640625,0.0062111295998096465,-0.008099464097060263,0.007089928578201215
1772702125402855000,1.21885498046875,0.007709843724966049,0.0027162184224463998,0.0028205989622394553
1772702125412903700,1.228903564453125,0.004571545699238777,-0.0006134009242989122,-0.0019379320929059757
1772702125422953700,1.23895361328125,-0.005154898545145988,0.014948562806844711,-0.002180195866583381
1772702125433003000,1.2490029296875,0.007415829214453697,0.0027568244274705648,0.013765396887285168
1772702125443052800,1.259052734375,0.013698855006694793,0.0025296646080911157,0.001063389164523687
1772702125453101800,1.269101806640625,-0.0017155717462301254,0.01080857692528516,-0.00047493088523624464
1772702125463151900,1.27915185546875,0.008462123396992684,0.0018977051137946544,0.008656011134432628
1772702125473201000,1.289200927734375,0.01205634849667549,-0.015152396549563855,0.012955226715293247
1772702125483251000,1.2992509765625,-0.0011123451560735701,-0.014982282413356005,0.012831011247157584
1772702125493301000,1.309301025390625,-0.00500233833193779,-0.0016930676534771918,0.0009852207782212643
1772702125503349800,1.319349853515625,0.00936287162899971,-0.00304249123474583,0.0024492197830229996
1772702125513399800,1.32939990234375,0.011605097597837448,0.001701872014440596,0.0006045166482334024
1772702125523448800,1.33944873046875,0.015645897421240805,-0.004774466126505285,0.013851588749838993
1772702125533499000,1.349498779296875,-0.0035088849037885664,0.0021488303306512534,0.02537469801949337
1772702125543547600,1.359547607421875,-0.004105097231268883,0.010603702002950011,0.007809194179903715
1772702125553597700,1.36959765625,0.00502279659807682,-0.006150832513626665,0.001556095451756846
1772702125563646700,1.379646728515625,0.007563128730654716,-0.0038985418085008858,0.011747478910326025
1772702125573696500,1.389696533203125,-0.0003653261810541153,-0.011647658097930252,0.02611305648073321
1772702125583745800,1.399745849609375,0.0012853636354207992,-0.015248331204708665,-0.011303705781756435
1772702125593795800,1.4097958984375,0.00861994430720806,0.0012654168259352446,-0.010014613536000251
1772702125603846000,1.419845947265625,-0.0012549684971570967,0.0022892434483394023,0.017342556687735485
1772702125613894700,1.429894775390625,0.005028057295084,-0.01515223215278238,0.00528643195334589
1772702125623944700,1.43994482421875,-0.005299275451898574,-0.016099687337037174,0.016609041081683245
1772702125633993700,1.44999365234375,-0.005298106408119201,-0.012426405651774256,0.0027095466530648988
1772702125644043800,1.460043701171875,0.006678162589669227,-0.01086231640651822,0.013853454196651
1772702125654092800,1.4700927734375,0.010423194336891173,-0.026742132181487976,0.020834280394169034
1772702125664142800,1.480142822265625,0.003542202651500702,-0.033693430890422316,0.018538070632214656
1772702125674191600,1.490191650390625,-0.00798339996933937,0.005632306798547506,-0.011570677021716255
1772702125684241700,1.50024169921875,0.012070377022027968,0.020508699418324977,-0.011724102601315825
1772702125694290700,1.510290771484375,0.0022001403927803037,0.04315747960526496,-0.013238039411779026
1772702125704340700,1.5203408203125,-0.009775544083118438,0.052497591413184996,-0.016099180446960962
1772702125714390800,1.530390869140625,0.015211013135313986,0.056963302117772396,-0.017787277381087187
1772702125724439600,1.540439453125,0.0069803604066371915,0.03454686938198283,0.006761196664045565
1772702125734489600,1.550489501953125,0.0005436053574085235,-0.005769705975241958,0.03506060704080155
1772702125744539000,1.560538818359375,0.010272972211241722,-0.05360739755230024,0.019248518173221964
1772702125754589000,1.5705888671875,0.0033908114820718764,-0.07460550618907437,0.016903516816499178
1772702125764637700,1.5806376953125,-0.000800210466980934,-0.02816018228586763,0.003047409438458271
1772702125774687700,1.590687744140625,-0.001699205133318901,0.0007830584027804434,0.009956739019055385
1772702125784736500,1.600736572265625,0.007577157256007194,-0.0008152619056403637,0.00032235697229625657
1772702125794786800,1.610786865234375,0.00862520500421524,0.00709498149594292,0.015165651040070224
1772702125804836900,1.6208369140625,-0.0006517419070005417,0.005285904513671994,-0.0017115896908566355
1772702125814885600,1.6308857421875,0.0021866963893175124,0.007408504424523562,0.0020768017074791712
1772702125824935700,1.640935791015625,0.008020224848389625,-0.0020638554609380662,0.0007229371298220939
1772702125834984700,1.650984619140625,0.011461305212974547,-0.04185523790027946,-0.0031855894998647273
1772702125845034800,1.66103466796875,-0.0032031799554824826,-0.044070648927427826,-0.0010147482668049633
1772702125855083800,1.671083740234375,0.0059247138738632195,-0.02209646180011332,-0.024687357359437737
1772702125865133800,1.6811337890625,0.0017377835780382155,-0.00007330269822850823,-0.0125268315356574
1772702125875182600,1.6911826171875,0.004129062628746033,-0.02869322971664369,0.012560021419206167
1772702125885232600,1.701232666015625,0.007874094375967979,-0.031559688531048596,0.014828224362805485
1772702125895281700,1.71128173828125,0.012666589349508284,-0.006132931530755013,0.011972926263231784
1772702125905331700,1.721331787109375,-0.0036480011135339736,0.01587327643632889,-0.022521970902918836
1772702125915381800,1.7313818359375,-0.005290507623553276,0.019305570706259458,-0.029911019425012637
1772702125925430800,1.7414306640625,-0.01172434006333351,0.003134882225934416,-0.011557422531209885
1772702125935480800,1.751480712890625,0.009825228443741799,-0.02044478560294956,0.0022912070765625683
1772702125945529600,1.761529541015625,0.0021972177833318707,-0.006369041841570287,0.01755555326773319
1772702125955579600,1.77157958984375,-0.018452771535515784,0.011136420640163123,0.03261877141321311
1772702125965628700,1.781628662109375,0.008182721933722496,-0.024330248734168707,0.029389370171085463
1772702125975678700,1.7916787109375,0.013123100945353508,-0.008858228308800608,0.019259569290198852
1772702125985727700,1.801727783203125,-0.0004921674311161041,0.0341693047738634,-0.003710284660826437
1772702125995777800,1.81177783203125,0.005490998631715774,0.013182046324666588,-0.006619395306869409
1772702126005826800,1.821826904296875,-0.002591185536980629,0.016220537237729878,0.007349730291857849
1772702126015876900,1.831876953125,0.0021937106519937513,0.00796928011244163,0.03670493333186023
1772702126025927000,1.841927001953125,-0.006788052704930305,0.0154487308813259,0.03757009422725532
1772702126035975700,1.8519755859375,0.003985854765772819,0.015016330813430248,0.03385456256915349
1772702126046025700,1.862025634765625,0.011022329273819922,0.02233956810729578,0.02395948832617141
1772702126056074500,1.872074462890625,0.0047381344377994536,0.02841433971002698,-0.006033229449368082
1772702126066124800,1.882124755859375,0.0009977788656949996,0.005029409001953899,-0.00938187772356905
1772702126076173800,1.892173828125,0.011172551399469375,-0.02039937555864453,0.009376269966689868
1772702126086224000,1.902223876953125,0.0068324763685464855,-0.03206299841068685,0.03060436970074661
1772702126096272600,1.912272705078125,0.001295300507545471,-0.03950421779472381,0.021232648045010863
1772702126106322700,1.92232275390625,0.00234451729953289,-0.03732840812560171,0.005134218800009693
1772702126116371700,1.932371826171875,-0.0019938041657209396,0.006896645912248641,-0.0027601237795432097
1772702126126421800,1.942421875,-0.013364508485794067,0.02076727728927508,0.0035042475445778106
1772702126136471800,1.952471923828125,0.005493921241164207,0.009098759066406637,0.015356775998265947
1772702126146520600,1.9625205078125,0.012829670956730842,-0.0022911979434080423,0.013785320863884407
1772702126156570600,1.972570556640625,-0.003779518538713455,0.006366466291993856,0.012738663638452998
1772702126166620000,1.982619873046875,-0.009314356312155722,0.00178790633007884,-0.004521288233168889
1772702126176670000,1.992669921875,0.0029547581523656843,-0.018833331818319855,-0.014165111678419634
1772702126186718700,2.00271875,0.016869301736354828,-0.032062304290942846,-0.010605302588280756
1772702126196768800,2.012768798828125,-0.01006605146229267,-0.051314592173695564,0.010388926741108298
1772702126206817500,2.022817626953125,0.020008184283971785,-0.16761274784617125,0.030458380792220123
1772702126216867600,2.03286767578125,-0.012608721682429313,-0.037300387607514855,0.014001205804001073
1772702126226916900,2.042916748046875,0.015675123515725135,0.16061392020108178,-0.030477348070882725
1772702126236966700,2.052966552734375,-0.017246318355202673,0.22600370814688503,-0.060140927506890145
1772702126247016700,2.0630166015625,0.012233458629250526,0.07134997499184682,-0.00964923712259624
1772702126257065700,2.073065673828125,-0.012460837644338607,-0.03802040897775441,0.03893540493082255
1772702126267115800,2.08311572265625,0.012232874107360838,-0.08379753302950411,0.057872133191535245
1772702126277164800,2.093164794921875,0.0035533085674047467,-0.08334925953904167,0.05217619570540264
1772702126287214800,2.10321484375,0.0005617255359888076,-0.11691371202124282,0.03635626830795081
1772702126297263600,2.113263671875,-0.00123217214345932,-0.04545824909461662,0.016050245005008762
1772702126307313700,2.123313720703125,-0.005412088176608086,0.04632644676389172,-0.0037884918630355967
1772702126317362700,2.13336279296875,-0.0058580783784389495,0.10440222190190106,-0.03411395785743371
1772702126327412700,2.143412841796875,0.003271569016575813,0.08366451776698232,-0.02838895410702098
1772702126337461800,2.153461669921875,0.01793839227259159,-0.0341841735494323,-0.009516342874371912
1772702126347511800,2.16351171875,-0.002855389431118965,-0.1133048921406269,0.00487056517843157
1772702126357561900,2.173561767578125,-0.0052460839599370954,-0.08621946294680237,-0.015609581715555395
1772702126367610600,2.183610595703125,0.016748305705189703,-0.03374052143516019,0.0003976552647887729
1772702126377660700,2.19366064453125,0.01255611471235752,-0.011641520618088543,0.024667460782302076
1772702126387709700,2.203709716796875,0.0020849895805120466,0.013221903411019593,0.01125535029511666
1772702126397759700,2.213759765625,-0.003897591960430145,0.01475123187014833,0.017242023489286655
1772702126407808800,2.223808837890625,0.008674304842948913,0.04159364608833566,0.03804764861112926
1772702126417858800,2.23385888671875,0.008371522504091263,0.03544812907064333,0.012724141922756097
1772702126427907600,2.243907470703125,0.0007405892342329024,-0.004960563283134252,-0.0048118892271770165
1772702126437958000,2.2539580078125,-0.004196867167949677,-0.04164650878673419,-0.007604613801802043
1772702126448006700,2.264006591796875,0.003737432962656021,-0.04105077138328925,-0.003248204124008771
1772702126458056700,2.274056640625,0.011371288841962814,-0.021520433744136244,0.00655455904288683
1772702126468106800,2.284106689453125,0.007035889986157417,0.02347755916127935,-0.00591883440563688
1772702126478155500,2.294155517578125,0.0011976853519678114,-0.00036934476904571054,0.0014051974726724437
1772702126488205600,2.30420556640625,0.0053892918229103085,-0.007477331877034157,0.0032343445620150305
1772702126498254800,2.3142548828125,0.003444587495923042,-0.020655798005126416,0.014260041686566546
1772702126508305000,2.324304931640625,0.008232990816235542,-0.028886925657838583,0.009775359136739279
1772702126518353700,2.334353759765625,0.005090601137280464,-0.02737774493759498,0.029313603804423473
1772702126528403700,2.34440380859375,0.003591302490234375,-0.011524652772769331,0.03344571919006994
1772702126538452700,2.35445263671875,0.0004465747237205505,-0.00591384541997686,0.014667677205963991
1772702126548503000,2.3645029296875,0.0038864860445261,0.00510556124439463,0.0010760020509245805
1772702126558552000,2.374552001953125,0.004033785560727119,0.010103369531687348,-0.0032704410719918086
1772702126568602000,2.38460205078125,0.0010392799198627471,0.0005911342935636639,0.005963470415095798
1772702126578652000,2.39465185546875,0.01091477724611759,-0.0070034855538979165,0.009063438874564598
1772702126588701000,2.404700927734375,0.014203297397494315,0.004811327538173645,0.013406881756219081
1772702126598751000,2.4147509765625,0.007616904744505882,0.009840608675964176,0.0056317451095441355
1772702126608800000,2.424800048828125,0.005075988090038299,0.017655301014892755,-0.0006637474386254325
1772702126618850000,2.43485009765625,-0.005995441022515297,0.016348766727279872,0.01155107498881407
1772702126628898800,2.44489892578125,-0.0092892218708992,0.005052826410159469,0.011664250756416004
1772702126638948900,2.454948974609375,0.012260931158065796,0.0006228080734610557,-0.00047196261001517995
1772702126648998100,2.464998046875,0.023184476232528686,0.0022926044492051004,-0.013449955996253992
1772702126659048200,2.475048095703125,0.0029810616374015804,-0.016020630751457064,0.007140183760982472
1772702126669097000,2.485096923828125,-0.004795417582988739,0.00578267505466938,0.007361477811867371
1772702126679147000,2.49514697265625,0.0020908347994089125,0.01354167341729626,-0.012868555362126789
1772702126689197000,2.505197021484375,0.008674304842948913,0.011018712544627487,-0.004060876780340913
1772702126699245800,2.515245849609375,0.0007435118436813354,-0.0021233122969046233,0.00643363836024655
1772702126709295900,2.5252958984375,0.004037292692065239,-0.023169954516831785,0.0015833419349975883
1772702126719345200,2.53534521484375,0.014213818791508674,-0.02560107238758355,0.009990198330662678
1772702126729395000,2.54539501953125,0.016605682364106176,-0.00992589407293126,0.01772568110367283
1772702126739444000,2.55544384765625,0.01780161415040493,-0.015254614815022795,0.006694204975594766
1772702126749494000,2.565493896484375,0.009272270736098289,-0.003894559753127396,-0.0022904490247368813
1772702126759543000,2.57554296875,-0.004645195457339287,0.010395831405930221,0.0007818779425579123
1772702126769593000,2.585593017578125,-0.0004559270739555359,-0.002152026934735477,0.00391049482448725
1772702126779641900,2.595641845703125,0.0008913958817720412,-0.01802345847385004,0.006428594575659372
1772702126789692000,2.60569189453125,0.012112462598085403,-0.014936817570123821,0.02967124215265503
1772702126799742000,2.615741943359375,-0.006443769311904907,-0.016096801260206847,-0.00888486972055398
1772702126809791000,2.625791015625,-0.0024029694885015487,-0.0009988931105472147,0.011873792720714118
1772702126819841000,2.635841064453125,-0.0034527708023786544,-0.005564301329944283,-0.003749801537173334
1772702126829890000,2.64589013671875,-0.0039016836136579513,0.0007045315401628613,0.002906263385119382
1772702126839940000,2.655940185546875,-0.008093290084600448,0.004352733583096414,0.0045662850022315975
1772702126849988900,2.66598876953125,0.009262918385863303,-0.013641644926741718,0.015358602629171218
1772702126860039000,2.676038818359375,0.006271335354447364,-0.014754026615433393,0.00032020839769393203
1772702126870088000,2.686087890625,-0.007643792751431465,-0.02946257012132555,0.007956582744361366
1772702126880138000,2.696137939453125,-0.0012076222240924835,-0.019810762015730142,0.0022787951195612547
1772702126890187000,2.70618701171875,0.016001871252059936,-0.001632533105276525,0.0018994130136910825
1772702126900237000,2.716237060546875,0.00013853168785572052,-0.00277724616099149,-0.011068917495058849
1772702126910285800,2.726285888671875,0.002684124517440796,0.009856683027930557,0.021029350875120142
1772702126920336100,2.736336181640625,0.005078910699486732,0.00038448753925040364,0.029482695027324368
1772702126930386200,2.74638623046875,0.005674538505077362,-0.01446424988862127,0.023556821242836302
1772702126940435000,2.75643505859375,0.007020107895135879,-0.010814531742036343,0.004646453549375292
1772702126950485000,2.766485107421875,-0.007347440153360366,-0.012213292624056338,-0.00281139045918826
1772702126960534000,2.776533935546875,-0.003159340813755989,-0.006458565022237598,-0.005889482730277814
1772702126970583800,2.786583740234375,0.0046200610160827636,-0.005203231198899447,-0.004531811910471879
1772702126980633000,2.796633056640625,-0.0009194529324769973,0.02442527007386088,0.007426994495862163
1772702126990683100,2.80668310546875,-0.004509586378931999,0.014196794591471553,-0.006587159837968647
1772702127000732000,2.81673193359375,-0.0003249941706657409,0.008998769290652126,-0.0032390686861937866
1772702127010782000,2.826781982421875,0.004911737439036369,-0.025860928900167345,0.005947594709240366
1772702127020831000,2.8368310546875,-0.0019715923339128495,-0.042773594854213295,0.0035102388939470984
1772702127030881000,2.846881103515625,-0.007062193471193313,-0.04788741247029975,-0.009011491774907334
1772702127040931000,2.85693115234375,0.002964695024490356,-0.011255115116387606,0.004224645657441579
1772702127050980000,2.86697998046875,-0.00017827917635440825,0.011815105353016405,0.0015686352729215286
1772702127061030000,2.87702978515625,0.0019137246668338775,0.02148285994641483,0.021480179365561344
1772702127071079000,2.887078857421875,0.002658405554294586,0.034074612227734176,0.012926228949672077
1772702127081129000,2.89712890625,-0.015596797582507132,0.00789630620777607,0.010055979876138736
1772702127091178000,2.907177978515625,-0.003026654344797134,-0.00021791706699877977,0.03105334416081896
1772702127101228000,2.91722802734375,-0.004525952991843224,-0.012504987313318996,0.029561441085650585
1772702127111276800,2.92727685546875,0.011338555616140365,-0.010091350300330667,-0.0008455086301430128
1772702127121326800,2.937326904296875,0.00954407341480255,0.005724021936301142,-0.020750038460106587
1772702127131376000,2.947376220703125,-0.006916062998771667,0.011251827180758118,-0.016508928008342628
1772702127141426200,2.95742626953125,0.013735679885745047,0.010254486706480383,-0.027102878085547125
1772702127151476000,2.96747607421875,-0.004072364005446433,0.00792162331212312,0.013296891176258213
1772702127161525000,2.97752490234375,0.013737433451414108,-0.003838427385408431,0.003288093176402617
1772702127171575000,2.987574951171875,0.006703881552815437,-0.012047544135712086,0.01591267229837831
1772702127181623800,2.997623779296875,0.00431084893643856,-0.024821009659487754,0.011240591117402072
1772702127191674000,3.007674072265625,-0.002124152547121048,-0.026295867985021322,-0.0043591701737488615
1772702127201723000,3.017722900390625,-0.00017886369824409484,-0.014292071659490466,0.010735920397739391
1772702127211773000,3.02777294921875,-0.015139701464772224,-0.012614183308836072,0.02525482764962362
1772702127221822000,3.037822021484375,-0.005412088176608086,0.007380703102145344,0.0008251485454151406
1772702127231872000,3.0478720703125,0.008054711639881133,-0.007283909930475055,-0.015511927744071
1772702127241921000,3.057921142578125,0.009998831444978713,0.01150074217421934,-0.008087463132012635
1772702127251971000,3.06797119140625,-0.013196750703454017,0.0191907669538632,-0.022895067115186248
1772702127262019800,3.078019775390625,-0.00885609115064144,0.021784692437201738,-0.005034863778494764
1772702127272070000,3.08806982421875,0.002215337961912155,0.013043605968356131,0.022063315299048553
1772702127282120000,3.098119873046875,0.008050035464763641,-0.00023092267904430627,0.028475358315417542
1772702127292169200,3.108169189453125,0.00042027123868465424,-0.024410346499364823,0.005743724433903116
1772702127302219000,3.118218994140625,0.015536007305979729,-0.021941417368873953,0.003102149000111967
1772702127312268000,3.12826806640625,-0.00017594108879566192,-0.017312332796119153,-0.010771172090922482
1772702127322318000,3.138318115234375,-0.00930266587436199,-0.008987352847494185,-0.0025471363327000287
1772702127332366800,3.148366943359375,0.004913491004705429,-0.013332761640660464,0.015295156887965277
1772702127342417000,3.1584169921875,-0.0010690905362367629,-0.005528682027291506,0.022455819464684463
1772702127352466000,3.1684658203125,0.00012976385951042174,-0.004455353707354516,0.0027671654416830276
1772702127362516000,3.178515869140625,0.003122515934705734,0.008878869238030164,0.011007723076443652
1772702127372565000,3.18856494140625,0.000723053577542305,-0.016932631029840557,0.008655100102268625
1772702127382615000,3.198614990234375,0.008349895194172858,-0.017321265021245924,0.001697319136909209
1772702127392664000,3.2086640625,0.020468787533044815,-0.0145376987173222,0.0053884858220233575
1772702127402714000,3.218714111328125,0.002511106038093567,-0.01134675718890503,-0.003871795365470461
1772702127412764200,3.22876416015625,0.00924655177295208,-0.014390344402194022,0.028833766131917946
1772702127422813000,3.23881298828125,0.009395604854822158,0.0028369769915938376,0.02320057341738138
1772702127432863000,3.248863037109375,-0.011104162338376045,-0.00419277551472187,0.0017308446638868188
1772702127442911700,3.258911865234375,0.012388941451907156,-0.003728171943966299,-0.016976691650564316
1772702127452962000,3.268962158203125,0.007897475251555442,0.005968607814516871,-0.031126733624015468
1772702127463011000,3.279010986328125,0.003252279794216156,0.0032263781679794192,-0.011441773962019942
1772702127473061000,3.28906103515625,0.01552548591196537,-0.015158113904297351,0.005344107824179809
1772702127483110000,3.29910986328125,0.006545476120710373,-0.024499413022305815,0.03324578758762218
1772702127493160000,3.309159912109375,0.006697451812028884,-0.046456466351728884,0.055477342442912046
1772702127503209000,3.319208984375,0.00639700756072998,-0.05954913562620058,0.046859443962317886
1772702127513259000,3.329259033203125,0.00639876112639904,-0.028822482119500635,0.007002980947110336
1772702127523308000,3.33930810546875,-0.0075146134138107295,-0.011582958831265568,-0.04068026213704142
1772702127533358000,3.349358154296875,-0.004970189628005027,0.006937872971780598,-0.02709681823751889
1772702127543408000,3.359408203125,0.006250877088308334,0.012249532981216907,-0.013589629328425508
1772702127553457000,3.369456787109375,0.015227964270114898,0.013780870734341442,0.014672759806457906
1772702127563507200,3.379507080078125,0.010891980892419814,0.00003914470029994845,0.03400612955180695
1772702127573556200,3.38955615234375,0.005057283389568328,0.00013482362711802123,0.019669042856944725
1772702127583606000,3.39960595703125,-0.0006295300751924514,-0.019758520371839405,0.0010250892810174264
1772702127593655000,3.409655029296875,0.010292845955491065,0.0003457081651315093,0.012189251878054346
1772702127603705000,3.419705078125,-0.006016483810544013,-0.004654219014011324,0.0028103447129949927
1772702127613754000,3.429754150390625,0.008497779232263565,0.005714980113320053,0.01948067611141596
1772702127623804200,3.43980419921875,0.015984920117259025,0.014317863687872886,0.013011897939129265
1772702127633853200,3.449853271484375,0.0014718261182308195,-0.016450327405612915,0.003691648459015414
1772702127643903000,3.459903076171875,0.006558920124173164,-0.04861203695042059,-0.004593663916212972
1772702127653953000,3.469953125,-0.0007779986351728439,-0.035823136395495385,0.006055212952313013
1772702127664002300,3.480002197265625,-0.01035538979768753,-0.023992943071201443,0.004545591557363514
1772702127674052000,3.490052001953125,-0.008705284503102302,-0.02205872360561043,-0.0034352191626676356
1772702127684101000,3.50010107421875,0.0076005381315946575,-0.013493486894015222,-0.0025659643307561052
1772702127694151200,3.510151123046875,-0.0006312836408615112,0.017718612042069433,0.017064776359393727
1772702127704200000,3.520199951171875,0.012835516175627708,0.04256356883272528,0.009540965858974959
1772702127714250000,3.53025,-0.0037760114073753354,0.03263433202523738,0.007393733830365817
1772702127724299300,3.54029931640625,-0.00931143370270729,0.018232753842975943,0.014893439652700907
1772702127734349000,3.55034912109375,0.002658405554294586,-0.014650621039886026,-0.0010090468950918875
1772702127744398000,3.560398193359375,0.0089449384778738,-0.009808441705722362,0.0008563040187931619
1772702127754448100,3.5704482421875,0.00909399155974388,-0.01591035704370588,-0.004395499579166062
1772702127764497200,3.5804970703125,0.0005634791016578674,-0.034289478821121155,-0.004772089223039802
1772702127774547200,3.590547119140625,0.0001128127247095108,-0.019555855672899632,-0.004386877881293185
1772702127784597200,3.60059716796875,0.008791793742775916,-0.02480504490537569,0.025364121826551855
1772702127794646000,3.61064599609375,0.002509352472424507,-0.004660520890634507,0.00998161773198517
1772702127804696000,3.620696044921875,0.010739420679211615,-0.005427431876212358,0.0038188344856607726
1772702127814745000,3.6307451171875,0.0008662614405155182,-0.006005030834767967,-0.008070260835462249
1772702127824795000,3.640794921875,0.002361468434333801,0.000021535978373140095,0.005801742798031773
1772702127834844200,3.65084423828125,0.00984042601287365,0.004481894654408097,0.01398594658607617
1772702127844894200,3.660894287109375,0.0016115268498659134,0.01370632592709735,0.018770561930548865
1772702127854943000,3.67094287109375,0.011040449452400207,0.0067630278615280984,-0.011596357168955728
1772702127864993000,3.680992919921875,0.024808278042078018,0.0056505183086730535,-0.010972759077628142
1772702127875042300,3.691042236328125,-0.0006336217284202575,-0.007054740817099809,0.0022211580646340733
1772702127885092000,3.701092041015625,0.009392097723484039,-0.017817377975117413,0.018158202185865956
1772702127895141000,3.71114111328125,-0.005720131212472915,-0.02025278842849657,0.01114077258829493
1772702127905191200,3.721191162109375,-0.0055693245649337765,-0.012236253374535589,0.009743870303221047
1772702127915241000,3.731240966796875,-0.0031751229047775266,0.01302097401143983,-0.0016822562818066217
1772702127925290000,3.7412900390625,-0.0018260463833808898,0.015325780355092137,-0.006163210221298504
1772702127935340300,3.75134033203125,0.009697802671790122,0.010019545439444482,-0.004305786885542329
1772702127945389000,3.76138916015625,-0.0012274959683418274,-0.006222820037603378,0.005384558565577026
1772702127955439000,3.771439208984375,0.009245967251062392,0.0017580957137048243,0.027169771592586767
1772702127965488000,3.781488037109375,0.010285831692814827,0.003728665134310722,0.02216679393983213
1772702127975538000,3.791537841796875,0.00504500842988491,0.00789563035434112,-0.00024524803191889076
1772702127985587200,3.801587158203125,0.008780103304982185,0.002597450880985707,-0.008074592233996373
1772702127995637200,3.81163720703125,0.002495323947072029,0.0005319149196147918,0.014273928648023865
1772702128005686000,3.82168603515625,-0.006035188511013984,-0.01693805612362921,0.006395162663515657
1772702128015736000,3.831736083984375,-0.005884381863474846,-0.014154234091378748,0.014587036018073558
1772702128025785000,3.84178515625,0.013119593814015387,-0.025509759108629078,0.007330217307212296
1772702128035835100,3.851835205078125,-0.0021428572475910186,-0.023440862146392464,-0.0029196799891185944
1772702128045885200,3.86188525390625,0.00010462941825389861,-0.0005524097183719277,-0.0062271993851987645
1772702128055934200,3.871934326171875,0.0011555997759103774,-0.004457454332895577,0.0008778057478368282
1772702128065984000,3.88198388671875,0.0033995793104171753,0.004845759530737996,0.0022049284490407444
1772702128076033000,3.892032958984375,0.01163198560476303,-0.0010957045485265552,0.010626073664962314
1772702128086083000,3.9020830078125,0.01702127742767334,-0.01961003354554996,0.024304052563698494
1772702128096132000,3.912132080078125,0.009984218397736548,-0.025424035320244728,0.00829765355028212
1772702128106182100,3.92218212890625,-0.019644027146697045,0.0015283055458217858,-0.02296792000555433
1772702128116231200,3.932231201171875,-0.007525719329714775,0.010304974784702062,0.0031516004652949047
1772702128126281000,3.942281005859375,0.013721066838502884,0.029346779988240448,0.00021750607504509388
1772702128136330200,3.952330322265625,-0.003935585883259773,0.012704309277702122,0.01715901909766253
1772702128146380300,3.96238037109375,-0.006931845089793205,-0.006162705614510923,0.017253910289902703
1772702128156429000,3.972428955078125,-0.005436638095974922,-0.023299261718615887,0.01025057086647721
1772702128166479000,3.98247900390625,-0.0005009352594614029,-0.032775457528978584,0.012885718842770438
1772702128176528100,3.992528076171875,0.006381225469708442,-0.036457269580569114,0.01405797292595962
1772702128186578000,4.002577880859375,-0.0009510171145200729,-0.035700021472480144,0.01547194964342052
1772702128196628000,4.0126279296875,0.008178045758605004,-0.043825441994704305,0.003683209424233064
1772702128206677200,4.02267724609375,0.0015939911931753157,-0.04337170687783509,0.010800768078165128
1772702128216727000,4.03272705078125,0.0054833998471498484,-0.0008465155604295432,0.010151062864623963
1772702128226776000,4.042776123046875,0.0032400048345327375,0.009136972184944898,0.028422815277427432
1772702128236826000,4.052826171875,0.005785013142228126,0.013593732398096471,-0.0004328156264265999
1772702128246875100,4.062875244140625,0.00339022696018219,0.010928038586489856,0.011910962376347742
1772702128256925200,4.07292529296875,0.002642623463273048,0.012105740596354006,0.0006996818351093679
1772702128266974200,4.08297412109375,0.003236497703194618,0.013498254400677978,0.0007865678174071945
1772702128277024000,4.09302392578125,-0.0036491701573133466,0.01686411410458386,-0.007714586115453857
1772702128287073000,4.103072998046875,0.004725274956226349,0.007795786709059029,-0.012342773355776443
1772702128297123000,4.113123046875,-0.002757774275541305,-0.0016110336595214902,-0.004537399117753375
1772702128307172000,4.123172119140625,0.002927285623550415,-0.012289061274006962,0.001732723810430616
1772702128317222100,4.13322216796875,0.01279927581846714,-0.01943601041920483,0.005561262272775639
1772702128327272200,4.143272216796875,0.0036719665110111236,-0.008507277712970971,0.00196487946533598
1772702128337321000,4.153321044921875,0.00995674586892128,-0.0056917636345140635,0.007249834130937233
1772702128347371000,4.16337109375,0.01848375119566917,-0.003939933264814317,-0.006474390495743137
1772702128357420300,4.173420166015625,-0.004112696015834808,0.0015242321589030324,0.008752706124691758
1772702128367470000,4.183469970703125,0.011151508611440658,-0.0004547580301761627,0.00170088563375175
1772702128377519000,4.19351904296875,0.0020218612164258957,-0.002651811416726559,0.006958164557849522
1772702128387569200,4.203569091796875,0.004417816442251205,0.005386058686207979,0.015745423689403105
1772702128397618200,4.2136181640625,0.0014215572357177734,0.019007756803464143,-0.01526136421621777
1772702128407668200,4.223668212890625,-0.005460603493452072,0.015521978780627249,-0.012829698356194422
1772702128417717200,4.23371728515625,0.0011246201157569884,0.004877415044326335,0.011710807011614087
1772702128427767000,4.24376708984375,0.016985621592402456,-0.0031865393479354677,0.025188893123809248
1772702128437816000,4.253816162109375,-0.0033668460845947264,-0.011364018850959837,0.04522064094645902
1772702128447866000,4.2638662109375,-0.002768295669555664,-0.0032730120549909767,0.014826470797136426
1772702128457916000,4.273916015625,0.0011205284625291825,0.008766549703665078,-0.01860087020273786
1772702128467965200,4.283965087890625,-0.00277414088845253,0.002194167309720069,-0.014442152221244758
1772702128478015200,4.29401513671875,-0.003675473642349243,0.001604969244915992,-0.001398626167990733
1772702128488064000,4.30406396484375,0.012033552142977714,0.008310111173056066,0.013304266198538243
1772702128498114000,4.314114013671875,0.01637245813012123,-0.002295545324962586,0.038064414799551013
1772702128508163300,4.324163330078125,0.011281856992840766,-0.01819013854395598,0.04149760183533653
1772702128518213000,4.334213134765625,0.011581132200360297,-0.04078002815051004,0.006558819659473374
1772702128528262100,4.34426220703125,-0.00637304216325283,-0.01635172586934641,-0.00490463641139213
1772702128538311400,4.3543115234375,0.013979425513744353,-0.0019038973925635217,0.009929720864677801
1772702128548360700,4.364360595703125,-0.0015834697991609571,0.0002278174065053463,0.00794543344597332
1772702128558410500,4.374410400390625,0.006948796224594116,0.001737564382329583,0.009545881779398769
1772702128568459500,4.38445947265625,0.012040566405653952,0.005001845141593367,0.002607912909495644
1772702128578509600,4.394509521484375,-0.0017237550526857375,0.017170988096669317,-0.0009193684507976286
1772702128588559400,4.404559326171875,0.014588497322797775,0.014104312268737703,-0.019931413270311893
1772702128598608400,4.4146083984375,-0.0006762918263673782,-0.01978327122060582,0.01048638663305901
1772702128608658400,4.424658447265625,0.0017161562681198119,-0.015079093851335346,0.01615428076821845
1772702128618707500,4.43470751953125,0.007402385210990905,-0.006549713904410601,0.010649089214368723
1772702128628757500,4.444757568359375,-0.007861234894394874,-0.011912556111812592,0.006635702554276213
1772702128638806500,4.454806640625,0.008000935626029968,-0.006383654888812452,0.014697987862548324
1772702128648856300,4.464856201171875,0.0012695815443992614,-0.008157368296757339,0.009659326975059229
1772702128658905600,4.474905517578125,-0.009353519278764724,0.016187292555253953,0.005386401179502718
1772702128668955600,4.48495556640625,-0.0027677111476659775,0.024929566334187983,0.0169836442644475
1772702128679004400,4.49500439453125,-0.00022679449319839477,0.015019746613223105,0.02819033082895912
1772702128689054500,4.505054443359375,-0.0024748656809329985,-0.017028492619749157,0.010695789316750597
1772702128699103500,4.515103515625,-0.000675122782588005,-0.011522132022120058,0.020316266135743354
1772702128709153500,4.525153564453125,-0.0005254851788282394,-0.014354396305978297,-0.0005450369793805293
1772702128719202600,4.53520263671875,0.0018646248281002043,-0.008502528472617269,0.006564306402055081
1772702128729252600,4.545252685546875,0.0063525838971138,0.00307820186894387,-0.004234093905799091
1772702128739302400,4.555302490234375,0.00665536623597145,0.03511224817978218,-0.019011649810581
1772702128749351400,4.565351318359375,0.0003705868780612945,0.02371829084828496,-0.01229500924089225
1772702128759401500,4.5754013671875,0.0015659341424703597,0.0008849296083673834,-0.011655482928070705
1772702128769450500,4.585450439453125,0.003359247300028801,-0.017439064448326824,0.021017210629465988
1772702128779500500,4.59550048828125,0.009499065229296683,-0.01435481643108651,0.03721847919443389
1772702128789549600,4.605549560546875,0.01473462779521942,-0.02504884533230215,0.04521705161673017
1772702128799599400,4.615599365234375,0.008899930292367934,-0.010719528668653219,0.0266645163510344
1772702128809648600,4.625648681640625,-0.004566869524121284,-0.006715827718935906,-0.0033938825052813623
1772702128819698700,4.63569873046875,-0.0045662850022315975,0.012132044081389903,-0.016901274627062958
1772702128829747500,4.64574755859375,0.008603577694296836,0.019272453887946902,-0.007539722738892305
1772702128839797500,4.655797607421875,-0.0003758475750684738,0.017221622305363414,-0.007455535603757016
1772702128849846300,4.66584619140625,-0.00007715688943862914,0.00903046133685857,-0.0026654951654956674
1772702128859896300,4.675896240234375,0.011742460241913794,-0.00976692238524556,-0.011493830659531521
1772702128869945600,4.685945556640625,0.005454758274555206,-0.004726809326186776,-0.0031983690663357264
1772702128879995600,4.69599560546875,-0.002777063497900963,0.005993924918863922,0.018879639195057096
1772702128890045400,4.70604541015625,0.007846621847152709,0.011690273396950215,0.011590874992951285
1772702128900094500,4.716094482421875,-0.001132218900322914,-0.007991400612704456,0.0045804208421497605
1772702128910144500,4.72614453125,0.009942132821679115,0.0066065038592554625,0.01745367521228036
1772702128920193500,4.736193603515625,0.004109773406386375,0.004210165040940046,0.01117563383912202
1772702128930243600,4.74624365234375,-0.0012748422414064406,-0.006320745720434934,0.017098690045438705
1772702128940292600,4.756292724609375,-0.007107786178588866,-0.014049659472052008,0.014369872436323202
1772702128950342400,4.76634228515625,-0.009498480707406998,-0.006259133460000157,0.012606721521588041
1772702128960391400,4.776391357421875,0.005315642064809799,0.004503942089434713,0.0035036972720175977
1772702128970441500,4.78644140625,0.0011257891595363616,0.011827782171498984,-0.008883846807247027
1772702128980490500,4.796490478515625,0.011745967373251915,0.01796633972544223,-0.009276006196299567
1772702128990540500,4.80654052734375,0.004862637600302696,-0.006443951974995434,-0.005026360811630729
1772702129000589300,4.81658935546875,0.002172667863965034,-0.00001768178716301918,0.012564601696201133
1772702129010639400,4.826639404296875,-0.01099368770122528,-0.00007399681797251106,0.00690357340995688
1772702129020688600,4.836688720703125,0.012800444862246513,-0.000006795066967606544,0.01925844591219211
1772702129030738700,4.84673876953125,0.008764905735850334,-0.021167967044655234,0.0039076498468522914
1772702129040788500,4.85678857421875,0.009813538005948067,-0.008657737300638109,-0.000034279012226033955
1772702129050837500,4.86683740234375,0.00891629690527916,-0.018882815249543636,0.0025578723558457566
1772702129060887600,4.876887451171875,0.006224573603272438,-0.01670737090660259,-0.008451640818885062
1772702129070936300,4.886936279296875,-0.011133388432860374,-0.0038344818626530465,0.0066661205254262305
1772702129080986600,4.896986572265625,0.002633271113038063,-0.008901629059109836,0.004344744356174488
1772702129091035400,4.907035400390625,0.007875263419747352,-0.0005789141328074038,0.014334728057705796
1772702129101085400,4.91708544921875,-0.0018517653465270996,0.02877148258462548,-0.005647613965533673
1772702129111134500,4.927134521484375,0.00832066909968853,0.01513570114308968,-0.00611728643705137
1772702129121184500,4.9371845703125,0.01116319904923439,0.015462321015261113,-0.005036158403148874
1772702129131233500,4.947233642578125,0.0029307927548885343,-0.01764264246271923,0.009079316863708662
1772702129141283600,4.95728369140625,0.026572949627041816,-0.03182657757261768,0.005203660457162186
1772702129151332400,4.967332275390625,0.018638649496436118,-0.018069142512790858,0.010778535696759354
1772702129161382400,4.97738232421875,0.006069675302505493,0.017229257622547445,0.013823524849268142
1772702129171431400,4.987431396484375,0.006368950510025024,0.018451109301391988,0.005227488857321441
1772702129181481500,4.9974814453125,0.0029255320578813553,0.03749830306610092,-0.0156848069428117
1772702129191531500,5.007531494140625,0.011601590466499327,0.02669962648032233,0.0029074347121873867
1772702129201580500,5.01758056640625,0.007861234894394874,-0.0011585954505950213,0.004933035955391824
1772702129211630600,5.027630615234375,0.015641805768013,-0.03823196936920285,0.009427529796469025
1772702129221679400,5.037679443359375,-0.0002209492743015289,-0.039237712345644826,0.00559930414466653
1772702129231729400,5.0477294921875,0.00471826069355011,-0.03239296101741493,0.011675550751853734
1772702129241778400,5.0577783203125,0.018483166673779486,0.006289181538391858,-0.005594924797071144
1772702129251828500,5.067828369140625,0.004267594316601753,0.017815423480048775,-0.01583681003359379
1772702129261877500,5.07787744140625,0.0018710545688867567,0.012230718682892619,0.019348510232265106
1772702129271927600,5.087927490234375,0.0136941788315773,-0.005522033090796321,0.009024269058089703
1772702129281976600,5.0979765625,0.007706336593627929,-0.006612257746607065,0.009133729915088042
1772702129292026600,5.108026611328125,0.00725274760723114,-0.009414364354219287,0.009974411673063878
1772702129302075400,5.118075439453125,0.015781506499648094,-0.02525850602760911,0.0024844372268766164
1772702129312125400,5.12812548828125,0.013988193342089653,-0.0231370020953007,0.0010269775607157498
1772702129322174500,5.138174560546875,0.00935585736632347,-0.010230320379603653,-0.00658276450735284
1772702129332224300,5.148224365234375,0.00950491044819355,0.022710684708319603,0.0009956394242472014
1772702129342274300,5.1582744140625,0.01668576186299324,0.018743205849453805,-0.004440943872800562
1772702129352323600,5.168323486328125,0.009355272844433785,0.010853256317228078,0.015371498643362428
1772702129362373600,5.17837353515625,0.007561959686875343,0.006421703610569238,-0.0007155187250580638
1772702129372422400,5.18842236328125,0.007116554006934166,-0.0021360987132415174,-0.02973141137467464
1772702129382472400,5.198472412109375,0.0038233576804399486,-0.011370430325437336,0.0031095285889692604
1772702129392521500,5.208521484375,0.002025368347764015,-0.009051230130251496,0.025774497292307203
1772702129402571500,5.218571533203125,0.0030716625303030013,-0.008999299013614653,0.017223649865668267
1772702129412620500,5.22862060546875,0.006665887629985809,0.011243662140611559,0.012364142654079478
1772702129422670300,5.23867041015625,0.006216390296816826,0.0012231851194053887,0.01262493531500222
1772702129432719400,5.24871923828125,0.0036713819891214367,0.013247494510002433,0.001631396027537994
1772702129442769400,5.258769287109375,0.0060679217368364334,0.005646335323899984,-0.007996693275752477
1772702129452818400,5.268818359375,0.005472293931245803,0.000013845862261950968,-0.006108098483597859
1772702129462868500,5.278868408203125,0.02447743865251541,0.002043744254671037,-0.0008654805558035149
1772702129472917500,5.28891748046875,0.000391045144200325,-0.012231741596199571,0.014477127636503427
1772702129482967300,5.29896728515625,-0.0014034370571374892,-0.018288319955114273,0.016134854548540897
1772702129493017300,5.309017333984375,-0.004548749345541,-0.020113215561024845,0.014342393057642039
1772702129503066600,5.319066650390625,-0.00021218144595623015,0.0008237922719679773,0.008542821667098905
1772702129513115400,5.329115478515625,0.008764321213960646,0.001200005173217505,0.010831359579251148
1772702129523165400,5.33916552734375,0.006968085446953773,0.0063095484729856245,0.012034730319911613
1772702129533215500,5.349215576171875,-0.006947042658925056,-0.00044023631447926163,0.005376388958853204
1772702129543264800,5.3592646484375,-0.000813069948554039,-0.0062361727095209055,0.020118318711116443
1772702129553314600,5.369314453125,0.012504676786065101,0.0056242696225643155,0.004110757503786589
1772702129563363800,5.37936376953125,0.025224457627534867,0.005888747511338442,-0.007740887317201122
1772702129573414000,5.389413818359375,-0.0006616787791252136,-0.004524016763083637,0.01884256772083463
1772702129583462700,5.399462646484375,-0.0033569092124700545,-0.012794818839058279,0.010564139460830483
1772702129593512700,5.4095126953125,-0.006502221500873566,0.0008099281433969736,0.00009850792143261059
1772702129603562000,5.41956201171875,-0.012190788531303405,-0.01360330394404009,-0.0036662697058753107
1772702129613611800,5.42961181640625,0.005314473021030426,-0.007521280616614967,-0.00499144247858785
1772702129623660800,5.439660888671875,-0.0024678514182567596,0.005387081599514931,-0.0037303981503820976
1772702129633710800,5.4497109375,0.00022679449319839477,0.0033627544313669204,0.016152079677977597
1772702129643759600,5.459759521484375,0.016539631390571595,-0.0010752828150056301,0.007481151818914804
1772702129653809700,5.4698095703125,0.004122048366069793,0.007499653306696563,-0.0013294425224536098
1772702129663858700,5.479858642578125,-0.00770107589662075,-0.005569945619441568,0.011854355084593407
1772702129673908700,5.48990869140625,0.006067337214946746,-0.013595650360547005,0.027798972874216267
1772702129683958800,5.499958740234375,-0.00021978023052215574,0.003871909529902041,0.014085265074972994
1772702129694007800,5.5100078125,0.009356441888213158,-0.004781023731455207,-0.004566606945928651
1772702129704057600,5.5200576171875,-0.004405541482567787,0.0023487185506150124,-0.012877343740069772
1772702129714107000,5.53010693359375,-0.004407295048236846,0.003457994966767728,0.0028229827155708334
1772702129724157000,5.540156982421875,0.00801087249815464,-0.01771514144334942,0.004215142610156908
1772702129734205700,5.550205810546875,-0.000820084211230278,-0.0010335442988201975,0.024050568709685465
1772702129744255700,5.560255859375,-0.0030658173114061354,-0.015508827038109302,0.004028563679626677
1772702129754304800,5.5703046875,-0.005607318487763404,-0.015476915796194224,-0.006478151072119362
1772702129764354800,5.580354736328125,0.00008241758644580841,-0.015184216459933668,0.0048440265146666205
1772702129774403800,5.59040380859375,-0.001267243456840515,-0.02014141874220222,0.013621583952824584
1772702129784454000,5.600453857421875,-0.0038116672426462173,-0.005305686926376074,0.008126139758143108
1772702129794502700,5.610502685546875,-0.004108019840717315,-0.0006252557588741183,0.022500941814621908
1772702129804552700,5.620552734375,0.0020259528696537016,0.00493597683114931,0.012588105869374703
1772702129814601700,5.630601806640625,-0.001267243456840515,-0.000712678314000368,-0.007347298589465208
1772702129824651800,5.64065185546875,-0.0006704466074705124,-0.005912037055380642,0.004656691815599333
1772702129834700800,5.65070068359375,-0.00724924047589302,-0.012403097841423004,-0.010610905778582673
1772702129844750800,5.660750732421875,-0.008893500551581382,-0.016982498053554444,0.005103102142538409
1772702129854800600,5.670800537109375,-0.0015630115330219267,-0.011499591396749019,0.01590164629757637
1772702129864850000,5.680849853515625,0.005174772289395332,-0.009279449395556002,0.0058941292226430955
1772702129874900000,5.69089990234375,0.0020364742636680604,0.007745609158091246,0.008823661602206993
1772702129884948700,5.70094873046875,-0.0029009821385145187,0.0011036869255825876,-0.0020702578022610395
1772702129894998800,5.710998779296875,0.004731704697012901,-0.011943316576257348,0.0016628232122631742
1772702129905047600,5.721047607421875,0.0012906243324279784,0.00044728710977360605,0.016161333846801424
1772702129915097600,5.73109765625,-0.0027525135785341263,-0.005731766851339489,0.003784486974775791
1772702129925147000,5.74114697265625,0.013559738796949385,-0.009986373822204768,0.004930923913407605
1772702129935197000,5.751197021484375,-0.0018511808246374128,0.003232899240311235,0.022940216864587273
1772702129945245700,5.76124560546875,0.0009913491249084472,0.009389028983563185,-0.004139339710876811
1772702129955295700,5.771295654296875,0.0002466682374477386,0.0007099931665696203,0.003490705359703861
1772702129965344800,5.7813447265625,0.004732289218902588,-0.01678715814454481,0.004791622757283039
1772702129975394800,5.791394775390625,-0.0005073650002479553,-0.01666745902132243,-0.005625372450973372
1772702129985443800,5.80144384765625,-0.016519173124432563,-0.013207199032232164,0.006486539874551818
1772702129995493600,5.81149365234375,0.0012894552886486053,-0.011323303248081356,0.0033728967994684353
1772702130005543700,5.821543701171875,-0.004995908591151237,-0.0006756525055505335,0.00651056692082202
1772702130015592700,5.8315927734375,0.010563479590415955,-0.00880295445760712,0.011614975104457697
1772702130025642800,5.841642822265625,-0.002758358797430992,0.00451539506521076,0.010747754682716913
1772702130035691800,5.85169189453125,-0.011585223853588103,0.001891348438244313,0.015152823524537961
1772702130045741800,5.861741943359375,0.0005342530071735382,0.0076303122153505674,0.012461534047371242
1772702130055790600,5.87179052734375,0.008317746490240096,0.00768176840795204,-0.000676935713761486
1772702130065840600,5.881840576171875,0.016997896552085875,0.002234170526545495,-0.00499369836775586
1772702130075890000,5.891889892578125,-0.00006079027652740478,0.0010205021541565655,-0.00663469334070105
1772702130085940000,5.90193994140625,0.02013970170915127,0.006726239515095949,0.00469977290550014
1772702130095988700,5.91198876953125,0.018192659294605253,0.007568900884315371,0.009286650887900032
1772702130106038800,5.922038818359375,0.013104980766773223,0.008166994641628116,0.01974506038535619
1772702130116087600,5.932087646484375,0.0033820436537265776,-0.006222655640821904,0.00811889716660371
1772702130126137900,5.942137939453125,-0.0072451488226652145,-0.003550824349373579,-0.00236063275069464
1772702130136187000,5.952186767578125,0.012955927684903144,-0.0020572065244428813,0.003589765836985316
1772702130146236700,5.962236572265625,0.00023380875587463378,-0.00837778784809634,0.004598267026094254
1772702130156286700,5.97228662109375,0.0014303250640630722,-0.0019002441307529806,0.010353433019330258
1772702130166335700,5.982335693359375,-0.003206687086820602,0.002529719407018274,0.01938825315418653
1772702130176385800,5.9923857421875,0.008465630528330803,0.006527794333547354,0.015804554015095344
1772702130186434800,6.002434814453125,-0.003351648515462875,0.0027901969741098583,-0.0010053525340859779
1772702130196484900,6.01248486328125,0.0008405424773693085,-0.002851242978964001,0.018809770562930497
1772702130206533600,6.02253369140625,0.003833294552564621,-0.005544117058441042,0.002600483088288456
1772702130216583700,6.032583740234375,0.005180617508292198,0.0024858437326736745,0.005305280500999651
1772702130226633000,6.042633056640625,0.004131985238194465,0.01197263400228694,0.004152854496287182
1772702130236682800,6.052682861328125,0.001142155772447586,0.0028761582245118915,0.016610239808214827
1772702130246731800,6.062731689453125,0.02672960149347782,0.006174396052304655,-0.011625944023043847
1772702130256781800,6.07278173828125,0.012066285368800162,0.0034184484076686204,-0.002838344681484159
1772702130266830600,6.08283056640625,0.0006932429611682891,0.009890676629077643,-0.008318408643943257
1772702130276880600,6.092880615234375,0.017898060262203214,0.015453425322752444,0.00818857856906252
1772702130286930000,6.102929931640625,0.014305588728189468,-0.01085360337710008,0.003952635199471842
1772702130296979700,6.112979736328125,-0.0005091185659170151,-0.00005563917737454176,-0.005045298407541122
1772702130307029800,6.12302978515625,0.01221066227555275,0.006490622394625097,-0.007224416561890393
1772702130317078800,6.133078857421875,0.013857844960689545,-0.02273099684398621,-0.0030502635492477563
1772702130327128800,6.14312890625,0.012363807010650634,-0.012970266737509518,0.003077573964570183
1772702130337177900,6.153177734375,0.012663082218170165,-0.006232208920456468,0.014599970848171506
1772702130347228000,6.163227783203125,0.006525017854571342,-0.006545202126074582,0.03258885804885067
1772702130357276700,6.173276611328125,0.0030851065337657926,-0.00018912936393171548,-0.006082769962807651
1772702130367326700,6.18332666015625,0.00263210206925869,-0.005668492356780916,-0.014067398341430816
1772702130377375700,6.193375732421875,-0.006647182929515838,-0.0002015321877785027,-0.0015708021138329058
1772702130387425500,6.203425537109375,0.006219897428154945,0.011816950250230728,0.0015358586646150797
1772702130397474800,6.213474853515625,-0.005750526350736617,0.02390462546693161,-0.01790675045873504
1772702130407524900,6.22352490234375,0.011458382603526114,0.018661701578460633,-0.005727462852268945
1772702130417573600,6.23357373046875,-0.0021586393386125564,-0.00003625862346962094,0.009119036952743772
1772702130427623700,6.243623779296875,-0.003653261810541153,-0.010288169780373573,0.012627901306934653
1772702130437673000,6.2536728515625,0.017295418193936346,-0.008888842642772942,0.015711720065912232
1772702130447722800,6.26372265625,-0.005299275451898574,-0.010243307725340127,0.021265554800769314
1772702130457772800,6.273772705078125,0.0033779520004987716,-0.024809757613111286,0.012354329079540911
1772702130467821800,6.28382177734375,0.012806290081143378,-0.022915888424217698,-0.006270568169467151
1772702130477871600,6.29387158203125,0.004728782087564468,-0.002681676832027733,-0.002237616009090561
1772702130487920600,6.303920654296875,0.00215805481672287,-0.010384835087880491,0.009593616211530752
1772702130497971000,6.313970947265625,-0.06655775401294231,-0.009236742764990776,-0.014157704690098761
1772702130508019700,6.324019775390625,0.06378887382149696,-0.01845699105290696,0.02419058453515172
1772702130518069800,6.33406982421875,0.06725684219300747,-0.018528174859285353,0.026836062109214253
1772702130528118800,6.344118896484375,-0.027454993158578873,-0.002211063645593822,0.0085556080834358
1772702130538168800,6.3541689453125,-0.01412380242049694,-0.013878759884554892,0.005223954326519742
1772702130548218000,6.364218017578125,0.0030839374899864196,0.00007403335059061646,0.0022748861294239757
1772702130558268000,6.374267822265625,-0.00933539910018444,0.005758764456119388,-0.018038950587215368
1772702130568317000,6.38431689453125,0.018341127854585648,0.0007536131125874817,0.01252907144180499
1772702130578367000,6.394366943359375,-0.005900163954496383,-0.00374289458906278,0.009531814438139554
1772702130588415700,6.404415771484375,0.019394436299800873,-0.008592690974101425,0.024339148993254636
1772702130598465800,6.4144658203125,0.0072796356141567225,-0.03136917092762887,0.0177502766888123
1772702130608514800,6.424514892578125,-0.0005050269126892089,-0.016743191138654946,0.01641026938986033
