time,seconds_elapsed,z,y,x
1772702124239618300,0.055618408203125,-0.0029523803386837244,0.0007419566973112524,-0.003082342678681016
1772702124249668000,0.065668212890625,-0.003177417442202568,0.01019937451928854,0.0007933556917123497
1772702124259717000,0.075717041015625,-0.0013739247806370258,0.004845887888222933,-0.0024810009635984898
1772702124269767200,0.08576708984375,-0.0009347695158794522,0.006878412328660488,0.0011891013709828258
1772702124279816200,0.095816162109375,-0.0022330605424940586,0.005894640926271677,0.00022370553051587194
1772702124289866200,0.1058662109375,-0.0013859090395271778,0.008027832955121994,0.0002657834847923368
1772702124299916300,0.115916259765625,-0.0009978864109143615,0.006816893350332975,0.0018996327416971326
1772702124309965000,0.125965087890625,-0.002597114769741893,0.006807838566601276,-0.00115394766908139
1772702124320015000,0.13601513671875,0.0007278419216163456,0.008591357618570328,-0.0004929511342197657
1772702124330064400,0.146064453125,-0.0016700683627277613,0.006806773599237204,0.00043595946044661105
1772702124340114200,0.1561142578125,-0.0006969492533244193,0.008770322427153587,0.0019800602458417416
1772702124350163200,0.1661630859375,-0.0030602384358644485,0.008330367505550385,0.0003270361921750009
1772702124360213200,0.176213134765625,-0.0006583334179595113,0.008553806692361832,-0.0013978932984173298
1772702124370262300,0.18626220703125,-0.0012303803814575076,0.006712763570249081,-0.0020128171890974045
1772702124380312300,0.196312255859375,-0.0004316983977332711,0.007662713527679443,0.000859934720210731
1772702124390362400,0.2063623046875,-0.0007574030314572155,0.007643272168934345,0.0004844290087930858
1772702124400411100,0.2164111328125,-0.0021113541442900896,0.007421164773404598,0.0008679241873323917
1772702124410461200,0.226461181640625,-0.0006828344776295125,0.009562612511217594,-0.0026471822056919336
1772702124420510200,0.23651025390625,0.00004207794336252846,0.0066062374971807,-0.00005512743518920615
1772702124430560000,0.24656005859375,-0.0002615224220789969,0.008452873677015305,-0.0014884406700730324
1772702124440609300,0.256609375,-0.0013704627053812146,0.006355101242661476,0.000681236619129777
1772702124450659300,0.266659423828125,0.00027510453946888447,0.006341519299894571,-0.0012157330056652427
1772702124460708000,0.2767080078125,-0.002543052425608039,0.007751662749797106,-0.0008098672842606902
1772702124470758100,0.286758056640625,-0.00024714134633541107,0.009120261296629906,-0.0031792817171663046
1772702124480808200,0.29680810546875,-0.0016583503456786275,0.008198008872568607,-0.002112952060997486
1772702124490857200,0.306857177734375,-0.0018370485631749034,0.0070768180303275585,-0.0007922904333099723
1772702124500907300,0.3169072265625,-0.0019923108629882336,0.009690443985164165,0.0019228023011237383
1772702124510956300,0.326956298828125,-0.0008785768295638263,0.007349525578320026,-0.00042504051816649735
1772702124521006300,0.33700634765625,-0.00011132013605674729,0.008828911930322647,0.00023169501218944788
1772702124531055900,0.347055908203125,-0.00219551008194685,0.00740119069814682,0.00010759170982055366
1772702124541105700,0.357105712890625,0.0003731088654603809,0.00765978405252099,-0.0011030812747776508
1772702124551155000,0.367155029296875,-0.0012034825049340725,0.008322378620505333,-0.0004308994684834033
1772702124561205000,0.377205078125,-0.0024975123815238476,0.007318633142858744,-0.0007795072160661221
1772702124571253800,0.387253662109375,-0.0012903015594929457,0.008556203916668892,-0.0015539544401690364
1772702124581303800,0.3973037109375,-0.003918042406439781,0.006821953225880861,-0.0009544769418425858
1772702124591353900,0.407353759765625,0.00045806370326317847,0.009892844595015049,-0.002222407842054963
1772702124601403000,0.41740283203125,0.001014664419926703,0.004311923868954182,0.000987766426987946
1772702124611453000,0.427452880859375,-0.00011345066013745964,0.00595509447157383,-0.0005091963685117662
1772702124621502000,0.437501953125,-0.0021901836153119802,0.0062461779452860355,0.0004772384709212929
1772702124631551700,0.4475517578125,-0.0002615224220789969,0.008458998054265976,0.00046818371629342437
1772702124641600800,0.457600830078125,-0.0018548916559666395,0.009847836568951607,-0.0019598202779889107
1772702124651650800,0.46765087890625,-0.00026258768048137426,0.0070342072285711765,0.0007478156476281583
1772702124661699800,0.477699951171875,-0.0022082931827753782,0.005277053453028202,0.0005744438385590911
1772702124671750000,0.48775,-0.001995772821828723,0.006786533165723085,-0.004352670628577471
1772702124681800000,0.497800048828125,0.0005400890368036926,0.004349741153419018,0.0033902039285749197
1772702124691848700,0.5078486328125,-0.0041334922425448895,0.0075631109066307545,0.0006689860601909459
1772702124701898800,0.517898681640625,0.00031638352083973587,0.009604424238204956,-0.0007526093395426869
1772702124711948000,0.527947998046875,-0.0010772485984489322,0.004810201469808817,-0.00020293287525419146
1772702124721997800,0.537997802734375,0.00033688987605273724,0.00498197553679347,-0.000003462109361862531
1772702124732046800,0.548046875,-0.0012333098566159606,0.005570267792791128,-0.0020636834669858217
1772702124742097000,0.558096923828125,-0.0010218549286946654,0.0059931776486337185,0.0009161274065263569
1772702124752145700,0.568145751953125,-0.0006556702428497374,0.007589476183056831,-0.0017038905061781406
1772702124762195700,0.57819580078125,-0.0010247844038531184,0.006673615425825119,-0.002171807922422886
1772702124772245800,0.588245849609375,0.00041864890954457223,0.007211041171103716,0.0009962886106222868
1772702124782294800,0.598294677734375,0.0002764361270237714,0.008763664402067661,-0.0025965820532292128
1772702124792344800,0.6083447265625,0.0015752597246319056,0.006982808467000723,0.0008391620358452201
1772702124802393900,0.618393798828125,-0.0036639769095927477,0.006154565140604973,-0.00017443705291952938
1772702124812444000,0.62844384765625,0.000222373942960985,0.006503439508378506,0.0008434231276623905
1772702124822493000,0.638492919921875,-0.0016176040517166257,0.007698399480432272,-0.0006687197601422668
1772702124832543000,0.64854296875,-0.0036666402593255043,0.008776447735726833,-0.0015246596885845065
1772702124842591700,0.658591796875,-0.001520132296718657,0.005555620416998863,0.0008881642133928835
1772702124852641800,0.668641845703125,0.0007773766992613673,0.010714163072407246,0.0009209210984408855
1772702124862691800,0.67869189453125,-0.0018181400373578072,0.005079979542642832,0.00047164582065306604
1772702124872740900,0.688740966796875,-0.001252484624274075,0.009551427327096462,-0.0011238539591431618
1772702124882791000,0.698791015625,-0.0016080166678875685,0.007701861672103405,-0.0004721784498542547
1772702124892840000,0.70883984375,-0.0006468818173743784,0.005972671322524548,-0.00015765913121867925
1772702124902890000,0.718889892578125,0.00036272252327762544,0.006116481963545084,-0.00022184131375979632
1772702124912938800,0.728938720703125,-0.003453587181866169,0.008671252056956291,-0.0017736653098836541
1772702124922988800,0.73898876953125,-0.001291100517846644,0.006041114684194326,0.0002865561400540173
1772702124933037800,0.749037841796875,-0.0003350256592966616,0.009316802956163883,-0.00014061490946915
1772702124943087900,0.759087890625,-0.0022540995851159096,0.0062304651364684105,0.0004921521758660674
1772702124953137000,0.769136962890625,-0.001995772821828723,0.005154281854629517,-0.00250576832331717
1772702124963186700,0.779186767578125,-0.00023755396250635386,0.007184143178164959,-0.0031196267809718847
1772702124973236700,0.78923681640625,0.0000125168571685208,0.0049063414335250854,-0.001416269107721746
1772702124983286000,0.7992861328125,0.0009872338268905878,0.005342833697795868,0.00006604639202123508
1772702124993336000,0.809336181640625,-0.002487658755853772,0.006494384724646807,0.0000013315805063029984
1772702125003384800,0.819384765625,-0.00022024342615623027,0.005055478774011135,-0.003540406236425042
1772702125013435000,0.829434814453125,0.0001984054979402572,0.006191050633788109,0.0015419702976942062
1772702125023483600,0.839483642578125,-0.0011715245200321078,0.006542054936289787,0.00006711165769957006
1772702125033533700,0.84953369140625,-0.0018306568963453174,0.009318133816123009,0.00010040117194876075
1772702125043583000,0.8595830078125,0.0001853560097515583,0.007416104432195425,-0.004286357667297125
1772702125053632800,0.8696328125,0.0014647386269643903,0.008413724601268768,-0.0007006776868365705
1772702125063682800,0.879682861328125,-0.00005965480886516161,0.01104253064841032,-0.00009214537567459047
1772702125073731800,0.88973193359375,-0.003510579001158476,0.007382548879832029,-0.004466653801500797
1772702125083782000,0.899781982421875,-0.0017992316279560328,0.006443784572184086,-0.0024857944808900356
1772702125093831000,0.909830810546875,0.00044661210267804563,0.00487092137336731,0.0023270701058208942
1772702125103881000,0.919880859375,0.0004988100845366716,0.006126069463789463,0.00020213393145240843
1772702125113929700,0.9299296875,-0.001907089608721435,0.0073047843761742115,-0.0019387812353670597
1772702125123979800,0.939979736328125,-0.00008655273268232122,0.00592420157045126,-0.000035686356568476185
1772702125134028800,0.95002880859375,-0.0016698020044714212,0.005976932588964701,-0.0005137237603776157
1772702125144078800,0.960078857421875,-0.00010066748654935509,0.0075750951655209064,0.002416286151856184
1772702125154129000,0.97012890625,-0.003126817522570491,0.007817975245416164,-0.00021012341312598437
1772702125164178000,0.980177978515625,-0.0009606021922081709,0.008035821840167046,-0.0017291904659941792
1772702125174228000,0.99022802734375,-0.0015094797126948833,0.006800381932407618,0.00021172130072955042
1772702125184276700,1.00027685546875,-0.0017361147329211235,0.006825149059295654,-0.0021728731226176023
1772702125194326800,1.010326904296875,-0.0025268071331083775,0.006986802909523249,0.00033209618413820863
1772702125204375800,1.020375732421875,-0.002222940558567643,0.008758870884776115,-0.0026080335956066847
1772702125214425900,1.03042578125,-0.0016729978378862143,0.006397977937012911,-0.002071140334010124
1772702125224475000,1.040474853515625,-0.002650644164532423,0.006351106334477663,-0.0033627734519541264
1772702125234525000,1.05052490234375,-0.00034434671397320926,0.005916478578001261,-0.0016966998809948564
1772702125244574700,1.06057470703125,-0.0017427726415917277,0.006104497704654932,0.0002846919232979417
1772702125254624000,1.0706240234375,0.0003890878288075328,0.006902114488184452,-0.000681236619129777
1772702125264674000,1.080674072265625,-0.0030391993932425976,0.008154066279530525,-0.0037976677995175123
1772702125274722800,1.090722900390625,-0.00043036683928221464,0.006031260825693607,-0.00031425300403498113
1772702125284772900,1.10077294921875,0.0005044027348048985,0.006201703101396561,0.0006380933918990195
1772702125294821600,1.110821533203125,-0.0007829693495295942,0.007646734360605478,-0.0007661914569325745
1772702125304871700,1.12087158203125,-0.00043649208964779973,0.005320463329553604,-0.0012199940392747521
1772702125314921000,1.1309208984375,-0.0036706349346786737,0.009705358184874058,-0.0023299995809793472
1772702125324971000,1.140970947265625,-0.0015446334145963192,0.007673365995287895,-0.00250603468157351
1772702125335019800,1.151019775390625,-0.002038117265328765,0.0059966398403048515,-0.0019094864837825298
1772702125345069800,1.16106982421875,-0.002123870886862278,0.006797985173761845,-0.0013249226612970233
1772702125355119900,1.171119873046875,0.000045273736759554595,0.00830799713730812,-0.0012290488230064511
1772702125365169000,1.1811689453125,0.0009813748765736818,0.007393467705696821,-0.0007107976707629859
1772702125375219000,1.191218994140625,-0.0008207862265408039,0.006432333029806614,0.00040000680019147694
1772702125385267700,1.201267822265625,-0.0018461032304912806,0.00851279404014349,-0.002129729837179184
1772702125395317800,1.21131787109375,0.000004793690095539205,0.004240551497787237,0.0004122573300264776
1772702125405366800,1.22136669921875,-0.00004793690095539205,0.0049617355689406395,-0.0031033814884722233
1772702125415416800,1.231416748046875,-0.0006474144756793976,0.007137537933886051,-0.00033182985498569906
1772702125425465900,1.2414658203125,-0.002415753435343504,0.007505054119974375,0.0013070794520899653
1772702125435516000,1.251515869140625,0.00007962851668708026,0.007136738859117031,0.0007901599165052176
1772702125445566000,1.26156591796875,-0.0016911072889342904,0.006680273450911045,0.0004988100845366716
1772702125455614700,1.27161474609375,0.0027691549621522427,0.008749815635383129,0.0003326288133393973
1772702125465664800,1.281664794921875,0.00014141385327093303,0.005647765472531319,-0.0001073253879440017
1772702125475714000,1.291714111328125,-0.000984836951829493,0.00881959032267332,-0.0013294500531628728
1772702125485763800,1.301763916015625,-0.001412806916050613,0.006354035809636116,-0.003849599277600646
1772702125495812900,1.311812744140625,-0.0025811356026679277,0.0062341936863958836,-0.0004069310089107603
1772702125505863000,1.32186279296875,-0.0025688852183520794,0.006185458041727543,-0.0026730147656053305
1772702125515912000,1.331911865234375,-0.0015313175972551107,0.008531436324119568,0.004848018288612366
1772702125525962000,1.3419619140625,-0.003652791725471616,0.006107160821557045,-0.0012860405258834362
1772702125536010800,1.3520107421875,-0.001463406952098012,0.008106928318738937,-0.000963797967415303
1772702125546060800,1.362060791015625,0.000002663161012605997,0.007647267077118158,-0.00023222764139063656
1772702125556110600,1.372110595703125,-0.0011821772204712033,0.004542021080851555,0.001606685109436512
1772702125566159600,1.38215966796875,-0.001320927869528532,0.008525577373802662,-0.0018998990999534726
1772702125576209700,1.392209716796875,-0.001210673013702035,0.00484269205480814,-0.0007653924985788763
1772702125586258700,1.4022587890625,-0.002569684060290456,0.006975884083658457,-0.0004655205411836505
1772702125596308700,1.412308837890625,0.0004897553008049726,0.009062204509973526,-0.0012218583142384887
1772702125606357800,1.422357666015625,-0.004769721534103155,0.006357498001307249,0.00011291803093627095
1772702125616407600,1.432407470703125,-0.001671666163019836,0.006511961575597525,-0.001990712946280837
1772702125626456800,1.442456787109375,-0.0016823188634589314,0.008885903283953667,0.00008788431296125054
1772702125636507000,1.4525068359375,-0.0023499734234064817,0.006888266187161207,-0.0019598202779889107
1772702125646556700,1.462556640625,-0.0022865901701152325,0.004800081718713045,0.001657551503740251
1772702125656605700,1.472605712890625,-0.0017779263434931636,0.0062853265553712845,-0.0006977482116781175
1772702125666655700,1.48265576171875,-0.0033193640410900116,0.008686965331435204,0.0001680454588495195
1772702125676704800,1.492704833984375,-0.0012322446564212441,0.008074970915913582,-0.00042051312630064785
1772702125686754800,1.5027548828125,-0.0025955168530344963,0.00703846849501133,-0.003472495824098587
1772702125696803800,1.512803955078125,-0.0013347762869670987,0.004979312419891357,0.001856223214417696
1772702125706853600,1.522853515625,0.0004207794554531574,0.007414773106575012,0.0011592740193009377
1772702125716902700,1.532902587890625,-0.0004703142330981791,0.006599579472094774,0.0003177151083946228
1772702125726952700,1.54295263671875,0.0019656792283058167,0.006972688250243664,0.0010287790792062879
1772702125737001700,1.553001708984375,-0.001133441342972219,0.008219047449529171,0.0007576693315058947
1772702125747051800,1.5630517578125,0.0002663161139935255,0.006154032424092293,0.0017784589435905218
1772702125757101800,1.573101806640625,-0.0012423646403476596,0.007993478327989578,-0.0013283847365528345
1772702125767150600,1.583150634765625,-0.00011211907985853031,0.006363623309880495,-0.0020935109350830317
1772702125777200600,1.59320068359375,-0.003032275242730975,0.0073532541282474995,-0.0003126551164314151
1772702125787250000,1.60325,-0.0011803129455074668,0.006461361423134804,-0.0004005394293926656
1772702125797299700,1.6132998046875,-0.0006442186422646046,0.008647549897432327,0.0014000238152220845
1772702125807348700,1.6233486328125,-0.0017478326335549355,0.006959639023989439,0.0019563580863177776
1772702125817398800,1.633398681640625,0.00021784658019896597,0.008639028295874596,0.00001757686368364375
1772702125827447600,1.643447509765625,-0.0006175870657898486,0.006493319291621447,0.00005459480235003866
1772702125837497600,1.65349755859375,-0.002674079965800047,0.006343649700284004,-0.0013845774810761213
1772702125847547600,1.663547607421875,0.00038056570338085294,0.00618066405877471,-0.000523843802511692
1772702125857596700,1.6735966796875,-0.0025510420091450214,0.008640892803668976,0.0025981799699366093
1772702125867646700,1.683646728515625,-0.0016215987270697951,0.010068346746265888,-0.0029883331153541803
1772702125877695700,1.69369580078125,-0.0029550434555858374,0.010045976378023624,0.0001347559446003288
1772702125887745500,1.70374560546875,-0.0018101505702361465,0.007425159215927124,-0.004307396709918976
1772702125897794800,1.713794921875,-0.00017017599020618945,0.0062309978529810905,0.0032826124224811792
1772702125907844900,1.723844970703125,-0.002674346324056387,0.0065138256177306175,-0.0008303736103698611
1772702125917893600,1.7338935546875,0.0020905814599245787,0.006938866339623928,-0.0025244103744626045
1772702125927943700,1.743943603515625,-0.002162220422178507,0.006747651379555464,0.002645051572471857
1772702125937992700,1.75399267578125,-0.0014583469601348042,0.007017429452389479,-0.0023180153220891953
1772702125948042800,1.764042724609375,-0.0013262542197480798,0.007391870021820068,-0.0005819007055833936
1772702125958092800,1.7740927734375,-0.002284725895151496,0.0062704128213226795,-0.001291100517846644
1772702125968141800,1.784141845703125,-0.0035502600949257612,0.005769205745309591,-0.0012535499408841133
1772702125978191600,1.794191650390625,-0.001967010786756873,0.008025169372558594,-0.00023382554354611784
1772702125988240600,1.80424072265625,-0.003029345767572522,0.008587629534304142,-0.0021113541442900896
1772702125998290700,1.814290771484375,-0.003057841444388032,0.00812104344367981,0.00048070057528093457
1772702126008339700,1.824339599609375,-0.0009259810904040933,0.006201969459652901,-0.00043010051012970507
1772702126018389800,1.8343896484375,-0.0009174589649774134,0.007284810766577721,-0.0009888317435979843
1772702126028438800,1.844438720703125,-0.000022903184799361043,0.007577758282423019,-0.0027774106711149216
1772702126038488600,1.854488525390625,-0.00013981595111545175,0.0075633772648870945,-0.0018485001055523753
1772702126048537900,1.864537841796875,-0.003022687742486596,0.007546066772192717,-0.0005262406193651259
1772702126058588000,1.874587890625,-0.0002061286650132388,0.009127452038228512,-0.0009110674145631492
1772702126068637700,1.8846376953125,0.0008532768115401268,0.008114918135106564,0.0024045680183917284
1772702126078686700,1.894686767578125,0.0005699164466932416,0.007901065982878208,-0.000037550569686573
1772702126088736800,1.90473681640625,-0.0006705839768983424,0.007047256920486689,-0.0031257520895451307
1772702126098785500,1.91478564453125,0.0008727178792469203,0.006283195689320564,0.000035686356568476185
1772702126108835600,1.924835693359375,-0.0009912285022437572,0.0075548551976680756,-0.0024825986474752426
1772702126118884900,1.934884765625,-0.0017188041238114238,0.006003297865390778,0.0007286408799700439
1772702126128934700,1.9449345703125,-0.0013403689954429865,0.005760150961577892,-0.0012748552253469825
1772702126138983700,1.954983642578125,-0.001204547705128789,0.004987301770597696,-0.0013286510948091745
1772702126149033700,1.96503369140625,-0.00040559942135587335,0.006846987176686525,-0.00344559783115983
1772702126159082800,1.975082763671875,0.0013158678775653243,0.00820919405668974,0.0019598202779889107
1772702126169132800,1.9851328125,-0.0027888622134923935,0.006317284423857927,0.0003685815026983619
1772702126179182800,1.995182861328125,-0.002189384773373604,0.009553557261824608,-0.00005725796290789731
1772702126189231600,2.005231689453125,-0.0005022721597924829,0.009736250154674053,0.0007542071980424225
1772702126199281700,2.01528173828125,0.0010029464028775692,0.0029254823457449675,-0.0010463559301570058
1772702126209330700,2.02533056640625,-0.0012777847005054355,0.010893926955759525,0.003314037574455142
1772702126219380700,2.035380615234375,0.001252750982530415,0.0016338493442162871,-0.0007512777228839695
1772702126229429800,2.0454296875,0.0012325108982622623,0.013972541317343712,0.0023579627741128206
1772702126239479800,2.055479736328125,0.00028336033574305475,0.006040581967681646,-0.00012064119800925255
1772702126249528600,2.065528564453125,-0.004772651009261608,0.010865696705877781,0.00004953479583491571
1772702126259578600,2.07557861328125,0.0036519928835332394,0.002427737694233656,-0.0019244002178311348
1772702126269628000,2.0856279296875,-0.0009574064170010388,0.010938934050500393,0.001222390914335847
1772702126279677700,2.095677734375,-0.0015571502735838294,0.006247243378311396,-0.0005640574963763356
1772702126289727700,2.105727783203125,-0.0023166837636381388,0.006094910204410553,-0.00022530343267135322
1772702126299776800,2.11577685546875,-0.0012538161827251315,0.00418276060372591,-0.0023616913240402937
1772702126309826600,2.12582666015625,-0.001966211711987853,0.010300308465957642,-0.0012918994762003422
1772702126319875800,2.135875732421875,-0.0007155913626775146,0.004577707499265671,0.0011827098205685616
1772702126329926000,2.14592578125,-0.001404018490575254,0.006996390409767628,-0.0005403553950600326
1772702126339974700,2.155974609375,0.0012716593919321895,0.005961219780147076,-0.001555818715132773
1772702126350024700,2.166024658203125,-0.0016040218761190772,0.007880293764173985,-0.0021763353142887354
1772702126360073700,2.17607373046875,-0.0006380933918990195,0.009101885370910168,0.002578738844022155
1772702126370123500,2.18612353515625,-0.001781921018846333,0.008957542479038239,0.0018229337874799967
1772702126380172800,2.1961728515625,0.00023622238950338215,0.007949003018438816,0.0001304948964389041
1772702126390222800,2.206222900390625,0.0006016080733388662,0.005648031830787659,0.00027057717670686543
1772702126400273000,2.21627294921875,0.00017337177996523678,0.005948170088231564,0.00048123320448212326
1772702126410321700,2.22632177734375,-0.0007773766992613673,0.008319448679685593,0.0015006912872195244
1772702126420371700,2.236371826171875,-0.0003707120195031166,0.005991579964756966,-0.0022423816844820976
1772702126430420700,2.246420654296875,-0.0018540926976129413,0.00675324397161603,0.0005161206354387105
1772702126440470800,2.256470703125,-0.0022266688756644726,0.008985771797597408,-0.003073021536692977
1772702126450519800,2.266519775390625,-0.002481533447280526,0.007968710735440254,-0.002460494404658675
1772702126460569600,2.276569580078125,0.0013456953456625342,0.0030008498579263687,0.00025246766745112836
1772702126470618600,2.28661865234375,-0.0015393070643767715,0.007643538527190685,-0.0010362359462305903
1772702126480668700,2.296668701171875,-0.0021784657146781683,0.006891462020576,-0.002403502818197012
1772702126490717700,2.3067177734375,-0.0018658105982467532,0.008327704854309559,0.0011680624447762966
1772702126500767700,2.316767822265625,-0.0017134778900071979,0.00896712951362133,0.0014085458824411035
1772702126510817800,2.32681787109375,-0.0016900419723242521,0.008411061950027943,0.0013976269401609898
1772702126520866600,2.336866455078125,-0.0032642364967614412,0.007485346868634224,0.00005619269722956233
1772702126530916900,2.346916748046875,-0.00014700648898724467,0.004920722916722298,-0.002466087229549885
1772702126540966100,2.356966064453125,-0.000493750034365803,0.0065564364194869995,0.002019741339609027
1772702126551016200,2.36701611328125,-0.0011560781858861446,0.007961519993841648,0.00011238539445912465
1772702126561065000,2.37706494140625,-0.0027321369852870703,0.006873086094856262,-0.0007922904333099723
1772702126571115000,2.387114990234375,-0.003465837799012661,0.0055228634737432,-0.0017981663113459945
1772702126581163800,2.397163818359375,-0.002773682354018092,0.007253119256347418,-0.0008149272762238979
1772702126591213800,2.4072138671875,-0.0007624630234204233,0.004777977243065834,-0.0010178601369261742
1772702126601263000,2.41726318359375,-0.004195543937385082,0.009878463111817837,-0.0012767193838953972
1772702126611313000,2.42731298828125,-0.0012037487467750907,0.008102667517960072,0.00016405072528868914
1772702126621363000,2.437363037109375,-0.0025869945529848337,0.007089867256581783,-0.001528920722194016
1772702126631412000,2.447411865234375,-0.0019355855183675885,0.0070397998206317425,-0.002688727341592312
1772702126641462000,2.4574619140625,-0.00253532943315804,0.007706389296799898,-0.0030770162120461464
1772702126651511000,2.467510986328125,-0.000570981705095619,0.004825647920370102,0.001347825862467289
1772702126661561000,2.47756103515625,-0.0019270633347332478,0.008187622763216496,-0.0025923210196197033
1772702126671609900,2.48760986328125,-0.0016402408946305513,0.005365204066038132,-0.00047830372932367027
1772702126681660000,2.497659912109375,-0.0015062838792800903,0.008677910082042217,0.0014314490836113691
1772702126691709000,2.507708984375,0.00040266994619742036,0.008740761317312717,0.00019654128118418157
1772702126701759000,2.517759033203125,-0.0007928230334073305,0.006922088097780943,0.001440237509086728
1772702126711808000,2.52780810546875,-0.0002998719282913953,0.006954578682780266,0.0004796353168785572
1772702126721858000,2.537858154296875,-0.0010804444318637252,0.00660463934764266,-0.0004921521758660674
1772702126731906800,2.54790673828125,-0.0024373249616473913,0.0062216767109930515,0.002186188939958811
1772702126741956900,2.557956787109375,-0.003344131400808692,0.007200655061751604,-0.0021497036796063185
1772702126752007000,2.5680068359375,0.002055960241705179,0.006958573590964079,0.0009270463488064706
1772702126762056000,2.578055908203125,-0.0008884305134415627,0.009695503860712051,0.002689526416361332
1772702126772106000,2.58810595703125,-0.0026996464002877474,0.010128268040716648,-0.0008623315370641649
1772702126782155000,2.598155029296875,-0.002243180526420474,0.008521582931280136,-0.0025092302821576595
1772702126792205000,2.608205078125,-0.0005669869715347886,0.006910370197147131,0.0017893778858706355
1772702126802254000,2.618254150390625,-0.0014274542918428779,0.008317318744957447,0.002581668319180608
1772702126812304100,2.62830419921875,-0.001743038883432746,0.005878129042685032,0.000737695605494082
1772702126822353000,2.638352783203125,-0.001689509372226894,0.006107427179813385,0.0010388991795480251
1772702126832403000,2.64840283203125,-0.0000876179983606562,0.008535963483154774,-0.0002735066518653184
1772702126842452000,2.658451904296875,0.0006716492353007197,0.005317800212651491,-0.004566522315144539
1772702126852501800,2.668501708984375,-0.0013004215434193611,0.009080047719180584,-0.0023369237314909697
1772702126862551800,2.6785517578125,-0.005830458365380764,0.007607585750520229,-0.0002282329078298062
1772702126872601000,2.68860107421875,-0.001648496720008552,0.008502141572535038,-0.000474575295811519
1772702126882651100,2.698651123046875,-0.0024112260434776545,0.009216668084263802,-0.00011451592581579462
1772702126892700000,2.708699951171875,0.00032650353386998177,0.008281898684799671,-0.0004599279200192541
1772702126902750000,2.71875,-0.0032293491531163454,0.00632074661552906,-0.0025475798174738884
1772702126912799000,2.728799072265625,0.0009970874525606632,0.006308229640126228,-0.0009243832319043577
1772702126922849000,2.73884912109375,0.00007163903501350433,0.008155930787324905,0.0004993426846340299
1772702126932898000,2.74889794921875,-0.0023435817565768957,0.008273109793663025,-0.0021640846971422434
1772702126942947800,2.75894775390625,-0.001603222917765379,0.01010696217417717,0.0006253102328628302
1772702126952996900,2.768996826171875,-0.0015712650492787361,0.008074438199400902,-0.0006743124104104936
1772702126963047000,2.779046875,0.0010373012628406286,0.006863764952868223,-0.0011438276851549745
1772702126973097000,2.789096923828125,-0.0006170544074848294,0.005408880300819874,-0.00024740767548792064
1772702126983146000,2.79914599609375,0.00162399560213089,0.0070456587709486485,0.0016042882343754172
1772702126993196000,2.809196044921875,-0.0010612696642056108,0.007701063062995672,0.003704190719872713
1772702127003244800,2.819244873046875,-0.0027209515683352947,0.0063095614314079285,0.002035187790170312
1772702127013294800,2.829294921875,-0.0008631304954178631,0.008540225215256214,0.0027656927704811096
1772702127023344000,2.83934423828125,-0.002319879597052932,0.006465089973062277,0.0007741809240542352
1772702127033394000,2.849393798828125,-0.0026256104465574026,0.00749147217720747,-0.0012434299569576979
1772702127043443000,2.85944287109375,-0.0005467469454742968,0.005939381662756205,0.0007779093575663865
1772702127053493000,2.869492919921875,-0.0007600661483593285,0.005885852500796318,-0.0005118595436215401
1772702127063542000,2.8795419921875,-0.0011478224769234657,0.0075876121409237385,-0.002799514913931489
1772702127073592000,2.889592041015625,-0.0017241304740309715,0.006228601094335318,-0.0014950985787436366
1772702127083641000,2.89964111328125,0.0006213154993019998,0.006847519893199205,0.0010138654615730047
1772702127093691000,2.90969091796875,0.00025246766745112836,0.006828344892710447,-0.0007315703551284969
1772702127103741000,2.919740966796875,-0.0011877698125317693,0.008578041568398476,0.00037976677413098514
1772702127113790000,2.9297900390625,-0.0005278385360725224,0.0057375142350792885,0.0005054679932072759
1772702127123840000,2.939840087890625,-0.002516953507438302,0.005798766855150461,0.00011052118497900665
1772702127133889000,2.949888916015625,-0.0005486111622303724,0.006786266807466745,0.0013555489713326097
1772702127143939000,2.95993896484375,-0.00012996226723771542,0.0062792012467980385,-0.0012538161827251315
1772702127153987800,2.96998779296875,-0.001335575245320797,0.007287740241736174,-0.0008791094878688455
1772702127164038000,2.980037841796875,-0.0007440872141160071,0.005053082015365362,-0.0026636936236172915
1772702127174087200,2.990087158203125,0.0007187871960923076,0.008414523676037788,0.0013677994720637798
1772702127184137000,3.000136962890625,-0.0014969628537073731,0.007137005217373371,-0.001130511867813766
1772702127194186000,3.01018603515625,-0.0007432882557623088,0.004970257636159658,0.0017390442080795765
1772702127204236000,3.020236083984375,-0.001029311795718968,0.005109274294227362,-0.0024716798216104507
1772702127214284800,3.030284912109375,-0.0007590008899569511,0.00692102313041687,-0.00014141385327093303
1772702127224334800,3.0403349609375,-0.0008114652009680867,0.00669492082670331,-0.0015254586469382048
1772702127234385000,3.050385009765625,-0.0014468954177573323,0.006989466026425362,-0.0019358517602086067
1772702127244434000,3.060433837890625,-0.0018040252616629004,0.008191883563995361,-0.00061279337387532
1772702127254484000,3.07048388671875,-0.0018218684708699584,0.006258694920688868,-0.0001882854849100113
1772702127264533000,3.080532958984375,-0.0011938951211050153,0.008679774589836597,0.0008602010202594101
1772702127274582800,3.090582763671875,0.0018753979820758104,0.00566960358992219,0.0014295848086476326
1772702127284632000,3.100632080078125,-0.0002865561400540173,0.0067969197407364845,-0.0011121360585093498
1772702127294682000,3.11068212890625,-0.002299106912687421,0.007503722794353962,-0.0001816275907913223
1772702127304731000,3.12073095703125,-0.0003475425182841718,0.00762969022616744,-0.00030599720776081085
1772702127314781000,3.130781005859375,0.003187004942446947,0.00869388971477747,0.0017480988753959537
1772702127324830000,3.140829833984375,0.0010301107540726662,0.006451507564634085,0.0023869911674410105
1772702127334880000,3.1508798828125,0.00036698358599096537,0.007109308615326881,-0.0015281217638403177
1772702127344930000,3.160929931640625,0.0010167949367314577,0.009070194326341152,-0.0008306399104185402
1772702127354979000,3.17097900390625,-0.0011174624087288976,0.006551642436534166,0.0012639362830668688
1772702127365029000,3.181029052734375,0.0010764497565105557,0.006473612040281296,-0.001431182725355029
1772702127375078000,3.191077880859375,-0.0016053534345701337,0.004076766781508923,-0.0002585929469205439
1772702127385128000,3.2011279296875,0.0004396878939587623,0.005852829199284315,-0.0008141283178701997
1772702127395177000,3.211177001953125,-0.0016365124611184,0.007800132501870394,-0.001930525409989059
1772702127405227000,3.22122705078125,-0.003802727675065398,0.006893592420965433,-0.0026296053547412157
1772702127415276000,3.231276123046875,0.0008013451588340104,0.007986287586390972,-0.0008705873624421656
1772702127425325800,3.241325927734375,-0.0025803367607295513,0.0049766493029892445,-0.002251968951895833
1772702127435374800,3.251374755859375,-0.0016317188274115324,0.006848318502306938,-0.001261805766262114
1772702127445425200,3.261425048828125,-0.0006825681775808334,0.0051926313899457455,-0.0015017564874142408
1772702127455474000,3.271473876953125,-0.0022943131625652313,0.008358331397175789,0.0002508697798475623
1772702127465524000,3.28152392578125,-0.00166633992921561,0.007269897032529116,-0.0007771103992126882
1772702127475574000,3.291573974609375,-0.0014415690675377846,0.007833688519895077,0.0008221178431995213
1772702127485622800,3.301622802734375,-0.002156361471861601,0.007387342397123575,0.0016112125013023615
1772702127495672800,3.3116728515625,-0.0034738273825496435,0.0075545888394117355,-0.0007992146420292556
1772702127505722000,3.32172216796875,0.0004886900424025953,0.007741010282188654,0.0002942793071269989
1772702127515772000,3.33177197265625,-0.0014796522445976734,0.00863423477858305,0.0006383596919476986
1772702127525821000,3.341821044921875,-0.0018855180824175477,0.009102151729166508,-0.001755023142322898
1772702127535871000,3.35187109375,-0.001193362521007657,0.008154332637786865,-0.0026205505710095167
1772702127545920300,3.361920166015625,-0.0028280108235776424,0.008420116268098354,-0.0017664746847003698
1772702127555970300,3.37197021484375,-0.0033910030033439398,0.0075721656903624535,-0.0009885653853416443
1772702127566019000,3.38201904296875,-0.0009946906939148903,0.007923436351120472,-0.0007960188668221235
1772702127576069000,3.392069091796875,0.0005243764026090503,0.007641940843313932,-0.00014807176194153726
1772702127586118100,3.4021181640625,-0.0027116306591778994,0.007778827100992203,0.0009411611245013773
1772702127596168000,3.41216796875,-0.002231462625786662,0.005851763766258955,0.0004189152386970818
1772702127606218000,3.422218017578125,-0.00035659727291204035,0.00897059217095375,-0.0016261261189356446
1772702127616267300,3.432267333984375,-0.002180063631385565,0.0056949034333229065,-0.002207494108006358
1772702127626317000,3.442317138671875,0.0011448930017650127,0.007496532052755356,-0.0025537051260471344
1772702127636366000,3.452365966796875,-0.002263953210785985,0.0070091737434268,0.00041678472189232707
1772702127646416100,3.462416015625,-0.00037976677413098514,0.005663744639605284,0.0027981833554804325
1772702127656465200,3.472465087890625,-0.0022738068364560604,0.006178800016641617,-0.0001073253879440017
1772702127666515200,3.48251513671875,0.0013142699608579278,0.008635565638542175,-0.0004340952436905354
1772702127676564200,3.492564208984375,-0.00452870549634099,0.006996923126280308,-0.0008074704091995955
1772702127686614000,3.502614013671875,-0.0022690133191645145,0.005697300657629967,0.0011669971281662583
1772702127696663000,3.5126630859375,-0.0008998821140266955,0.007174289785325527,-0.0038543930277228355
1772702127706713000,3.522713134765625,-0.0006106628570705652,0.008581237867474556,0.002142513170838356
1772702127716762000,3.53276220703125,-0.0010868359822779894,0.006994792725890875,-0.0006447513005696237
1772702127726812200,3.542812255859375,-0.002453836612403393,0.0079159801825881,0.001335575245320797
1772702127736862200,3.5528623046875,-0.004795820452272892,0.006845122668892145,0.00005832322858623229
1772702127746911000,3.562910888671875,0.0015843145083636045,0.005934055428951979,0.001121723442338407
1772702127756961000,3.5729609375,-0.0012620720081031322,0.007495466619729996,-0.0002798982313834131
1772702127767010300,3.58301025390625,-0.0003376888344064355,0.008786034770309925,0.0002844255941454321
1772702127777060000,3.59306005859375,-0.002852511825039983,0.008606270886957645,0.001276186783798039
1772702127787109000,3.603109130859375,-0.0017781927017495036,0.006446447689086199,-0.0008761800127103925
1772702127797159200,3.6131591796875,-0.003608050523325801,0.006542054936289787,-0.00446851784363389
1772702127807208000,3.6232080078125,-0.0019883159548044205,0.006306897848844528,-0.0046908920630812645
1772702127817258200,3.63325830078125,-0.0009062737226486206,0.00830879621207714,-0.000046871635277057067
1772702127827307000,3.64330712890625,0.0011416971683502197,0.006121009588241577,0.001630387152545154
1772702127837357000,3.653357177734375,-0.0026911243330687284,0.008423578925430775,0.00033902039285749197
1772702127847407000,3.663406982421875,0.0008178567513823509,0.008694954216480255,-0.0008053398923948407
1772702127857456000,3.6734560546875,-0.0004138552176300436,0.008311991579830647,-0.0007004113867878914
1772702127867506000,3.683505859375,-0.0007275756215676665,0.007610248867422342,-0.0002721750643104315
1772702127877555200,3.69355517578125,-0.00261841993778944,0.008311193436384201,-0.0009052084642462432
1772702127887605200,3.703605224609375,-0.000045273736759554595,0.007926099933683872,-0.00034727618913166225
1772702127897654000,3.713654052734375,-0.000669252360239625,0.006595584563910961,-0.0007653924985788763
1772702127907704000,3.7237041015625,-0.001933987601660192,0.006984406150877476,-0.000678307143971324
1772702127917753300,3.73375341796875,-0.0006202502408996224,0.007475226651877165,-0.0021401161793619394
1772702127927803100,3.74380322265625,-0.0029230855870991945,0.008214786648750305,-0.0009816411184147
1772702127937852200,3.75385205078125,-0.0014016216155141592,0.008725314401090145,-0.0013065468519926071
1772702127947902200,3.763902099609375,-0.0026724820490926504,0.007873369380831718,0.0002436792419757694
1772702127957951000,3.773950927734375,-0.0030900659039616585,0.006678941659629345,0.0005752427969127893
1772702127968001000,3.7840009765625,0.00018562232435215265,0.005869873333722353,-0.0023664848413318396
1772702127978051000,3.794051025390625,-0.0036975329276174307,0.009829461574554443,-0.00041545313433744013
1772702127988100000,3.80410009765625,-0.0012961605098098516,0.006856841035187244,-0.0005669869715347886
1772702127998150100,3.814150146484375,-0.0008860336965881288,0.008036887273192406,0.0020562265999615192
1772702128008199200,3.82419921875,0.0006612628931179643,0.007816644385457039,-0.0008450209861621261
1772702128018249000,3.8342490234375,0.00008309062832267955,0.006570817437022924,-0.000606668065302074
1772702128028298200,3.84429833984375,-0.0014101437991485,0.00689119566231966,-0.001630387152545154
1772702128038348300,3.854348388671875,0.00028309403569437563,0.007229949813336134,-0.003346528159454465
1772702128048397000,3.86439697265625,-0.0018421085551381111,0.004954544827342033,-0.000330231967382133
1772702128058447000,3.874447021484375,-0.0005869606975466013,0.009012669324874878,0.0005030711181461811
1772702128068496000,3.884495849609375,0.0014346449170261621,0.006843524985015392,-0.001986984396353364
1772702128078546000,3.8945458984375,-0.0025129588320851326,0.007701861672103405,-0.001430916483514011
1772702128088595200,3.90459521484375,0.0001685781026026234,0.006952980998903513,-0.0002769687562249601
1772702128098645200,3.914645263671875,-0.0010213222121819854,0.007249390706419945,-0.001064998097717762
1772702128108694000,3.924694091796875,0.0007470166892744601,0.00896846130490303,0.0015251922886818647
1772702128118744000,3.934744140625,0.0008356999605894089,0.005845638457685709,-0.00016698020044714212
1772702128128794000,3.944794189453125,0.0005049353349022567,0.01008246187120676,-0.00015632755821570754
1772702128138843100,3.954843017578125,0.0008410262526012957,0.005104214418679476,0.00027537086862139404
1772702128148893200,3.96489306640625,-0.0015699334908276796,0.0062123560346663,-0.00010918960470007733
1772702128158942000,3.97494189453125,0.00026258768048137426,0.006274407263845205,-0.0004261057765688747
1772702128168992000,3.984991943359375,-0.0005696501466445625,0.00589517317712307,0.0010080065112560987
1772702128179041000,3.995041015625,-0.0018317222129553556,0.0070216902531683445,0.0022474415600299835
1772702128189091300,4.00509130859375,-0.0005496764206327498,0.004244812298566103,-0.0024000408593565226
1772702128199140000,4.01514013671875,-0.0013608753215521574,0.005941778887063265,-0.00016644757124595344
1772702128209190100,4.025190185546875,-0.003419232554733753,0.0060267336666584015,-0.004404069390147924
1772702128219239000,4.035239013671875,-0.002663161139935255,0.005915147252380848,-0.002043976215645671
1772702128229289000,4.0452890625,-0.0035473306197673082,0.006825948134064674,-0.00007776429993100464
1772702128239338200,4.055338134765625,-0.00418249424546957,0.007699198555201292,0.0001512675517005846
1772702128249388300,4.06538818359375,-0.001582982949912548,0.004987301770597696,-0.00001651159800530877
1772702128259438000,4.07543798828125,-0.0010410296963527799,0.007327421568334103,0.0004487426485866308
1772702128269487000,4.085487060546875,-0.0005795038305222988,0.009119462221860886,-0.0008641957538202405
1772702128279537200,4.095537109375,-0.0018066884949803352,0.00993359088897705,0.000060453756304923445
1772702128289586200,4.105586181640625,-0.0004242415598127991,0.009193498641252518,0.0007432882557623088
1772702128299636200,4.11563623046875,0.0011590076610445976,0.006353769451379776,0.0007819040911272168
1772702128309685000,4.12568505859375,0.000368847802747041,0.007529288996011019,0.001916144392453134
1772702128319735000,4.135735107421875,-0.002074069809168577,0.00726323900744319,-0.0012695288751274347
1772702128329784000,4.1457841796875,-0.0018570221727713943,0.007962851785123348,-0.0010639328975230455
1772702128339834000,4.155834228515625,-0.0015608787070959806,0.005815544631332159,-0.0008306399104185402
1772702128349883100,4.165883056640625,-0.0005342300864867866,0.007014766335487366,0.0019414444686844945
1772702128359933200,4.17593310546875,-0.0015134743880480528,0.005546032916754484,-0.0022897860035300255
1772702128369982000,4.18598193359375,0.0005336974863894284,0.006447246763855219,-0.00005299690383253619
1772702128380032000,4.196031982421875,-0.0008420915110036731,0.006998254451900721,-0.0021635519806295633
1772702128390082000,4.20608203125,0.00022184131375979632,0.007862716913223267,-0.0012112056137993932
1772702128400131000,4.216131103515625,0.0003989415417890996,0.0071098413318395615,-0.0020820593927055597
1772702128410181000,4.22618115234375,-0.0003182477375958115,0.006171077024191618,0.0012668657582253218
1772702128420230100,4.236230224609375,-0.0023545008152723312,0.007547132205218077,0.0005789712304249406
1772702128430280200,4.2462802734375,-0.0005611280212178826,0.0073071811348199844,-0.000669518718495965
1772702128440329000,4.256328857421875,-0.0011954930378124118,0.007059507537633181,-0.0002697782183531672
1772702128450379000,4.26637890625,0.0015776565996930003,0.005118861794471741,-0.000009054747351910919
1772702128460428000,4.276427978515625,0.003419232554733753,0.0044048684649169445,0.001115864492021501
1772702128470478000,4.28647802734375,-0.0005808354471810162,0.009591640904545784,0.0010034791193902493
1772702128480527000,4.296527099609375,0.0015576828736811876,0.007154582068324089,0.0008844357798807323
1772702128490577200,4.3065771484375,-0.0015342470724135637,0.00791438203305006,-0.0037531929556280375
1772702128500626200,4.316626220703125,-0.0004990763845853508,0.007632619701325893,-0.00130894361063838
1772702128510676200,4.32667626953125,-0.001261805766262114,0.005747634451836348,-0.0019329222850501537
1772702128520726300,4.336726318359375,-0.0024517059791833162,0.006829410325735807,0.0015217302134260535
1772702128530774500,4.3467744140625,-0.0032948628067970276,0.008333297446370125,-0.0022053637076169252
1772702128540824300,4.35682421875,0.000041012681322172284,0.0049401638098061085,-0.0013933659065514803
1772702128550873600,4.36687353515625,-0.0009534116834402084,0.007457383442670107,-0.00041199102997779846
1772702128560923600,4.376923583984375,-0.0016921724891290069,0.005979595705866814,-0.0010665960144251585
1772702128570972400,4.386972412109375,-0.0016325177857652307,0.010028133168816566,-0.0016146745765581727
1772702128581022500,4.3970224609375,-0.0025651566684246063,0.005105812568217516,-0.00015233281010296196
1772702128591071500,4.407071533203125,-0.0002921487612184137,0.007272560149431229,-0.00041438787593506277
1772702128601121500,4.41712158203125,-0.004364388529211283,0.0057585532777011395,-0.001306280493736267
1772702128611170600,4.427170654296875,-0.003299656556919217,0.007525294087827206,-0.00023542344570159912
1772702128621220600,4.437220703125,-0.0035814191214740276,0.005114867351949215,0.00009134642459684983
1772702128631269400,4.447269287109375,-0.00033662354690022767,0.0060144830495119095,0.0015646071406081319
1772702128641319400,4.4573193359375,-0.0008231831016018987,0.007868043147027493,-0.0008439557277597487
1772702128651368400,4.467368408203125,-0.0020359866321086884,0.006299707572907209,-0.0002993392990902066
1772702128661418500,4.47741845703125,-0.0005448827287182212,0.009741044603288174,-0.0008117315010167658
1772702128671468500,4.487468505859375,-0.0010575412306934595,0.00487278588116169,-0.0008098672842606902
1772702128681517300,4.497517333984375,-0.0032205607276409864,0.007714378647506237,-0.001097755040973425
1772702128691567400,4.5075673828125,-0.0017699368763715029,0.007228884380310774,-0.0002234392159152776
1772702128701616600,4.51761669921875,-0.0030069751664996147,0.007181213703006506,-0.0004468784318305552
1772702128711666700,4.527666748046875,-0.0004593952908180654,0.006335127633064985,-0.0002665824140422046
1772702128721715500,4.537715576171875,-0.002245843643322587,0.00896926037967205,0.0017310547409579158
1772702128731765500,4.547765625,-0.0006601976347155869,0.005827262531965971,0.00077631144085899
1772702128741814300,4.557814208984375,0.0012234562309458852,0.006899984087795019,0.0010871023405343294
1772702128751864300,4.5678642578125,0.0003885551996063441,0.007595069240778685,0.0004183826094958931
1772702128761913600,4.57791357421875,-0.0014735270524397492,0.006904244888573885,-0.0001994707708945498
1772702128771963600,4.587963623046875,-0.0002561961009632796,0.007139401976019144,0.0011142665753141046
1772702128782012400,4.598012451171875,-0.0010069411946460605,0.005821403581649065,-0.0007012102869339287
1772702128792062500,4.6080625,-0.0012096078135073185,0.00410499656572938,0.003715642262250185
1772702128802111500,4.618111572265625,-0.00015286543930415064,0.006880542729049921,-0.001222657272592187
1772702128812161500,4.62816162109375,-0.0000876179983606562,0.005397428758442402,0.00042557314736768603
1772702128822211600,4.638211669921875,-0.0019744676537811756,0.007683219853788614,-0.00250523560680449
1772702128832260400,4.64826025390625,-0.003896470880135894,0.0076035913079977036,-0.0003158508916385472
1772702128842310400,4.658310302734375,0.0003462109307292849,0.005045358557254076,0.0006356965750455856
1772702128852359400,4.668359375,-0.0008532768115401268,0.0065319351851940155,0.0017060210229828954
1772702128862409500,4.678409423828125,-0.0003888215287588537,0.005750829819589853,-0.00033582461765035987
1772702128872458500,4.68845849609375,-0.0017033577896654606,0.006220878101885319,-0.0005502090789377689
1772702128882508500,4.698508544921875,-0.0007651261985301971,0.0070949275977909565,-0.0002689792599994689
1772702128892557300,4.708557373046875,-0.001585912425071001,0.004774248693138361,-0.0002644518972374499
1772702128902607400,4.718607421875,0.0004966795677319169,0.006303968373686075,-0.0025156219489872456
1772702128912656600,4.72865673828125,-0.0003834952076431364,0.006386260036379099,0.0008045409340411425
1772702128922706400,4.73870654296875,-0.0004934837343171239,0.008868060074746609,-0.0006117281154729426
1772702128932756500,4.748756591796875,-0.0008146609761752188,0.0059934440068900585,-0.000678307143971324
1772702128942805500,4.758805419921875,-0.0007667240570299327,0.008233695290982723,-0.0019377160351723433
1772702128952855600,4.76885546875,-0.001966744428500533,0.006558034103363752,-0.0012687299167737365
1772702128962904600,4.778904541015625,0.0008793757879175246,0.005054146982729435,-0.00037950044497847557
1772702128972954600,4.78895458984375,-0.0010921623324975371,0.008824383839964867,0.0018277274211868644
1772702128983003400,4.79900341796875,-0.0021054951939731836,0.007689611054956913,-0.0028240159153938293
1772702128993053400,4.809053466796875,-0.0005576659459620714,0.007172957994043827,-0.0030802120454609394
1772702129003102500,4.8191025390625,-0.0015387744642794132,0.006096241995692253,0.0011528824688866735
1772702129013152300,4.82915234375,-0.002055694116279483,0.004177168011665344,0.0009653958841226995
1772702129023201500,4.839201416015625,-0.002017610939219594,0.006901581771671772,0.0005416869535110891
1772702129033251600,4.84925146484375,0.00002902845517382957,0.0070821442641317844,0.0002364887041039765
1772702129043300400,4.85930029296875,-0.0010410296963527799,0.009517871774733067,-0.0015393070643767715
1772702129053350400,4.869350341796875,-0.0011286477092653513,0.006695985794067383,0.0013068130938336253
1772702129063399700,4.879399658203125,-0.0008655273704789579,0.006429403554648161,-0.00045300371129997075
1772702129073449500,4.889449462890625,-0.0020634171087294817,0.006573746912181377,-0.0009784454014152288
1772702129083498500,4.89949853515625,0.00029055087361484766,0.008058725856244564,-0.0018402442801743746
1772702129093548500,4.909548583984375,0.001537975505925715,0.00863263662904501,-0.0015030881622806191
1772702129103598600,4.9195986328125,-0.0025276062078773975,0.009802296757698059,-0.0013795174891129136
1772702129113647400,4.9296474609375,-0.0010069411946460605,0.008953280746936798,0.002026399364694953
1772702129123697400,4.939697509765625,-0.0017185378819704056,0.008493087254464626,-0.0028509139083325863
1772702129133746400,4.949746337890625,-0.0019776634871959686,0.006382531952112913,-0.0016855146968737245
1772702129143796500,4.95979638671875,0.00036671728594228625,0.007689877413213253,-0.0005185174522921443
1772702129153845500,4.969845458984375,0.0021350563038140535,0.008388424292206764,-0.00014194648247212172
1772702129163895300,4.979895263671875,-0.0006149238906800747,0.006747917737811804,-0.00028043086058460176
1772702129173944600,4.989944580078125,-0.001327053178101778,0.009792709723114967,-0.0005877596559002995
1772702129183994600,4.99999462890625,0.000245543458731845,0.009884854778647423,0.001332645770162344
1772702129194043400,5.01004345703125,-0.0019499665359035134,0.008110390976071358,-0.0011856392957270145
1772702129204093400,5.020093505859375,0.0010484865633770823,0.005087436642497778,-0.000811997801065445
1772702129214142500,5.030142578125,-0.00040959418402053416,0.006447779480367899,0.0023939155507832766
1772702129224192300,5.040192138671875,0.0012540825409814715,0.007411044556647539,0.002231196267530322
1772702129234241500,5.050241455078125,0.0024466461036354303,0.00863396842032671,0.000966993800830096
1772702129244291600,5.06029150390625,0.0012008192716166377,0.007436610758304596,-0.0023904533591121435
1772702129254341400,5.07034130859375,-0.00009267800487577915,0.006284527480602264,0.0022128205746412277
1772702129264390400,5.080390380859375,-0.0023587618488818407,0.007998804561793804,-0.0003779025573749095
1772702129274440400,5.0904404296875,-0.0019683423452079296,0.005952164996415377,0.002373675350099802
1772702129284489500,5.100489501953125,-0.0025875272694975138,0.006295179948210716,0.0007720504072494805
1772702129294539500,5.11053955078125,-0.0001699096756055951,0.007817443460226059,0.002442651428282261
1772702129304588500,5.120588623046875,-0.0024658208712935448,0.007576959673315287,0.00004926848123432137
1772702129314638300,5.130638427734375,-0.002287389012053609,0.00791704561561346,-0.004282096866518259
1772702129324687400,5.140687255859375,-0.001347559504210949,0.004953479394316673,-0.00004846953015658073
1772702129334737700,5.150737548828125,-0.001969141187146306,0.0062461779452860355,0.0004655205411836505
1772702129344786400,5.160786376953125,-0.0034141724463552237,0.006345247384160757,0.0023726101499050856
1772702129354836500,5.17083642578125,-0.0017060210229828954,0.009119195863604546,-0.00253426400013268
1772702129364885500,5.180885498046875,-0.002296976512297988,0.007778294384479523,-0.00247540813870728
1772702129374935300,5.190935302734375,-0.0008468852029182017,0.008054464124143124,-0.0014407701091840863
1772702129384984600,5.200984619140625,-0.0019824570044875145,0.006357498001307249,-0.0007848335662856698
1772702129395034600,5.21103466796875,-0.0027212179265916348,0.007712780963629484,-0.001841575838625431
1772702129405084400,5.22108447265625,-0.00105354655534029,0.006322077941149473,-0.001187503570690751
1772702129415133400,5.231133544921875,-0.004422445315867662,0.009944243356585503,-0.0008253136184066534
1772702129425183500,5.24118359375,0.0008077367674559355,0.006071208510547876,0.00105354655534029
1772702129435232500,5.251232421875,-0.00213532242923975,0.006878678686916828,-0.0032714270055294037
1772702129445282600,5.261282470703125,-0.0005973470397293568,0.009199890308082104,0.00256462418474257
1772702129455331600,5.27133154296875,-0.0015062838792800903,0.008231830783188343,0.00017443705291952938
1772702129465381400,5.28138134765625,-0.0006391586503013968,0.006597715429961681,-0.001913214917294681
1772702129475430400,5.291430419921875,-0.000913197931367904,0.006946322973817587,-0.003099120454862714
1772702129485480400,5.30148046875,-0.001907089608721435,0.007686415687203407,0.0002878876985050738
1772702129495529500,5.311529541015625,-0.0007728493656031787,0.006425142288208008,0.0014413028256967664
1772702129505578500,5.32157861328125,0.0002567287301644683,0.007424892857670784,0.0005025385180488229
1772702129515628500,5.331628662109375,0.00005752427750849165,0.007232612930238247,-0.0008138620178215206
1772702129525677600,5.341677490234375,-0.0011094729416072369,0.006006759591400623,-0.0020325244404375553
1772702129535727600,5.3517275390625,-0.0023270701058208942,0.009230249561369419,-0.00006524744821945205
1772702129545777000,5.36177685546875,0.000029294771593413316,0.00523604080080986,0.0009302421822212636
1772702129555826700,5.37182666015625,-0.003284742822870612,0.007105047348886728,-0.001555818715132773
1772702129565875700,5.381875732421875,-0.0021049624774605036,0.010463560000061989,0.0006050702068023384
1772702129575925800,5.39192578125,-0.002398176584392786,0.006925816647708416,-0.00304638990201056
1772702129585975800,5.401975830078125,-0.0009406284661963582,0.007922904565930367,-0.0020418455824255943
1772702129596024800,5.41202490234375,-0.002424541860818863,0.006506635341793299,0.0018636800814419985
1772702129606075000,5.422074951171875,-0.001814944320358336,0.008098406717181206,-0.000696150294970721
1772702129616123600,5.43212353515625,-0.002424275502562523,0.006887467112392187,-0.0025837989524006844
1772702129626173700,5.442173583984375,-0.0021465078461915255,0.005575860384851694,0.00020959076937288046
1772702129636222700,5.45222265625,-0.0007611314067617059,0.0075852153822779655,-0.0004953479510731995
1772702129646272800,5.462272705078125,-0.0017694041598588228,0.007955661043524742,-0.0015009575290605426
1772702129656321800,5.47232177734375,0.0008543420699425042,0.008742092177271843,0.0010716560063883662
1772702129666371800,5.482371826171875,0.00017417073831893504,0.0075726984068751335,-0.002237321576103568
1772702129676420600,5.492420654296875,-0.0023278691805899143,0.008199340663850307,-0.002487658755853772
1772702129686470700,5.502470703125,-0.0006551376427523792,0.007877630181610584,-0.0009981527691707015
1772702129696520000,5.51252001953125,0.0004034689045511186,0.009062470868229866,-0.0005976133397780359
1772702129706569700,5.52256982421875,-0.0007004113867878914,0.007288272958248854,-0.002016811864450574
1772702129716618800,5.53261865234375,-0.00034434671397320926,0.005041630007326603,-0.0013315805699676275
1772702129726668800,5.542668701171875,-0.004465055651962757,0.008657137863337994,0.0003211772127542645
1772702129736718600,5.552718505859375,-0.0028735508676618338,0.010142648592591286,0.0008620652370154858
1772702129746768000,5.562767822265625,-0.0011033476330339909,0.008322911337018013,0.00023196132679004222
1772702129756818000,5.57281787109375,0.0017864484107121825,0.008810269646346569,-0.002157160546630621
1772702129766866700,5.58286669921875,0.0008114652009680867,0.009249690920114517,-0.0014405038673430681
1772702129776916700,5.592916748046875,-0.0022205437999218702,0.007841677404940128,-0.0022058964241296053
1772702129786965800,5.6029658203125,-0.0007544735562987626,0.0070584421046078205,-0.0009832390351220965
1772702129797015600,5.613015625,-0.0006956176948733628,0.0057380469515919685,0.0014823154779151082
1772702129807064800,5.62306494140625,-0.000014114753867033869,0.007312241476029158,0.00031611722079105675
1772702129817115000,5.633114990234375,-0.0007046724203974009,0.007803861051797867,-0.00019121496006846428
1772702129827163600,5.64316357421875,-0.0003611246356740594,0.0059931776486337185,-0.004319380968809128
1772702129837213700,5.653213623046875,-0.00007936220208648592,0.00740278884768486,-0.001270061475224793
1772702129847263000,5.663262939453125,0.00017097493400797248,0.007977765053510666,-0.000892425247002393
1772702129857312800,5.673312744140625,-0.000666589243337512,0.0068901302292943,-0.0006793724023737013
1772702129867362800,5.68336279296875,0.0002972087822854519,0.005145759787410498,-0.00034914040588773787
1772702129877411800,5.693411865234375,-0.0012492889072746038,0.004449609667062759,0.001466336427256465
1772702129887461600,5.703461669921875,-0.0001328917423961684,0.0065287393517792225,0.001398425898514688
1772702129897510700,5.7135107421875,-0.00017177389236167073,0.007759386207908392,-0.0013872405979782343
1772702129907560700,5.723560791015625,-0.002222674200311303,0.005249090492725372,0.000018375811123405583
1772702129917611000,5.733611083984375,-0.0022088258992880583,0.008872853592038155,-0.0009776464430615306
1772702129927659800,5.74365966796875,-0.0006607302348129451,0.008984972722828388,-0.0011534150689840317
1772702129937709800,5.753709716796875,-0.00013555490295402706,0.00803129468113184,0.0024410535115748644
1772702129947758600,5.763758544921875,-0.00119629199616611,0.006718356627970934,-0.0008636631537228823
1772702129957808600,5.77380859375,-0.0007637945818714797,0.008718390017747879,-0.002532399957999587
1772702129967858000,5.78385791015625,-0.0009912285022437572,0.006916495505720377,-0.000055926382628967986
1772702129977907700,5.79390771484375,0.0010716560063883662,0.005944175645709038,-0.0008165251929312944
1772702129987956700,5.803956787109375,0.0004942826926708221,0.005801163613796234,-0.001582716591656208
1772702129998006800,5.8140068359375,-0.001942509668879211,0.005797169171273708,-0.0013811152894049883
1772702130008055800,5.824055908203125,-0.0013560815714299679,0.008685633540153503,-0.0008562062866985798
1772702130018105900,5.83410595703125,-0.0025515747256577015,0.006857106927782297,0.002156361471861601
1772702130028155000,5.84415478515625,-0.0004673847579397261,0.00872105360031128,-0.0012548814993351698
1772702130038204700,5.85420458984375,0.0009867012267932296,0.009829727932810783,-0.0018138790037482977
1772702130048253700,5.864253662109375,-0.002930009737610817,0.008102134801447392,-0.004531901329755783
1772702130058303700,5.8743037109375,0.00007084008393576369,0.0049217878840863705,-0.0003731088654603809
1772702130068353500,5.884353515625,0.001606418751180172,0.007900533266365528,0.0017009610310196877
1772702130078402800,5.89440283203125,0.00022210762836039066,0.006899717729538679,-0.0005166532355360687
1772702130088452900,5.904452880859375,0.00001864212754298933,0.00788242369890213,-0.002034388715401292
1772702130098501600,5.914501708984375,-0.0016255935188382864,0.00580782163888216,0.001318264752626419
1772702130108551700,5.9245517578125,-0.002127599436789751,0.0073255570605397224,-0.003546265186741948
1772702130118601000,5.93460107421875,-0.0009576727170497179,0.00669358903542161,0.0018391790799796581
1772702130128650800,5.944650634765625,-0.0010021475609391928,0.007003048434853554,-0.002507898723706603
1772702130138699800,5.95469970703125,-0.001588575541973114,0.007446464616805315,0.003739877138286829
1772702130148749800,5.964749755859375,-0.0005909554311074317,0.006947122048586607,0.0004596615908667445
1772702130158798600,5.974798583984375,0.00009214537567459047,0.006313289515674114,-0.0023252058308571577
1772702130168848600,5.9848486328125,-0.0026764769572764635,0.008248874917626381,-0.0007858988246880472
1772702130178898000,5.99489794921875,-0.0005970807396806777,0.006893858779221773,-0.0013275857781991363
1772702130188947700,6.00494775390625,-0.0026913906913250685,0.00765791954472661,0.0009486179915256798
1772702130198996700,6.014996826171875,-0.0013046825770288706,0.005121258553117514,0.0029385320376604795
1772702130209046800,6.025046875,-0.00008468852320220321,0.008565524592995644,-0.001674861996434629
1772702130219096600,6.0350966796875,-0.00008948221511673182,0.005459479987621307,-0.0029577065724879503
1772702130229145900,6.045145751953125,-0.001279382617212832,0.004236556589603424,-0.0020516992080956697
1772702130239196000,6.05519580078125,0.0008317052270285785,0.007287473883479834,-0.001047154888510704
1772702130249244700,6.06524462890625,0.0005803027888759971,0.011349326930940151,-0.003357979701831937
1772702130259294700,6.075294677734375,-0.002548911375924945,0.008959672413766384,-0.0009989517275243998
1772702130269343700,6.08534375,0.0002825613773893565,0.008590292185544968,-0.001996039180085063
1772702130279393800,6.095393798828125,-0.0005318332696333528,0.004996889270842075,-0.0006767092272639275
1772702130289442800,6.10544287109375,0.0013273194199427962,0.007201720029115677,-0.00040240364614874125
1772702130299492900,6.115492919921875,-0.002614957746118307,0.008317318744957447,-0.00003382214708835818
1772702130309541600,6.125541748046875,-0.0007379619055427611,0.0075604477897286415,-0.002547047333791852
1772702130319591700,6.135591796875,-0.002049835165962577,0.005529255140572786,-0.0018647453980520368
1772702130329641000,6.145640869140625,-0.0026144252624362707,0.005976666230708361,-0.003623496973887086
1772702130339690800,6.155690673828125,-0.0008948221220634878,0.007925034500658512,0.002840261207893491
1772702130349739800,6.16573974609375,-0.0031521173659712076,0.007107976824045181,-0.0000010652644277797663
1772702130359789800,6.175789794921875,-0.0008231831016018987,0.00621129060164094,0.0012325108982622623
1772702130369838600,6.185838623046875,-0.002674346324056387,0.009276854805648327,-0.0018394453218206763
1772702130379889000,6.195888916015625,-0.002625077962875366,0.007561779581010342,0.00005965480886516161
1772702130389939000,6.20593896484375,-0.0007472829893231392,0.005649097263813019,-0.0016192019684240222
1772702130399987700,6.21598779296875,-0.0005526058957912028,0.005839513149112463,-0.002261822810396552
1772702130410037800,6.226037841796875,-0.0015385081060230732,0.0075796227902174,-0.0012295814231038094
1772702130420086800,6.236086669921875,-0.00256462418474257,0.008793758228421211,-0.0015736619243398309
1772702130430136600,6.246136474609375,-0.00006578007742064074,0.006594519596546888,-0.001184574095532298
1772702130440185900,6.256185791015625,-0.0017504957504570484,0.004221110139042139,-0.0010418286547064781
1772702130450236000,6.26623583984375,-0.0010098706698045135,0.006482933182269335,-0.0014112089993432164
1772702130460284700,6.27628466796875,-0.002453836612403393,0.00615136930719018,-0.0028599686920642853
1772702130470334700,6.286334716796875,-0.0025510420091450214,0.007772435434162617,0.0002902845444623381
1772702130480384000,6.296384033203125,-0.0025904567446559668,0.017194433137774467,0.0064776064828038216
1772702130490433800,6.306433837890625,0.0004524710529949516,0.03701580688357353,0.01067847665399313
1772702130500482800,6.31648291015625,-0.0013936321483924985,0.0054853130131959915,-0.0020905814599245787
1772702130510532900,6.326532958984375,-0.0019302591681480408,-0.012412994168698788,-0.010837201029062271
1772702130520581600,6.33658154296875,-0.0003105245705228299,0.00048602689639665186,-0.006022472400218248
1772702130530631700,6.346631591796875,-0.00015632755821570754,0.000009853695701167453,-0.0046842340379953384
1772702130540681700,6.356681640625,-0.0006703176186420023,0.006813963875174522,-0.004156395327299833
1772702130550731000,6.36673095703125,-0.0031286815647035837,0.0062464443035423756,0.0010697918478399515
1772702130560781000,6.376781005859375,-0.0003880225704051554,0.008229699917137623,0.00002956108801299706
1772702130570829800,6.386829833984375,-0.0008559399866499007,0.010210026986896992,-0.0005083974683657289
1772702130580880000,6.3968798828125,-0.0014892396284267306,0.00771837355569005,-0.0023377228062599897
1772702130590929000,6.406928955078125,-0.0009882990270853043,0.0006141249323263764,-0.0001323590986430645
1772702130600979000,6.41697900390625,-0.002523078816011548,0.007121559232473373,-0.0016580841038376093
1772702130611028000,6.427028076171875,0.0010538127971813083,0.005833387840539217,-0.0009901633020490408
