time,seconds_elapsed,z,y,x
1772701751605095200,0.07809521484375,0.28684827214479447,-0.20717706179767845,-0.40576223633885383
1772701751615143400,0.088143310546875,0.2257598894536495,-0.14884382303357124,-0.4649503383666277
1772701751625192200,0.098192138671875,0.03479775713682175,-0.09790917008817196,-0.4101666087776422
1772701751635240200,0.108240234375,-0.18348492830395696,-0.08844459165036678,-0.31134733810722826
1772701751645289200,0.118289306640625,-0.31069968785345553,-0.0711529728487134,-0.18163491652309893
1772701751655337200,0.128337158203125,-0.32260932135581966,-0.0795747642353177,-0.10797639059424399
1772701751665385200,0.13838525390625,-0.29106852018833157,-0.1045044766999781,-0.09882862302064895
1772701751675434200,0.148434326171875,-0.32347792088389393,-0.11122414034381509,-0.10846388185024261
1772701751685482200,0.158482177734375,-0.32632863413989543,-0.0797873840726912,-0.14457389062941073
1772701751695531000,0.168531005859375,-0.29695699370503426,-0.03546659630909562,-0.13894026865661144
1772701751705579300,0.178579345703125,-0.31772154931426044,-0.025595629027485845,-0.10057283633947371
1772701751715628000,0.1886279296875,-0.2713753932029009,-0.043385114348679775,-0.13139409106075764
1772701751725676300,0.19867626953125,-0.1120978544384241,-0.04186243482604623,-0.1719283460229635
1772701751735724300,0.208724365234375,0.021824293795228003,-0.042586803577840324,-0.25264906542301174
1772701751745773300,0.218773193359375,0.10505144305825233,0.021500030276924372,-0.3332072877377271
1772701751755821300,0.2288212890625,0.22343641494214533,0.05491495475322008,-0.3778711898505687
1772701751765870000,0.2388701171875,0.32527649473845954,0.058875382816791534,-0.4072212029755115
1772701751775918300,0.24891845703125,0.4396177441895008,0.06894844854176044,-0.465106405711174
1772701751785967000,0.258967041015625,0.5612853910058736,0.054922553537786,-0.5311527030706406
1772701751796015400,0.269015380859375,0.6254571266651153,0.07585062914565205,-0.5985030687659979
1772701751806063000,0.27906298828125,0.6839777046948671,0.06838906109333039,-0.6582774462491273
1772701751816112400,0.2891123046875,0.7500853768527508,0.062398442376404996,-0.6982856315106153
1772701751826160000,0.29916015625,0.8281646418333053,0.09317863443493843,-0.7780377981394528
1772701751836209400,0.30920947265625,0.9544213700056076,0.017716127824038266,-0.9322650677770375
1772701751846257200,0.319257080078125,1.1256605647206306,-0.18882862741947173,-1.072547983214259
1772701751856306400,0.329306396484375,1.3412217162430287,-0.25405937061235306,-1.25852472833395
1772701751866354200,0.339354248046875,1.5642098028957843,-0.17568112268522382,-1.5658371118366718
1772701751876402200,0.349402099609375,1.8219272576242684,-0.12432342202216386,-1.9093343229204416
1772701751886451200,0.359451171875,2.1098615714401006,-0.13416910873204468,-2.266555523452163
1772701751896499200,0.369499267578125,2.4769109230250117,-0.17993929158635436,-2.6469278824687
1772701751906548200,0.37954833984375,2.9451591338932515,-0.2608623286254704,-3.0761598417222498
1772701751916596200,0.38959619140625,3.475612164261937,-0.4332658909447491,-3.5381051530539986
1772701751926645200,0.399645263671875,4.000421635785699,-0.5907909600187092,-3.77367156625092
1772701751936693200,0.409693359375,4.519233912721276,-0.6624749710042029,-3.8744127448946237
1772701751946741000,0.419740966796875,4.837411389109492,-0.5385492430627346,-3.818239606773853
1772701751956790300,0.429790283203125,4.933782682105899,-0.2659855899233371,-3.5045237859696146
1772701751966838000,0.439838134765625,4.914707979279756,-0.06161050686910748,-3.212228938856721
1772701751976887300,0.44988720703125,4.707492046776413,-0.023809403197839855,-3.034629561460018
1772701751986935000,0.45993505859375,4.149900834113359,-0.0343796047899872,-2.664927065017819
1772701751996984300,0.469984375,3.281938434898853,-0.052504678741097446,-2.057715789139271
1772701752007032000,0.480031982421875,1.98567171266973,0.08685783391557633,-1.1621452520310878
1772701752017081300,0.490081298828125,0.3537579083353281,0.22499146236442027,0.45722997324764725
1772701752027129000,0.500129150390625,-1.5544313362032174,0.3583426057770848,2.4403794739633797
1772701752037177000,0.510177001953125,-3.7565129261791705,0.7513165260829031,4.51598221744895
1772701752047226000,0.52022607421875,-6.1230386439025395,1.2899113618530331,6.309853008890151
1772701752057274000,0.530274169921875,-8.779654976692795,1.578289181652665,7.319296008893847
1772701752067323100,0.5403232421875,-11.781833636403084,1.6992931038632988,8.098169673335551
1772701752077371100,0.55037109375,-14.381661914044617,1.6407172885149717,8.090090996298194
1772701752087420200,0.560420166015625,-16.505142260992525,1.3532812796100973,7.604163920876383
1772701752097468200,0.57046826171875,-17.8428077460587,1.2684832277685403,7.384262694323063
1772701752107516400,0.580516357421875,-17.628899622440336,1.0992722509454935,7.735065844506025
1772701752117565200,0.590565185546875,-16.886297294819354,0.6793132930804043,8.288300615525245
1772701752127613200,0.60061328125,-16.094284162819385,0.42378998739533125,8.324799915882945
1772701752137662200,0.610662109375,-15.496505316674709,0.35637240168266,8.261984855529665
1772701752147710200,0.620710205078125,-14.700317529338598,0.2683928702607751,8.044323516857624
1772701752157759200,0.63075927734375,-13.522122475260495,-0.13061528870798647,7.720651534706354
1772701752167807000,0.640806884765625,-12.590330285692215,-0.38187852579578757,7.529221784877777
1772701752177855200,0.650855224609375,-12.375371191716193,-0.3291139905421063,7.660724012488126
1772701752187904000,0.660904052734375,-12.196157949382066,0.3041471609374508,7.75281192907691
1772701752197952000,0.670951904296875,-11.00556986219883,0.8636192554436624,7.478066182658075
1772701752208001000,0.6810009765625,-8.351655189582704,1.162533520696312,6.150662563887238
1772701752218049000,0.691049072265625,-4.144022881990671,0.9799261058792471,4.341719290998578
1772701752228097800,0.701097900390625,0.619920535326004,0.48726530175562943,2.6616473126947877
1772701752238146000,0.71114599609375,4.7065912985444065,-0.2405769896342419,1.1450319124057888
1772701752248194800,0.72119482421875,7.969175629153847,-0.8016680453781038,-0.3542433537647128
1772701752258242800,0.731242919921875,10.47941131415367,-0.8883488422263414,-1.4653791340485214
1772701752268291000,0.741291015625,12.482200750362873,-0.9269044175267219,-2.2127540828987953
1772701752278339800,0.75133984375,14.197978248298167,-0.7044144896544515,-3.200497584530711
1772701752288388000,0.76138818359375,15.290112975513933,-0.766765951083973,-3.4164553341552613
1772701752298436900,0.771436767578125,16.11715533531904,-0.7862333064895123,-4.281399846853316
1772701752308485000,0.781485107421875,16.55856873075366,-1.19223322404176,-4.0889349087581035
1772701752318534000,0.791533935546875,16.9474195797801,-1.7040128258615732,-3.6965728367403146
1772701752328582100,0.80158203125,17.10270483403802,-2.0252214866392313,-3.8594010537236927
1772701752338630000,0.8116298828125,17.131006214892864,-2.444301469712704,-4.218296617208421
1772701752348679200,0.82167919921875,16.950837863790987,-2.5472517027080057,-4.23250926695615
1772701752358727000,0.831726806640625,16.15378381501436,-2.3221347873330114,-4.261536039476097
1772701752368776000,0.84177587890625,14.99067643995285,-2.0575528536625205,-4.1135470797061915
1772701752378824000,0.851823974609375,13.670568823409079,-1.789199292498827,-3.9717964298039674
1772701752388873000,0.861873046875,12.471699230092764,-1.3696215890362857,-3.6258930343613027
1772701752398921000,0.8719208984375,11.330746403694151,-0.9718171798340975,-3.3619317168071863
1772701752408969000,0.881968994140625,10.266142657482623,-0.7358722156483679,-3.294893193539977
1772701752419018000,0.89201806640625,9.47907633423507,-0.5101477628342806,-3.312390271785855
1772701752429066000,0.90206591796875,8.922218696543574,-0.23704740900229662,-3.382358418764174
1772701752439115000,0.912114990234375,8.454647362023591,0.007241860887035727,-3.470157405987382
1772701752449163000,0.9221630859375,8.024473153483868,0.20569559106826782,-3.612103870722651
1772701752459212000,0.9322119140625,7.753643703725934,0.37921595552302895,-3.7598195665091274
1772701752469260000,0.942260009765625,7.550248206293582,0.4285329076061025,-3.8114316803246733
1772701752479308800,0.952308837890625,7.263443773290515,0.4798490341497585,-3.8892245295792818
1772701752489357000,0.962357177734375,6.6670075739264485,0.5195188908349723,-3.7971693462163207
1772701752499404800,0.97240478515625,5.884989766240119,0.582077017285116,-3.3916257210642096
1772701752509454000,0.9824541015625,5.057778479608893,0.9890913360442966,-3.1828496996372935
1772701752519501800,0.992501708984375,4.462150674018264,1.0187097177818416,-2.744619025892019
1772701752529551000,1.002551025390625,3.7526299472659823,0.4822274171862751,-1.5158628283560276
1772701752539598800,1.012598876953125,2.627446352407336,-0.03513643277296796,-0.12201777542829513
1772701752549648100,1.022648193359375,1.2752046449780463,-0.4368775055706501,1.2357225294172762
1772701752559696000,1.03269580078125,-0.6906383316278457,-0.6609275223664939,3.179973267418146
1772701752569744000,1.042743896484375,-3.511940784227848,-0.42139158448409286,7.422652922993898
1772701752579793000,1.05279296875,-7.964425804278254,0.8244223134998232,13.305955759060382
1772701752589841000,1.0628408203125,-15.727100371199846,3.5749338314965367,19.011541728830338
1772701752599890000,1.072889892578125,-27.90628848108053,6.666026161673664,24.349615405678747
1772701752609938000,1.08293798828125,-36.16937983654737,5.983996668437123,27.334471759188173
1772701752619987000,1.092987060546875,-36.9061930593729,2.454170098906755,20.3731363710165
1772701752630035000,1.103034912109375,-34.29092522053718,-0.7528351139523088,8.64348183466196
1772701752640084000,1.113083984375,-26.772369791102406,-3.2095582583427427,-0.6803641903728246
1772701752650132000,1.123132080078125,-18.073039227968454,-0.9163487559165805,0.11464987700879573
1772701752660180000,1.133179931640625,-10.139841505646705,1.5954137733243405,1.41136200491786
1772701752670229000,1.14322900390625,-3.5590550021022556,2.967474426075816,-0.3148153064787388
1772701752680277000,1.153277099609375,0.6683008276134729,2.5163398470938203,-2.0260738656848667
1772701752690326000,1.163325927734375,4.390355603873729,2.010670837108791,-3.019673984390497
1772701752700374000,1.1733740234375,6.892412074071168,1.8070986679352818,-3.879068461745977
1772701752710423000,1.183423095703125,8.279238772669434,1.4044677153594791,-4.566882968124747
1772701752720470800,1.193470703125,8.912064382275938,1.1852372276745735,-5.0730830162465566
1772701752730520000,1.20352001953125,8.96103679523766,1.129973094157502,-5.7230812944501634
1772701752740567800,1.21356787109375,8.95247822572887,0.9388592784103006,-6.562233194243907
1772701752750616000,1.223615966796875,8.970590805524587,0.6318481428764761,-7.225542789441347
1772701752760664800,1.233664794921875,8.8049717887789,0.37819928929377344,-7.619210683360695
1772701752770712800,1.243712890625,8.952422696149348,0.25905337950736285,-7.696872015190124
1772701752780761900,1.253761962890625,9.127463036713003,0.24841836905069647,-7.178090133392811
1772701752790809900,1.263809814453125,9.309965968242286,0.1950285780381411,-6.335874754375219
1772701752800859000,1.27385888671875,8.999423516777158,0.1634195339400321,-5.662915287300944
1772701752810907000,1.283906982421875,8.808173799690604,0.23534378342218695,-5.181801165118813
1772701752820955100,1.293955078125,8.354139992135762,0.19374043792374432,-4.637552249109745
1772701752831004000,1.30400390625,7.33933984901309,-0.06174596981704235,-4.371341106802225
1772701752841052200,1.31405224609375,7.013834806215763,-0.4385826289881021,-4.821968320783973
1772701752851101000,1.324100830078125,6.583540186166763,-0.7596971086762845,-5.056532863461971
1772701752861149200,1.334149169921875,6.081010350990295,-0.6810702197503298,-4.415008399093151
1772701752871198000,1.344197998046875,5.833666406238079,-0.31190606796853243,-3.6181659472405907
1772701752881246000,1.354245849609375,5.538772774803638,0.17508790603242813,-2.550503397980332
1772701752891295000,1.364294921875,5.017365805199742,0.7597600909098983,-0.8187129228770732
1772701752901343000,1.374343017578125,4.291749099171161,1.525580504772067,1.2011053895443677
1772701752911391000,1.384390869140625,1.9735598345935343,2.016763308764994,2.6937305501759052
1772701752921440000,1.39443994140625,-2.948231380945444,2.7081644414588806,3.347804699516296
1772701752931488000,1.404488037109375,-6.433640132078528,3.8229274723291393,3.253172359141707
1772701752941537000,1.414537109375,-6.980777755266428,3.847507494573295,3.037854368725419
1772701752951585000,1.4245849609375,-6.15660773602724,2.8154890901461243,2.7756705822378396
1772701752961634000,1.434634033203125,-6.322552915987372,1.3266324882678686,1.7524352037250994
1772701752971682000,1.44468212890625,-6.976553415569662,-0.11751330361589789,1.232280280008912
1772701752981730800,1.454730712890625,-5.691500745794177,-1.5999999320708214,0.7855763769507408
1772701752991778800,1.46477880859375,-3.644602703267336,-2.732235345137119,0.1250958676993847
1772701753001827000,1.4748271484375,-3.022075784835219,-2.8145933103501797,-0.44615503700375553
1772701753011875800,1.484875732421875,-3.188866183447838,-1.9235180388346313,-1.1145353595942258
1772701753021924000,1.494924072265625,-3.528693181586265,-0.7748369562715292,-1.20374976657331
1772701753031972900,1.504972900390625,-4.518091172426939,0.1908348526753485,-0.6330027197390794
1772701753042021000,1.515021240234375,-6.543194147253036,0.5343892007738351,1.2295745281815529
1772701753052070000,1.52506982421875,-8.872390543535351,0.957206909070909,3.882429462611675
1772701753062118100,1.5351181640625,-10.872102471995353,2.1532385024823246,6.240624574363231
1772701753072166000,1.545165771484375,-12.052966453021764,3.791176827803254,6.3380181961446995
1772701753082215200,1.555215087890625,-12.883526465559004,4.3635102670460935,4.117010371902585
1772701753092263000,1.565262939453125,-13.238812898635864,4.333726246418059,3.547534660178423
1772701753102312000,1.57531201171875,-13.881550830447672,3.9685897427171466,5.012591430404782
1772701753112360000,1.58535986328125,-13.78849494560957,3.1333114694863555,7.1954077634185545
1772701753122409000,1.595408935546875,-13.115025190925598,2.9912258885413405,8.605467453566193
1772701753132457000,1.60545703125,-12.62358958121538,3.5921050387889144,9.870103358256817
1772701753142506000,1.615506103515625,-12.622941930961607,4.067890951685607,12.61528937038183
1772701753152554000,1.625553955078125,-13.736051641666888,3.704510059480369,15.707130765360592
1772701753162602000,1.63560205078125,-14.633105695331096,2.7788851603701707,15.86511884883642
1772701753172651000,1.645651123046875,-13.985897340106963,2.2491861632391807,13.00899525822401
1772701753182699000,1.655698974609375,-12.02917524306774,1.8784267050899564,8.859054676622153
1772701753192747300,1.665747314453125,-9.035136050671339,1.0897900637857616,4.740668340191244
1772701753202795500,1.67579541015625,-5.501461573541164,-0.56628582964167,0.9694061731696129
1772701753212844300,1.68584423828125,0.12358955478966235,-2.1496638588659462,-1.409355341270566
1772701753222892500,1.695892578125,7.650968342149257,-1.650967610502988,-3.8576691153645513
1772701753232941300,1.70594140625,14.954076017308234,-0.6432637823168188,-6.809844850021601
1772701753242989300,1.7159892578125,16.750039397114513,-0.9979097985982894,-8.379208382418751
1772701753253037600,1.72603759765625,14.319133269417286,-1.6483341932594775,-7.372403914225101
1772701753263086300,1.73608642578125,14.03489664107561,-2.26586564149186,-6.724367876005172
1772701753273134600,1.746134521484375,14.458293902826309,-2.4844565160989758,-6.465291407883167
1772701753283183400,1.756183349609375,14.369881459879874,-2.408792349436134,-5.68049244504571
1772701753293231400,1.7662314453125,14.040105900156497,-1.9939298379272221,-5.20925966540873
1772701753303280400,1.7762802734375,14.507141228103636,-2.1608761577539144,-4.7123166904538865
1772701753313328400,1.786328369140625,14.13426536232233,-2.288266273870319,-5.254460743138194
1772701753323377400,1.79637744140625,13.840628452950716,-2.0982722559332845,-5.814578259408473
1772701753333425400,1.80642529296875,13.41148066484928,-2.627246445921063,-5.96283463794291
1772701753343473400,1.816473388671875,11.799341236042975,-3.0795658507734536,-6.1249003461211915
1772701753353522200,1.826522216796875,9.745276955148578,-3.0591403178602454,-6.02132072918117
1772701753363570400,1.8365703125,8.766880250793696,-2.6228829900145527,-5.613155523353814
1772701753373619200,1.846619140625,7.9799267402708525,-2.0403698098018763,-5.353657030427455
1772701753383667500,1.85666748046875,7.070947271013259,-1.723691778191179,-5.339257333675026
1772701753393716200,1.86671630859375,6.270700563675165,-1.4960354074664413,-5.505753133255243
1772701753403764500,1.876764404296875,5.668504485610127,-1.2534507860705255,-5.810206035673618
1772701753413812500,1.8868125,5.307883121246099,-0.9983398605786263,-6.039978667899966
1772701753423861500,1.896861572265625,5.343938184967636,-0.7924971161246299,-6.082484515196085
1772701753433909500,1.906909423828125,5.57090394307971,-0.4511882088653743,-6.1107958329230545
1772701753443958500,1.91695849609375,5.8519748008668415,-0.0777243871282786,-6.114861182665824
1772701753454006500,1.927006591796875,6.175275027096271,0.15898513168916106,-5.976357551860809
1772701753464055300,1.93705517578125,6.254034675556421,0.2502919809028506,-5.86204962015748
1772701753474103600,1.947103515625,6.406691334876418,0.2511825000017881,-5.82275279803574
1772701753484152300,1.95715234375,6.713209353131055,0.08802643930353224,-5.896044244217872
1772701753494200600,1.96720068359375,7.126644608315825,-0.09213460527472198,-5.931508356308937
1772701753504249300,1.977249267578125,7.452908945047855,-0.10537176105380058,-5.739559551042318
1772701753514297600,1.987297607421875,7.674457938808202,-0.22766141222603617,-5.6770086945831775
1772701753524345300,1.997345458984375,7.739515809652209,-0.47159459868669507,-5.570957134571671
1772701753534394600,2.00739453125,7.370121940767764,-0.5174236721213906,-5.031306652268767
1772701753544442400,2.0174423828125,6.368031057092547,-0.5964328383632004,-3.799062028095126
1772701753554491400,2.027491455078125,4.79052981094718,-0.6797652015663683,-2.0394839668780564
1772701753564539400,2.037539306640625,2.2514380338191984,-0.21965470444634555,0.3536258063882589
1772701753574588400,2.04758837890625,-1.4921926144331692,0.23224779016822575,3.556449203518033
1772701753584636400,2.057636474609375,-6.724434511500597,0.5787916754715144,7.2726663596659895
1772701753594685400,2.067685546875,-12.766288910144567,0.8296730005696415,11.677992153656483
1772701753604733400,2.0777333984375,-19.55039375423193,2.1038804512038825,16.92927602032423
1772701753614781400,2.087781494140625,-25.74114925905466,3.8976428138345476,21.073475427925587
1772701753624830500,2.09783056640625,-30.228472368252277,3.439619352121651,24.310527257871627
1772701753634878500,2.10787841796875,-32.95096256444454,1.5136010209038853,26.994062577247618
1772701753644927500,2.117927490234375,-33.2145188083291,1.2351945600204168,24.825495718860626
1772701753654975500,2.1279755859375,-29.344343262612817,1.8290870662510395,19.254625678050516
1772701753665024500,2.1380244140625,-24.465624296081064,1.9574952733688056,14.33441968587637
1772701753675072500,2.148072509765625,-20.8925822696805,2.0691993061840535,10.4373561332345
1772701753685121300,2.158121337890625,-17.402100453066826,1.1099733854409306,7.41045219759047
1772701753695169500,2.16816943359375,-13.065588667583464,0.3727436907690018,4.684643670630455
1772701753705217300,2.17821728515625,-9.207987356758117,0.5985662701953202,3.0451287436425685
1772701753715266600,2.1882666015625,-6.70072513461113,0.8668974003314971,2.474460607263446
1772701753725314300,2.198314208984375,-4.677538807061314,0.29417729985862967,1.4982213732033967
1772701753735363600,2.208363525390625,-3.165449067503214,-0.3266611540298909,0.3170049254775047
1772701753745411300,2.218411376953125,-1.0204057080447673,0.17710695423725992,-0.963766121456027
1772701753755460600,2.228460693359375,1.8125240539848804,0.34313846077397464,-2.480564184835553
1772701753765508400,2.23850830078125,4.971296127942204,0.2906047386014834,-4.271819240820408
1772701753775557600,2.2485576171875,8.33211871446371,0.060148909883946174,-5.983792670297622
1772701753785605400,2.25860546875,11.191387032842636,-0.4819957638548687,-6.602426672944426
1772701753795653400,2.2686533203125,13.21216688377261,-0.8112576384350657,-6.88405341104865
1772701753805702400,2.278702392578125,14.205518580675124,-1.2236057559702544,-7.589189054584502
1772701753815750400,2.28875048828125,14.90078164949417,-1.7607248931646347,-8.359690027478337
1772701753825799400,2.29879931640625,15.687636960339546,-2.1446455923125147,-9.456553536781668
1772701753835847400,2.308847412109375,16.11229094415307,-2.5185680445373055,-9.658583006557821
1772701753845896400,2.318896484375,15.217486130720376,-2.225644251871109,-8.575871356725692
1772701753855944400,2.3289443359375,14.424334350079297,-1.2900950478568671,-7.85290721103251
1772701753865993500,2.338993408203125,13.811066842901706,-0.7184222644798457,-7.491016265124082
1772701753876041500,2.34904150390625,13.85893334044814,-0.5287418425366283,-7.096487954983115
1772701753886089200,2.359089111328125,13.78668292775154,-0.4881782884147018,-6.795940243309736
1772701753896138500,2.369138427734375,11.958824526512622,-0.7529610053543001,-5.9903030751049515
1772701753906186200,2.379186279296875,10.108981087958812,-1.098569947895035,-5.448657619592547
1772701753916235500,2.389235595703125,9.500651621705293,-0.8723069312248378,-5.200876452466845
1772701753926283300,2.399283203125,8.961220919632911,-0.3484218080043793,-5.197904743179679
1772701753936332500,2.40933251953125,8.484873573461174,-0.08563285869788378,-5.254071451559662
1772701753946380300,2.41938037109375,7.882850513875484,-0.09219853735640644,-5.1002936792552465
1772701753956429600,2.4294296875,7.18635293482542,0.03737893273644149,-4.718848138049244
1772701753966477300,2.439477294921875,6.394150417733192,0.2318241579286754,-4.364987938383221
1772701753976525300,2.449525390625,5.500251613229513,0.4783334419550374,-4.091465596279502
1772701753986574300,2.45957421875,4.746855504393578,0.4772283302573487,-3.9416351002961396
1772701753996622300,2.469622314453125,4.1586096257478,0.3049318450417369,-3.8356449150830505
1772701754006671400,2.47967138671875,3.775860600727796,0.19434359144866464,-3.6957448614835737
1772701754016719400,2.48971923828125,3.5569869636565445,-0.013289141694642603,-3.4835417882174253
1772701754026768400,2.499768310546875,2.8727251813232897,-0.45664797210860997,-3.1982249634236095
1772701754036816400,2.50981640625,1.668432393914461,-0.6151772863216698,-2.536065122783184
1772701754046865400,2.519865478515625,0.7853145111441612,-0.39676217014025894,-1.42932202450037
1772701754056913400,2.529913330078125,0.12267302446663379,-0.6074406276550144,0.019935119047760963
1772701754066961400,2.53996142578125,-1.5631711074978112,-0.9698802204221486,2.1606834116607905
1772701754077010400,2.550010498046875,-3.6097067464530466,-1.0445860634468496,4.541850233677029
1772701754087058400,2.560058349609375,-6.575642126393317,-0.6726002783730626,7.480160524588823
1772701754097107500,2.570107421875,-11.48530334367752,0.7505131007455289,11.653501855522393
1772701754107155200,2.5801552734375,-18.720587774932383,3.1162749944895505,16.462845088011026
1772701754117204500,2.59020458984375,-26.196739648401735,3.501955396786332,19.957450122034547
1772701754127252200,2.600252197265625,-28.383386937880516,2.6747373881533743,19.728960515356064
1772701754137301500,2.610301513671875,-22.449851459658145,3.885978679525852,16.67896621150374
1772701754147349200,2.620349365234375,-17.40770017277002,3.7014246606856585,12.639646397525071
1772701754157398500,2.6303984375,-15.479385839569568,1.6932327809110284,8.421745209375024
1772701754167446300,2.6404462890625,-13.343684308952092,0.8752058675367385,5.439181935238838
1772701754177494500,2.65049462890625,-10.595165353012085,1.101534862115234,4.381572577959298
1772701754187543300,2.660543212890625,-8.295410739791393,0.45943537433743475,4.080266741394996
1772701754197592300,2.67059228515625,-5.959060380101204,0.2982460471348837,3.6957962994098663
1772701754207641300,2.680641357421875,-3.7149621876507997,0.41387174690589307,2.798917017790675
1772701754217689300,2.690689453125,-1.40822896758914,0.5382716316977515,1.2251035202473401
1772701754227738400,2.70073828125,0.9438041144013404,0.5529129917189478,-0.4476858998328447
1772701754237786400,2.710786376953125,3.022624650889635,0.4317523080440238,-1.883968995517492
1772701754247835400,2.72083544921875,4.576052363008261,0.22329258602466434,-3.0313205830425023
1772701754257883400,2.73088330078125,5.752724153041839,0.11484690655139274,-3.9344139168709513
1772701754267931100,2.74093115234375,6.532055498123168,0.13082049242388458,-4.615993912774324
1772701754277980400,2.75098046875,7.027953347939253,0.010203094445960596,-4.9432928532511
1772701754288028200,2.761028076171875,7.456269945913553,-0.17374995369324459,-5.29874295245707
1772701754298077400,2.771077392578125,7.982128634229302,-0.16392943795723838,-5.781403719559312
1772701754308125200,2.781125244140625,8.441274670231342,-0.03263608559090644,-6.055145257371664
1772701754318174500,2.791174560546875,8.71254192688465,0.09712535363356582,-6.149163265240192
1772701754328222200,2.80122216796875,9.093021253407,0.2400610212024301,-6.1909554113090035
1772701754338271500,2.811271484375,9.43426396356225,0.22261837655752895,-6.021577918812632
1772701754348319200,2.8213193359375,9.44715091766417,0.05261670601451769,-5.607656925937533
1772701754358367500,2.831367431640625,9.011060763078927,-0.08875994120985269,-5.334200634807348
1772701754368416300,2.841416259765625,8.14496649582386,-0.16491972763622179,-4.6753427583217615
1772701754378464300,2.85146435546875,7.34470926709175,-0.1264525612716563,-3.5617677681922912
1772701754388513300,2.86151318359375,6.563103547337651,-0.05145474956305697,-2.56382348280251
1772701754398561300,2.871561279296875,5.35610968427658,0.117453043062333,-0.9584095628589391
1772701754408610300,2.8816103515625,3.6890368882775304,0.434858347767964,1.2129343590259551
1772701754418658300,2.891658203125,1.9263620300889015,1.1629458278242497,3.944527314606309
1772701754428707300,2.901707275390625,-0.0008908113598823546,1.2340579572059214,6.6379761252313845
1772701754438755300,2.91175537109375,-4.845766545000672,0.5047430542465299,8.741420230844616
1772701754448804400,2.921804443359375,-9.965177012658119,1.1678335268005728,8.394470833480357
1772701754458852400,2.931852294921875,-10.057949988901614,2.202844829433411,4.96956945028007
1772701754468900400,2.941900390625,-6.628235067939758,1.8039678225636482,2.361196047133207
1772701754478949400,2.951949462890625,-3.7205659990072246,-0.5097170432668179,0.8274860119193792
1772701754488997000,2.9619970703125,-1.7044447875380515,-2.9846333584085105,-0.3634533729195595
1772701754499046400,2.97204638671875,-0.008403671208024025,-1.1335174157008527,-2.510506903156638
1772701754509094100,2.98209423828125,1.0958505328685044,1.4333414892747998,-3.7326124106317757
1772701754519143400,2.992143310546875,1.181128769442439,-0.22419675005646422,-2.472596566957235
1772701754529191200,3.002191162109375,0.7560626976966858,-1.0835402096107603,-1.2805197025209665
1772701754539240400,3.012240478515625,0.3115484136372804,-0.9982256596144288,-1.006795700365305
1772701754549288200,3.0222880859375,0.15907295610308647,-0.5455787033081054,-0.961565396541357
1772701754559336400,3.03233642578125,0.26741934905350206,0.0044031120634637775,-1.1387824966222047
1772701754569385200,3.04238525390625,0.4248328475117683,0.40325054577887054,-1.503842135694623
1772701754579433500,3.05243359375,0.3822235398411751,0.511724766360037,-1.9497697936832903
1772701754589482200,3.062482177734375,0.5329682280600071,0.48619862237218764,-2.2979086930930612
1772701754599530200,3.0725302734375,0.7360802323758602,0.5408605156797915,-2.614436064186692
1772701754609579300,3.082579345703125,1.0551818378716706,0.5082581862280146,-3.016820348525047
1772701754619627300,3.092627197265625,1.3480629604399204,0.29416266854507844,-3.455845387518406
1772701754629676300,3.10267626953125,1.7376935616672038,-0.1827380371931009,-3.8427749130934474
1772701754639724300,3.112724365234375,2.1539134791344403,-0.718795262510702,-4.081325310537219
1772701754649773300,3.122773193359375,2.224219187504053,-1.007637923343107,-4.005525680926442
1772701754659821300,3.1328212890625,1.9301883103787898,-0.9930889543130993,-3.7971483034282922
1772701754669869300,3.142869384765625,1.4006833745151757,-0.8809919766575097,-3.3144857827603813
1772701754679918300,3.15291845703125,0.49484921754598615,-0.9137523827478289,-2.3080039706498385
1772701754689966300,3.16296630859375,-1.27885323061347,-0.8379320026099681,-0.774988347440958
1772701754700015400,3.173015380859375,-4.016483712792397,0.08530074066668748,1.2758762606292962
1772701754710063000,3.18306298828125,-7.021773782521485,1.4397723991051314,2.92324716181457
1772701754720112400,3.1931123046875,-9.503339837875961,1.8761220814093946,4.437234259426593
1772701754730160000,3.20316015625,-11.416811406731604,2.143193347677588,5.487213267958164
1772701754740209400,3.21320947265625,-12.958441129028797,2.4670614369228483,5.703596257257461
1772701754750257200,3.223257080078125,-13.580517381083965,0.10214580301092938,5.143785030457377
1772701754760306400,3.233306396484375,-12.92320381143093,-1.876651073719561,4.391332924473286
1772701754770354200,3.243354248046875,-11.076348448777198,-2.1879861368671056,4.291728056383133
1772701754780402400,3.25340234375,-8.963559007191657,-2.3453861913219094,5.264812041282654
1772701754790451200,3.263451171875,-7.353817871698737,-2.0637816650494933,6.281292100316286
1772701754800499500,3.27349951171875,-7.977877991047501,-0.5548720168322324,8.171218542933463
1772701754810548200,3.28354833984375,-8.289797576084732,0.830433901939541,9.686295773869752
1772701754820596200,3.29359619140625,-7.833276043367386,1.7488247581429779,10.717208847403526
1772701754830645200,3.303645263671875,-7.623555434566736,1.8755267458647489,10.819154141139984
1772701754840693200,3.313693359375,-6.33508974147737,1.5328925813511014,10.147014758276939
1772701754850742300,3.3237421875,-3.683164781373739,1.3200333822637795,9.099006757557392
1772701754860790300,3.333790283203125,-1.4506903912216425,1.1366833323858678,7.52119454576671
1772701754870839300,3.34383935546875,0.41033261299431323,0.6937327174466102,5.9922705757856365
1772701754880887300,3.35388720703125,2.5179905369102955,0.3375467782467603,4.4407925364300604
1772701754890935300,3.363935302734375,4.461458600100874,0.1328136755350977,2.7109517340898512
1772701754900984300,3.373984375,5.997177637049555,0.2510007136940956,1.2039160630509256
1772701754911032300,3.3840322265625,7.0220280495435,0.6311027313366532,-0.03099894937574863
1772701754921081300,3.394081298828125,7.962637167295813,0.8484415600560605,-1.0944365744173525
1772701754931129300,3.40412939453125,8.864824492195249,0.9976651761874556,-2.154477250497043
1772701754941178400,3.414178466796875,9.469553888130188,1.0829892977297306,-3.1582167781621218
1772701754951226000,3.42422607421875,9.856963306176661,0.9972004082199185,-4.072763526158035
1772701754961275400,3.434275390625,10.006575190973281,0.6501910242967307,-4.907265846580267
1772701754971323100,3.4443232421875,10.174186842840909,0.15004913456956856,-5.598152600011229
1772701754981371400,3.454371337890625,10.14115784894228,-0.20755389575343577,-6.291910524964332
1772701754991420200,3.464420166015625,10.082247394812107,-0.592848805863969,-6.9115586730897425
1772701755001468400,3.474468505859375,10.009369205605983,-0.9098412006534635,-7.3242521699965
1772701755011517200,3.48451708984375,9.692246206706761,-0.9592661796882748,-7.449024212568998
1772701755021565400,3.4945654296875,9.418222344821691,-0.9140195092514157,-7.153646012488007
1772701755031614200,3.5046142578125,9.309936742147803,-0.8509287006966769,-7.058308738714456
1772701755041662200,3.514662109375,9.222988526535033,-0.656232204157114,-7.146859128826856
1772701755051711200,3.524711181640625,9.091471685877442,-0.48383046846874056,-7.0782742529004805
1772701755061759200,3.53475927734375,8.91717076550424,-0.5373129062008112,-6.989411728098988
1772701755071808300,3.544808349609375,8.678325184506177,-0.473410269806534,-6.879343918183445
1772701755081856300,3.554856201171875,8.665441153013706,-0.41187794274017214,-6.757167152801156
1772701755091904500,3.564904541015625,8.615635211837292,-0.3061027154520154,-6.55732437941432
1772701755101953300,3.574953369140625,8.391599661958217,-0.1793392798665911,-6.230543325331807
1772701755112001500,3.58500146484375,8.210935051771997,-0.28170060705803335,-5.692151903179288
1772701755122050300,3.59505029296875,8.033228706869483,-0.4043417750816792,-4.986639243024587
1772701755132098600,3.6050986328125,7.67405228061676,-0.2179240081962198,-4.248311523982882
1772701755142147300,3.615147216796875,7.004221174696087,0.14119177391044796,-3.5482319947928187
1772701755152195300,3.6251953125,6.502237282964587,0.07548091905042528,-3.049121028149128
1772701755162244400,3.635244384765625,5.856010339993238,-0.5796542105849832,-2.039641203266382
1772701755172292400,3.645292236328125,4.293443043607473,-0.91594653179124,0.23969956747889518
1772701755182341400,3.65534130859375,1.784986058717966,-0.6385524628207088,3.1228298229604956
1772701755192389000,3.66538916015625,-2.3833517648398876,-0.027463249530270694,6.378256683030724
1772701755202436900,3.675436767578125,-8.483814419797062,0.7175128214847296,11.257904454845189
1772701755212486100,3.685486083984375,-15.835815597462654,1.774991318926215,19.934441002368924
1772701755222534000,3.695533935546875,-20.844284394979475,1.8528277150616048,28.10683326525688
1772701755232583200,3.705583251953125,-23.632264423692224,1.9277515847511588,28.730801030147074
1772701755242631000,3.715630859375,-24.89281393585205,2.358583526547253,20.321670387673375
1772701755252680000,3.725679931640625,-23.956274259495732,3.1485376801908016,11.950531329941748
1772701755262728000,3.73572802734375,-18.709825557899475,0.8192804205667227,6.109682318723201
1772701755272777000,3.74577685546875,-14.125405179518461,-1.5364388756558298,2.343842761272192
1772701755282825000,3.755824951171875,-10.568249289035796,-2.3087252706617116,0.3040881607592106
1772701755292874000,3.7658740234375,-5.754655997887253,-1.0317585113819687,-0.8926713085353374
1772701755302922000,3.775921875,-2.4776462515622377,-0.5732032808799297,-1.4576865337193012
1772701755312971000,3.785970947265625,-0.5258855763226747,-1.1422116673532872,-1.4774579866379498
1772701755323019000,3.79601904296875,1.1857149281889199,-1.4852715829983352,-1.8481968403905629
1772701755333067000,3.80606689453125,2.755886269837618,-1.666244528481364,-2.891389549782872
1772701755343116000,3.816115966796875,4.0752620649755,-1.5410247421413659,-4.116457998716831
1772701755353164000,3.8261640625,4.941562083935738,-1.2201806768923997,-5.040599965792894
1772701755363213000,3.836213134765625,5.512489748033881,-0.8748270242869853,-5.545916216817498
1772701755373261000,3.846260986328125,5.609848883023858,-0.6936661550164223,-5.58444380813241
1772701755383310000,3.85631005859375,5.37073325291276,-0.48305736520439385,-5.574727300760149
1772701755393358000,3.866358154296875,5.747636474514008,-0.19344635034799576,-5.6170583760112525
1772701755403407000,3.876406982421875,5.627563403412699,0.1135255491539836,-5.335834373489022
1772701755413455000,3.886455078125,5.573185916537046,0.16476378815583884,-4.615749582624435
1772701755423504100,3.896504150390625,5.58481731761992,0.11807115669436752,-4.326231214487552
1772701755433552100,3.90655224609375,5.471921590802073,0.30254370779618617,-3.9947652174592014
1772701755443600000,3.916599853515625,5.191510073706508,0.37937918326072395,-3.526777118831873
1772701755453649200,3.926649169921875,4.72661468039751,0.40690994506925343,-3.155472447890043
1772701755463697000,3.93669677734375,4.073744646149874,0.5967758796472102,-2.8024954607993364
1772701755473746200,3.94674609375,3.3630005150824784,0.7369714090619236,-2.108811185604334
1772701755483794000,3.9567939453125,2.5038854391902685,0.8096131591636687,-0.9563935468614101
1772701755493843200,3.96684326171875,1.4321061022609471,0.5864389022890478,0.30795944923460483
1772701755503891000,3.976890869140625,-0.9930068289875984,-0.05443524494487792,1.4279881455481052
1772701755513940000,3.98693994140625,-4.46282930393219,-0.21817630245685576,2.329109302520752
1772701755523988000,3.996988037109375,-6.755066381129622,0.27311357863973823,2.3904911152005193
1772701755534037000,4.007037109375,-6.017164194023609,0.47315596625190226,1.5887772579193113
1772701755544085000,4.0170849609375,-3.782273390379548,0.2735154739715159,1.0180828180551529
1772701755554133000,4.027133056640625,-2.3157594070822,0.2038714443810284,0.28603461767435073
1772701755564182000,4.03718212890625,-1.578403163421154,-0.4403935508675873,-0.6150625739008188
1772701755574230000,4.04722998046875,-0.7926882547825574,-1.96781427667886,-1.083775479671359
1772701755584279000,4.057279052734375,-0.06036532911360264,-2.0699507090732454,-1.8679566028714178
1772701755594327000,4.0673271484375,0.7515612946242094,0.11508768390417098,-3.422809963878989
1772701755604376000,4.0773759765625,1.2199720025777816,0.907032719103992,-4.3407489846616985
1772701755614424000,4.087424072265625,1.249697278755903,0.4703943560514599,-3.3003310006797313
1772701755624473000,4.09747314453125,1.1001385854512453,0.27572474751882253,-2.377086274704337
1772701755634521000,4.10752099609375,1.2362696419060228,0.15090411656424402,-1.9260317752212286
1772701755644570000,4.117570068359375,1.732111377620697,0.3624810207560658,-1.9401275205910204
1772701755654618000,4.1276181640625,2.309645308116078,0.5251026823166758,-2.3027906199157235
1772701755664667100,4.137667236328125,2.879050292691588,0.3369714625768363,-2.8271318894058464
1772701755674715100,4.147715087890625,3.2762510369122024,0.1680767851613462,-3.3000416623443365
1772701755684763000,4.157762939453125,3.3423283139318225,0.09076039431206881,-3.425056866022944
1772701755694812200,4.167812255859375,3.279228591418266,0.12377360611967742,-3.225301770919561
1772701755704860000,4.17785986328125,2.8332991798639298,0.18928776936382055,-2.6887445784568786
1772701755714909200,4.1879091796875,2.077214270335436,0.3293279620863497,-1.9438538476377725
1772701755724957000,4.19795703125,1.1213736811816692,0.6981990492057055,-1.4016484201550483
1772701755735006200,4.208006103515625,0.12355214538872242,0.7265631200332194,-1.058068206962943
1772701755745054000,4.218053955078125,-0.9209060538947582,0.32798063913062214,-0.682470807263255
1772701755755103200,4.228103271484375,-1.8668524410218,-0.08416413785219191,-0.2904869209080934
1772701755765151000,4.23815087890625,-3.178932818454504,-0.4469137464165687,0.2157780091434717
1772701755775200300,4.2482001953125,-5.090983414596319,-0.5757394482940436,1.3843804744899273
1772701755785248000,4.258248046875,-6.666394994986057,-0.7096563358306884,2.8337714735507964
1772701755795297000,4.268297119140625,-8.01959999448955,-0.4667150099515915,4.132485004410148
1772701755805345000,4.278344970703125,-9.098614543369411,-0.11125687356963752,5.004806767877936
1772701755815393000,4.28839306640625,-9.503072126850485,0.216136467192322,5.634655407500267
1772701755825442000,4.298442138671875,-9.733748429918288,0.5719451705776155,6.06057955738008
1772701755835490000,4.308489990234375,-9.964276848948002,0.6981102749437094,6.601015637102723
1772701755845539000,4.3185390625,-10.151653523993492,0.8882064380809664,7.205815760186314
1772701755855587000,4.328587158203125,-10.517304699218272,1.121569788275659,8.238628529861568
1772701755865636000,4.338635986328125,-11.004496680009364,1.3795479397669435,9.823245745491981
1772701755875684000,4.34868408203125,-11.492238111376762,1.7770342229306697,11.305710162115096
1772701755885733000,4.358733154296875,-11.769200949323176,2.0759648547962306,11.932282556545733
1772701755895781000,4.368781005859375,-11.823400157022476,2.1785491770885885,11.662083805906772
1772701755905830100,4.378830078125,-11.417496466386318,2.083794087117165,10.673310084444283
1772701755915878100,4.388878173828125,-10.072961680072545,1.8052059860564766,9.509586038789152
1772701755925927000,4.398927001953125,-8.257279454317688,1.3789125644728542,8.295207326173783
1772701755935975200,4.40897509765625,-6.3533998896718025,0.9915570685707032,6.9448752517580985
1772701755946023000,4.41902294921875,-4.077636977413296,0.6559523643024265,5.61118685362935
1772701755956072200,4.429072265625,-1.6002870784491299,0.5457423694372177,4.190870557883382
1772701755966120000,4.439119873046875,1.0701882683455943,0.48221696885749693,2.4906506945639846
1772701755976169200,4.449169189453125,3.8116806866496797,0.6203457750007509,0.440270070618391
1772701755986217000,4.459217041015625,6.407887851184606,0.5639166162922978,-1.5676321785598992
1772701755996266200,4.469266357421875,8.738226987761259,0.32614246391803026,-3.1703619739860294
1772701756006314000,4.47931396484375,10.95372277058363,0.03174903709068894,-4.390898624709248
1772701756016363300,4.48936328125,12.732025406014918,-0.21736761642247437,-5.363453032776713
1772701756026411000,4.499410888671875,13.858939185667037,-0.46127632602900265,-6.427443031004071
1772701756036460000,4.5094599609375,14.239930553364752,-0.6794694334901868,-7.084288398623466
1772701756046508000,4.519508056640625,14.199067797100543,-1.1025161282375455,-7.445301392653584
1772701756056557000,4.52955712890625,14.028749808883665,-1.4920127278216182,-7.7348343738377086
1772701756066605000,4.53960498046875,14.019071295434236,-1.730449289627373,-8.129848421669006
1772701756076653000,4.549653076171875,14.191746075910329,-1.9098691604495048,-8.015261673024296
1772701756086702000,4.5597021484375,14.066580065584182,-1.8252571326993405,-7.8585653829246755
1772701756096750000,4.56975,14.058712400949,-1.7578899619996546,-8.6173519526273
1772701756106799000,4.579799072265625,13.766954144930839,-1.7958736556962132,-8.520289754757284
1772701756116847000,4.58984716796875,13.168632862472533,-1.6323238464400172,-8.169517584234475
1772701756126896000,4.599896240234375,12.171012986731528,-1.2135514680109918,-7.4953691996365785
1772701756136944000,4.609944091796875,11.330594428002833,-0.9430020773034542,-6.82053107920885
1772701756146993000,4.619992919921875,10.444861394298076,-0.707611751325801,-6.178109958261251
1772701756157041200,4.630041259765625,9.478857723048328,-0.5136442266479134,-5.477859164157509
1772701756167090000,4.64008984375,8.382449556297063,-0.4323351129006594,-4.740813886141777
1772701756177138200,4.65013818359375,7.215369185951352,-0.45165655702948565,-3.8022383200436827
1772701756187186000,4.66018603515625,5.814799208682775,-0.5296371108759195,-2.6939871552854773
1772701756197234700,4.670234619140625,4.136102025863528,-0.4690819582786411,-1.483576761779189
1772701756207282700,4.68028271484375,2.2332447900027037,-0.384308821682632,-0.2310416292488575
1772701756217331700,4.690331787109375,0.024907646763324735,-0.4009105585239827,1.1559499045222996
1772701756227379500,4.70037939453125,-2.3247136979103087,-0.34002442040666936,2.4846885712891815
1772701756237428700,4.7104287109375,-4.703912434723973,0.15994827763289213,4.066255751699209
1772701756247476500,4.7204765625,-7.5172390861392016,0.7078448294293135,6.2108870232254265
1772701756257525800,4.73052587890625,-10.680686750692129,1.1104763665270059,9.12187617649138
1772701756267573500,4.740573486328125,-13.650870435726642,1.3531342723548412,11.855955688190459
1772701756277622800,4.750622802734375,-16.33573729596734,1.454983266109973,14.138919325608015
1772701756287670500,4.76067041015625,-18.90220574032068,1.7303969749182462,16.50789419004917
1772701756297719800,4.7707197265625,-19.74316205918789,1.4429535133592784,16.0781022588253
1772701756307767600,4.780767578125,-17.63346590744257,0.288046907344833,11.620089415264129
1772701756317816800,4.79081689453125,-14.325195930457115,-0.9994390539921819,8.879830338147283
1772701756327864600,4.800864501953125,-10.65518756777644,-1.5738668351657688,5.917137885650992
1772701756337912600,4.81091259765625,-7.877229751384258,-0.9637695555221288,2.243147175335884
1772701756347961600,4.820961669921875,-5.506524702149629,-0.503858307301253,0.1518769071191549
1772701756358009600,4.831009521484375,-4.141462091591954,-0.627362448829785,-0.4734925412625074
1772701756368058600,4.84105859375,-3.2686049060732123,-0.4728207794807851,-1.2029630001097917
1772701756378106600,4.851106689453125,-1.6200421647548675,-0.24038345808982847,-2.1410639344334603
1772701756388155600,4.86115576171875,0.4473474616587162,-0.20538382170535624,-2.819829457437992
1772701756398203600,4.87120361328125,2.2761884441941973,-0.04288052582740783,-3.755913206720352
1772701756408252700,4.881252685546875,3.9626895787626504,0.23572171335648745,-4.916057640323043
1772701756418300700,4.89130078125,5.215764809519052,0.34962683641258624,-5.934668866166472
1772701756428349700,4.901349609375,6.090734457147121,0.5719434535445646,-6.392894280192255
1772701756438397700,4.911397705078125,6.115763099941611,0.5119360710231587,-6.412964423796534
1772701756448446700,4.92144677734375,5.4489510495811695,0.3667218001309782,-6.457365875580907
1772701756458494700,4.93149462890625,4.740217089292407,0.2570319932149723,-6.234294786819815
1772701756468543700,4.941543701171875,4.3680256986439225,0.24853262481382116,-5.8103872374594205
1772701756478591700,4.951591796875,4.482324277997017,0.15712090871986,-5.182022114393114
1772701756488639500,4.961639404296875,4.770281972688436,0.04943038586229086,-4.578819489634037
1772701756498688800,4.971688720703125,4.222926322835684,0.04454164570635184,-3.8618355873942374
1772701756508736500,4.981736572265625,3.23835882089138,0.3715246703680605,-3.108427788120508
1772701756518785800,4.991785888671875,2.7602421269595623,0.6079959599828347,-2.7151018395066258
1772701756528833500,5.00183349609375,2.223924003949761,0.495557548478432,-2.24300513651669
1772701756538882800,5.0118828125,1.5330594623506069,0.030656236885301766,-1.530097689935565
1772701756548930600,5.0219306640625,0.5561842684745788,-0.16464589739721266,-0.5352122075945138
1772701756558979800,5.031979736328125,-0.49558922225832935,0.12174177149850875,0.5286877742618322
1772701756569027600,5.042027587890625,-1.6498223859906196,0.5241712101528421,1.6507184580475092
1772701756579076900,5.052076904296875,-2.640264917448163,0.9269251680538058,2.572115510329604
1772701756589124600,5.06212451171875,-3.4258582455337048,1.2816745716445148,3.23623291477859
1772701756599173600,5.072173583984375,-4.076773638582229,1.6051818647533653,3.520355561351776
1772701756609221600,5.0822216796875,-4.299274233978987,1.7411381491631268,3.078351214286685
1772701756619269600,5.09226953125,-3.8726597637474534,1.6536358067989347,2.032028390175104
1772701756629318700,5.102318603515625,-2.193866134816408,1.1742955624215303,0.6113368313759565
1772701756639366700,5.11236669921875,-0.7931272307217121,0.6940713748164474,-0.7493231603085995
1772701756649415700,5.122415771484375,0.29767420206367967,0.34838246237467974,-1.956530958381295
1772701756659463700,5.132463623046875,1.3415373580634593,0.20213216296564787,-2.9263907205373045
1772701756669512700,5.1425126953125,2.227093281635642,0.039330432130396366,-3.5908962475210426
1772701756679560700,5.152560791015625,3.0039830787837505,0.1121477945273742,-4.3114194298028945
1772701756689609700,5.162609619140625,3.481989882600307,0.39771402750499546,-4.887909404203295
1772701756699657700,5.17265771484375,3.7028362810492514,0.16990582721941172,-5.0591556131809945
1772701756709706500,5.18270654296875,3.8407904612779613,-0.3144650317363441,-5.230902172896266
1772701756719754800,5.192754638671875,3.9841573142051696,-0.6909091844584793,-5.420719811353087
1772701756729803500,5.202803466796875,4.016526382890343,-0.9531349103916436,-5.484819650819897
1772701756739851800,5.212851806640625,3.9421629235625266,-1.132526578032598,-5.274638438770174
1772701756749900500,5.222900634765625,3.581238776859641,-0.9693761433575302,-5.124693961018323
1772701756759948800,5.23294873046875,2.940741317451,-0.6702768769267946,-4.798572247627377
1772701756769996500,5.24299658203125,1.9316589674532412,-0.35494383018426595,-3.8972985304415224
1772701756780045800,5.2530458984375,-0.06446984182298184,0.2933293777924031,-2.415197101911902
1772701756790093600,5.263093505859375,-3.6359769137412306,1.216199717497453,0.3751993402928114
1772701756800142800,5.273142822265625,-8.69642899647355,2.129143487276137,4.545285468822717
1772701756810190600,5.283190673828125,-14.298006310236453,2.5234336047470567,9.21339243067205
1772701756820239600,5.293239501953125,-19.252727150952815,1.8748162595078348,12.065599140101671
1772701756830287600,5.30328759765625,-23.575180015945435,0.6203325501929968,14.26565536172986
1772701756840336600,5.313336669921875,-27.012769615805148,-1.395143860566616,14.743722955822944
1772701756850384600,5.323384521484375,-28.93832734377384,-3.1362042683184144,14.349841711413859
1772701756860433700,5.33343359375,-28.61864530804157,-5.320874704766273,14.31996329050064
1772701756870481700,5.343481689453125,-26.038549320352075,-6.340235872194171,13.013816394770144
1772701756880529700,5.35352978515625,-22.51263612487316,-5.754125836533308,11.159621775269507
1772701756890836700,5.363836669921875,-17.69627512257695,-4.328428432270885,10.707682309645413
1772701756900626700,5.373626708984375,-12.469991257131099,-2.9647037923187014,10.618408281433581
1772701756910675700,5.38367578125,-8.442102353227138,-1.458190391588211,9.596896073451637
1772701756920723700,5.3937236328125,-5.76866874114871,0.353265740904212,8.054357419615984
1772701756930772700,5.403772705078125,-3.5509283942699432,1.3989676566384732,7.14918318786025
1772701756940820700,5.41382080078125,-0.8752665847480297,1.5014111091554163,6.446501367217302
1772701756950869500,5.423869384765625,2.304935230728984,1.1986483517810702,5.091039528697729
1772701756960917800,5.433917724609375,6.041072892877459,0.5796830348206684,3.638893093448877
1772701756970966500,5.443966552734375,9.757093065148592,0.42643502201139927,2.3290002891883255
1772701756981014800,5.454014892578125,13.040872743999957,0.4480855666749179,1.0066244354516267
1772701756991063600,5.4640634765625,15.540863513839245,0.3920231223870069,-0.4293009328365326
1772701757001111800,5.47411181640625,17.64874063346386,0.13146132934438065,-1.86830731600523
1772701757011160600,5.48416064453125,19.664041176199913,-0.27977583127422256,-3.4162305854886768
1772701757021208800,5.494208740234375,20.891240207421777,-0.30575086980704214,-4.744837734830379
1772701757031257600,5.504257568359375,21.39346375312805,-0.5303767502620816,-5.585424635863304
1772701757041305900,5.514305908203125,21.7714436640501,-0.7982293031010776,-5.895293718111515
1772701757051354600,5.524354736328125,21.65598422422409,-0.7559878058295697,-6.1812225373238325
1772701757061402600,5.534402587890625,19.904487762653826,-0.2566256774364039,-6.3335892737865445
1772701757071450600,5.54445068359375,17.92587999702096,0.08858899595658294,-6.333617330837249
1772701757081499600,5.554499755859375,16.180898616433144,0.6722844904221594,-6.099740770423412
1772701757091547600,5.564547607421875,14.313891277110576,1.2654774700812994,-5.6634735057055945
1772701757101596700,5.5745966796875,12.43662324053645,1.7587895411878822,-5.269336240708828
1772701757111644700,5.584644775390625,10.6939787784636,2.0112970061831175,-4.944305829685926
1772701757121693700,5.594693603515625,9.195592570087314,1.729541234871745,-4.581759634739161
1772701757131741700,5.60474169921875,8.175814638552069,1.145498799265176,-4.155281942629814
1772701757141790700,5.614790771484375,7.2530708478361365,0.8532176884166895,-3.976140596488118
1772701757151838700,5.624838623046875,6.3895116520166395,0.6735499803133308,-4.106424680480361
1772701757161887700,5.6348876953125,5.849960538434982,0.7100791643526405,-4.3805256992548705
1772701757171935500,5.644935546875,5.425206016856432,0.8119704628795384,-4.4144116022437805
1772701757181984800,5.65498486328125,5.093002937725186,0.7873976740937679,-4.25234472502172
1772701757192032500,5.665032470703125,4.952213826331496,0.8251145335476845,-4.42302979298532
1772701757202081800,5.675081787109375,4.8309272877871985,0.8174621921636164,-4.8539393300622695
1772701757212129800,5.6851298828125,4.627600179415941,0.6507805876877159,-5.153225058975815
1772701757222178800,5.6951787109375,4.468588598111271,0.43173594143111255,-5.156874813655018
1772701757232226800,5.705226806640625,4.483412657755613,0.36111188782732934,-4.985611069020629
1772701757242275800,5.71527587890625,4.639891505712271,0.46389323052912945,-4.567677917894721
1772701757252323800,5.72532373046875,4.590046401569247,0.5713608678836375,-4.016741486945748
1772701757262372900,5.735372802734375,4.254658847182989,0.2904035169409588,-3.3629689509004352
1772701757272420900,5.7454208984375,3.520168514347076,0.06645981006380171,-2.4189696061879395
1772701757282468900,5.75546875,2.2612276064276693,-0.03396992801055312,-1.0766665244489908
1772701757292518000,5.765517822265625,0.6512029778182507,-0.16191344022601842,0.6479729098558425
1772701757302566000,5.77556591796875,-1.554120370557904,0.05158186480775475,3.140002491557598
1772701757312615000,5.785614990234375,-4.573752269372344,0.6383600089885294,6.286936243683099
1772701757322663000,5.795662841796875,-8.764904566806555,1.494572787567973,10.037273111575841
1772701757332712000,5.8057119140625,-13.882110802417992,2.7777427123367784,14.745890362989902
1772701757342760000,5.815760009765625,-18.534217646580935,3.8503351192146535,18.167627729201318
1772701757352809000,5.82580908203125,-21.856370018446444,5.478061408731341,19.420968917417525
1772701757362857000,5.83585693359375,-23.160898957586287,6.071644556751847,17.048958046281335
1772701757372906000,5.845906005859375,-21.30635128686428,4.5905847462296485,15.093672704046964
1772701757382954000,5.8559541015625,-17.194814962458608,3.480768816372752,12.525565260314941
1772701757393003000,5.8660029296875,-13.990816676330565,2.8013234944105148,9.557853518351912
1772701757403051000,5.876051025390625,-11.323376751708985,2.234045292730629,7.142297519999742
1772701757413100000,5.88610009765625,-8.757333839291334,2.3927494155213234,5.0292304305166
1772701757423148000,5.89614794921875,-6.6532607881248,2.38782759507969,3.643583881613612
1772701757433197000,5.906197021484375,-5.473155516511201,1.5549828326061368,2.429628947368264
1772701757443245000,5.9162451171875,-3.8522424141407012,0.8900874295219778,1.119251866722107
1772701757453293800,5.9262939453125,-1.4653338336020707,0.3209598005831241,-0.3400210594058037
1772701757463341800,5.936341796875,0.7896294517338276,-0.17613383488878606,-1.753618860551715
1772701757473390800,5.946390869140625,2.8848481653153897,-0.5605183521561324,-3.178207426789403
1772701757483438800,5.95643896484375,4.658161321896315,-0.6520752306081354,-4.511621099629998
1772701757493487900,5.96648779296875,6.298230375635623,-0.7649795791238546,-5.404624416598677
1772701757503535900,5.976535888671875,7.3611273179292676,-0.8951521655656397,-5.563067258104682
1772701757513585000,5.9865849609375,7.7085495935022825,-0.8004768628321588,-5.14642765392065
1772701757523633000,5.9966328125,7.3776564279258245,-0.37807095020636916,-4.791209609904885
1772701757533681000,6.006680908203125,7.03312402857542,-0.426204135864973,-4.668477548727393
1772701757543730000,6.01672998046875,7.146970772507786,-1.0481365955352782,-4.3961072992682455
1772701757553778000,6.02677783203125,6.864723272156715,-1.796107902843505,-4.202576777768135
1772701757563826700,6.03682666015625,5.912512563937902,-2.335432806453854,-4.293487467271089
1772701757573875000,6.046875,5.515023065903782,-2.5275199972778557,-4.655876425829529
1772701757583923700,6.056923828125,5.291495465546846,-2.3200834077611563,-4.92445605083406
1772701757593972000,6.066971923828125,4.929857617616653,-1.9926529498592018,-4.946423552492261
1772701757604020700,6.077020751953125,4.3600095654487605,-1.674286965161562,-4.747482111859322
1772701757614069000,6.087069091796875,3.804091838955879,-1.202861877822876,-4.18462494149208
1772701757624117800,6.09711767578125,3.513475154188275,-0.7850035454988479,-3.3652176066100594
1772701757634166000,6.107166015625,2.9757477489024398,-0.7159381925791501,-2.3002952959686516
1772701757644214800,6.11721484375,2.2258318833976984,-0.599431581787765,-1.1314531766474247
1772701757654263000,6.127262939453125,1.5553659867048262,-0.09289952523261308,0.1365758776128292
1772701757664311800,6.137311767578125,0.6506389141947031,0.5118231487005949,1.6557804176121949
1772701757674359800,6.14735986328125,-0.7487585121631621,0.9394199079677462,3.1133763504385947
1772701757684408800,6.157408935546875,-2.6585768192082644,1.4847583727791904,4.235910307571292
1772701757694456800,6.167456787109375,-4.631755545529723,2.145039852327108,4.705710424056649
1772701757704505900,6.177505859375,-6.291910524964332,2.6640049817368388,4.551517056688666
1772701757714553900,6.187553955078125,-7.278993809121847,2.286997715239227,3.826692377820611
1772701757724603000,6.197602783203125,-7.119011921480298,1.2834405584037303,2.607770176556706
1772701757734651000,6.20765087890625,-5.469644878041744,-0.18218670518696306,0.7818605712980031
1772701757744700000,6.217699951171875,-4.758314471518993,-0.5609767634481191,-0.3173193982541561
1772701757754748000,6.227747802734375,-4.410990395623445,-0.6312120369300246,-1.1714070013731717
1772701757764797000,6.237796875,-3.7359605520159005,-0.8424857203915714,-1.5944167251110075
1772701757774845000,6.247844970703125,-2.753368149536848,-0.852108119739592,-1.4238479770034551
1772701757784892700,6.257892578125,-1.9171464579761026,-0.8233458433747292,-1.2717489515662193
1772701757794942000,6.26794189453125,-1.2343535791516302,-0.6508496343359351,-1.085002391117811
1772701757804989700,6.27798974609375,-0.5771557448327541,-0.3167733086787164,-1.0519166985958814
1772701757815039000,6.2880390625,-0.11146072557866572,-0.05513648854941129,-1.2785685684531927
1772701757825086700,6.298086669921875,-0.06860650323629379,0.18528408668041227,-1.7979601065814494
1772701757835136000,6.308135986328125,-0.5708645357340574,0.455064173515886,-2.1019372081816194
1772701757845183700,6.318183837890625,-1.3440449569702149,0.7638675262287259,-2.1177146230280397
1772701757855233000,6.32823291015625,-2.0003104788750408,0.9283120923675596,-1.9292665193587542
1772701757865280800,6.33828076171875,-2.3817121809393167,1.1834532668672502,-1.6021470271021128
1772701757875330000,6.348330078125,-2.498486795017123,1.2614112435556948,-1.4640624984920023
1772701757885377800,6.358377685546875,-2.6986493018776176,1.193391161905229,-1.3330916012793779
1772701757895427000,6.368427001953125,-2.9874072070360183,1.1272988334469496,-1.2430354827791452
1772701757905474800,6.378474853515625,-2.80349557775259,1.0965018363840877,-0.7996247760474682
1772701757915524000,6.388524169921875,-2.5889485717087983,1.2502988979108631,0.030384032347798344
1772701757925571800,6.39857177734375,-2.5029969659179447,1.7543199945583938,1.1241758791208267
1772701757935621000,6.40862109375,-2.59256383959651,2.385225157496333,2.2033576012611387
1772701757945668900,6.4186689453125,-3.024953970620036,2.993392711186409,3.013997107797861
1772701757955718000,6.4287177734375,-4.209114655104279,3.648083823381364,3.944164911034703
1772701757965766000,6.438765869140625,-5.144221668308973,4.035802161246538,5.470165687045455
1772701757975815000,6.44881494140625,-5.614080821505189,4.176423222596943,6.493375931116939
1772701757985863000,6.45886279296875,-5.683019917696714,4.022035793961584,7.1562956502139565
1772701757995912000,6.468911865234375,-5.668922418761253,3.5888778934359546,7.530784796410798
1772701758005960000,6.4789599609375,-5.715784123179316,2.9978841773867604,7.745805265185236
1772701758016009000,6.489009033203125,-5.757282839259505,2.153850935292244,7.712570519581437
1772701758026057000,6.499056884765625,-5.834886887943744,1.5059119277060031,7.323606273308396
1772701758036105000,6.50910498046875,-5.772740520632267,0.9579179799497127,6.885224792915582
1772701758046154000,6.519154052734375,-5.202130251920223,0.43544133528769013,6.760625184300541
1772701758056202000,6.529201904296875,-3.8537697698384523,0.11994944472163915,6.2164785596221686
1772701758066250800,6.539250732421875,-1.7798317446947096,-0.13280980307757853,4.921296125498413
1772701758076299000,6.549299072265625,0.5085445654213429,-0.7173942366063595,3.304630159178376
1772701758086347800,6.55934765625,2.5050351937472817,-1.4561249834910035,1.6264438484907149
1772701758096396000,6.56939599609375,4.191018441921472,-2.1160896521747112,0.2280821949213743
1772701758106444800,6.57944482421875,5.7472354924976825,-2.6895471270114184,-0.9175684339046478
1772701758116493000,6.5894931640625,7.1125038547605275,-3.063457304276526,-1.9491689051806926
1772701758126541800,6.599541748046875,8.501062491717935,-3.3288717432484027,-2.9068086527109145
1772701758136590000,6.609590087890625,9.7937221293658,-3.853889304564893,-3.516321191269159
1772701758146638800,6.619638916015625,10.948597682654857,-4.126936138111352,-4.542168798106909
1772701758156687000,6.62968701171875,11.865497423517704,-4.583183822323382,-4.882150110024213
1772701758166736000,6.63973583984375,12.245095291030406,-5.046957225865126,-5.564672939735651
1772701758176784000,6.649783935546875,12.061769352680445,-4.927596102425456,-6.1545443737566465
1772701758186833000,6.6598330078125,11.68969194380045,-5.043493349146843,-6.2279293434411285
1772701758196881400,6.66988134765625,11.153949574851989,-4.825573944060504,-6.230124223136902
1772701758206930700,6.6799306640625,10.729635782778262,-4.272398794274032,-6.267973769059777
1772701758216978400,6.689978515625,10.520587374150752,-3.9887244759902356,-6.375854882586002
1772701758227027700,6.70002783203125,10.126882655352354,-3.7429616629496216,-6.483552456238866
1772701758237075500,6.710075439453125,9.705933955797553,-3.34957843119055,-6.467984884750843
1772701758247124500,6.72012451171875,9.381382268202305,-2.951725945062935,-6.356504869949817
1772701758257172500,6.73017236328125,8.976565788280963,-2.6228666234016416,-5.938772794353961
1772701758267221500,6.740221435546875,8.566573367026448,-2.338023553599417,-5.365231148365139
1772701758277269500,6.75026953125,8.092506240746378,-1.9950226015999912,-4.928737673676014
1772701758287317500,6.7603173828125,7.581818818077444,-1.5934771061733364,-4.729384729632735
1772701758297366500,6.770366455078125,7.105285593944788,-1.4652800575882197,-4.588895477968454
1772701758307414500,6.78041455078125,6.557855709812045,-1.5989564143672585,-4.1128275332599875
1772701758317463600,6.790463623046875,5.754521557852626,-0.9911690921664238,-4.148564032551646
1772701758327511600,6.800511474609375,5.387808890876173,-1.3197197862699628,-2.040833043399453
1772701758337560600,6.810560546875,4.014147963321209,-1.9723688712432978,2.079479877179861
1772701758347608600,6.820608642578125,0.15990239266455172,-1.3547130659788846,5.903641859740018
1772701758357657300,6.8306572265625,-5.260503530433773,-0.6661252371400594,7.780438187149167
1772701758367705600,6.84070556640625,-10.92415882244706,0.30777327901273965,10.717356146919727
1772701758377754400,6.85075439453125,-14.13430277172327,2.8260712744370102,16.376622264063357
1772701758387802600,6.860802734375,-12.581315789109468,4.886991704836488,21.149456259322164
1772701758397851400,6.870851318359375,-14.134732979834078,4.265801295705139,20.7280861194849
1772701758407899600,6.880899658203125,-18.46674394676685,4.46489003585428,17.52322507904768
1772701758417948400,6.890948486328125,-19.446664499688147,5.46057076022625,12.882461466675997
1772701758427996700,6.90099658203125,-14.85893105123639,5.278551812821626,7.881704266449809
1772701758438045400,6.91104541015625,-10.875131464427708,4.339853204865753,2.245249116051197
1772701758448093700,6.92109375,-9.723390702033042,4.281127167391777,-0.8387719605654478
1772701758458142500,6.931142578125,-6.783822520014644,4.312774351543188,-1.0557114147037268
1772701758468190500,6.9411904296875,-4.051648549675941,2.928307075552642,-0.4326157564729452
1772701758478239500,6.951239501953125,-2.55699802069664,1.5128706608027218,-1.1897019519984722
1772701758488287500,6.96128759765625,-1.0480150149822234,0.6980044764816761,-2.3325994827240706
1772701758498336500,6.97133642578125,0.5978887362599372,0.35220088815167544,-3.33601080134809
1772701758508384500,6.981384521484375,1.9467238501161335,-0.03492795938774943,-3.990118852958083
1772701758518433500,6.99143359375,3.190731977319717,-0.49607525220960375,-4.692459312817454
1772701758528481500,7.0014814453125,4.197230740565061,-0.885956028805673,-5.262215010526776
1772701758538530600,7.011530517578125,4.703090012425184,-1.0487332462541759,-5.465946608045697
1772701758548578600,7.02157861328125,4.442653654126823,-0.6876943871304393,-5.0579152577310795
1772701758558626600,7.03162646484375,3.3421620174542066,0.08425517713651061,-3.937297947874665
1772701758568675600,7.041675537109375,2.5334271754950284,0.6289820859208702,-3.2535937994241713
1772701758578723300,7.051723388671875,1.7655916224181651,0.7819749914579093,-3.1416467516332864
1772701758588772600,7.061772705078125,0.6759028270497918,0.9626853404819965,-3.0986025596767663
1772701758598820400,7.0718203125,-0.10726736554205417,0.9026996583357453,-2.370685760012269
1772701758608869600,7.08186962890625,-0.5166583137720823,0.611445114056021,-1.450286486595869
1772701758618917400,7.09191748046875,-1.2194020937353371,0.5753555635429919,-0.9278583572506904
1772701758628966700,7.101966552734375,-2.108621800512075,0.7458907016418874,-0.7686749265104532
1772701758639014400,7.112014404296875,-3.171942521175742,0.9408617773391306,-0.501349100959301
1772701758649063700,7.122063720703125,-4.008223833969235,0.9163935449063777,-0.13697978223860263
1772701758659111400,7.132111328125,-4.163724192282557,0.8935505755878984,0.2237947268605232
1772701758669160700,7.14216064453125,-3.9617876614868637,1.161451862939447,0.6794336315244436
1772701758679208400,7.15220849609375,-3.982623528766632,1.5669833592623472,1.020714335602522
1772701758689257700,7.1622578125,-3.1397716054111715,1.273067925210297,1.0709008005291223
1772701758699305500,7.172305419921875,-2.2914631702154873,0.2311889287650585,0.8088894479990005
1772701758709354800,7.182354736328125,-1.3591653692126273,-0.6800190301969647,0.4275882836997509
1772701758719402500,7.192402587890625,-0.36960488128662106,-0.697472123170644,0.17573007639348506
1772701758729451800,7.20245166015625,0.24295067822933195,-0.08903218227997421,0.24616788671016693
1772701758739499500,7.21249951171875,0.4353682700514793,-0.5162190455719828,0.33696167183518405
1772701758749548500,7.222548583984375,0.4404974496334791,-0.7047780622698366,0.6967097604960203
1772701758759596500,7.232596435546875,0.6133142689287662,-0.6196577927365898,0.8453729662656784
1772701758769645600,7.2426455078125,0.6598866350114345,-0.7491463424369692,0.6744400610208511
1772701758779693600,7.252693603515625,0.7049567798376083,-0.7171608662419021,0.7500333544045686
1772701758789742600,7.26274267578125,0.703532299992442,-0.29721111459657545,0.5892080016762018
1772701758799790600,7.27279052734375,0.4493202230364084,0.21466697916164992,0.1957096191048622
1772701758809839400,7.28283935546875,0.5551280374199151,0.36364436544701456,-0.11992986323833466
1772701758819887600,7.2928876953125,0.8782719040438532,0.36423707064315675,-0.39496787060201166
1772701758829935600,7.302935546875,1.2762585379451512,0.23266996110305188,-0.5424994419932365
1772701758839984600,7.312984619140625,1.7717694342702626,0.10266250209510326,-0.3451736198633909
1772701758850032600,7.32303271484375,1.820790362548828,-0.09580825228616595,-0.0012578911066055297
1772701758860081400,7.333081298828125,1.5280281901851296,-0.24610943452119827,0.14195990873873232
1772701758870129700,7.343129638671875,1.1391428543671964,-0.2621405318677425,0.1854360623717308
1772701758880178400,7.353178466796875,0.871860575696826,-0.32503333363234993,0.05875555582940578
1772701758890226700,7.363226806640625,0.768746238180995,-0.47016456588357686,0.030688568252325056
1772701758900275500,7.373275390625,0.8414730362176894,-0.2557870711877942,-0.005885550907254219
1772701758910323700,7.38332373046875,0.9758715697914362,-0.05251607691794634,-0.04484451937675476
1772701758920372500,7.39337255859375,0.8948112431734799,-0.061218731072545045,-0.050941082686185836
1772701758930420700,7.403420654296875,0.5373880903288721,0.03348287514597177,-0.04822013328969478
1772701758940469500,7.413469482421875,0.024673253485560417,0.09903101372495293,0.04729951131343841
1772701758950517800,7.423517822265625,-0.31287995450198647,-0.07565203783363103,0.30503157908916473
1772701758960566500,7.43356640625,-0.1558078168272972,-0.1861065089792013,0.43555473253428933
1772701758970614500,7.443614501953125,0.2798579748660326,-0.24230901932492852,0.39677170515358445
1772701758980663600,7.45366357421875,0.6609814445108175,-0.3471840829029679,0.26822715830504895
1772701758990711600,7.463711669921875,0.9363695804864167,-0.35057357921078797,0.13759762187600136
1772701759000760600,7.473760498046875,1.0951327399879693,-0.42905163425058124,0.10506313349604605
1772701759010808600,7.48380859375,1.1621920137822628,-0.40826910459324717,0.15927870780825615
1772701759020857600,7.493857666015625,0.7712590977847575,-0.1892706720985472,0.17593933522999286
1772701759030905600,7.503905517578125,0.23021014686077831,-0.2377190611861646,0.19960838010907173
1772701759040954600,7.51395458984375,-0.10759177519083023,-0.36531127574592825,0.3914052096843719
1772701759051002600,7.524002685546875,-0.16798691492080686,-0.39302404305785893,0.5414081396251916
1772701759061051600,7.5340517578125,-0.14902736290693283,-0.3246739988006651,0.37667701162993905
1772701759071099400,7.544099365234375,0.016967501413822174,-0.25042320606708524,0.1378781923830509
1772701759081148700,7.554148681640625,0.17556056504547596,-0.0854743436679244,-0.04203413813114166
1772701759091196400,7.564196533203125,0.2515197691321373,0.03897752703949809,-0.17552081755697727
1772701759101245700,7.57424560546875,0.21754560333788395,0.0081280691370368,-0.14088263489603994
1772701759111293400,7.58429345703125,0.10644611228704452,0.05427154228314757,-0.11186638377010821
1772701759121342500,7.594342529296875,-0.016198855128884315,-0.04363134419471025,-0.06074935999512672
1772701759131390500,7.604390380859375,-0.03450666523575783,-0.16315569537207483,0.14065525588095187
1772701759141439500,7.614439453125,-0.0760953976869583,-0.11873714632242917,0.25837621089816093
1772701759151487500,7.624487548828125,-0.22251959235817192,-0.033192660027742384,0.23765374086499214
1772701759161535500,7.634535400390625,-0.3283686155349016,0.06311272812560201,0.13912556209564209
1772701759171584500,7.64458447265625,-0.4105892181038856,0.15609423255324362,-0.034278117176890374
1772701759181632500,7.654632568359375,-0.42120384335964917,0.1717879146389663,-0.05658405700922012
1772701759191681500,7.664681640625,-0.2749184726372361,0.2045622031241655,-0.07656009258925914
1772701759201729300,7.674729248046875,-0.10275427203178406,0.23780557042583822,-0.10707505784034728
1772701759211778300,7.6847783203125,-0.05332417843043804,0.14484247843772172,0.0054506666213274
1772701759221826300,7.694826416015625,-0.09617138651013374,0.09261194046288729,0.18874620983302592
1772701759231875300,7.704875244140625,-0.16708733573257922,0.12433350502476095,0.19176409634947775
1772701759241923300,7.71492333984375,-0.17368395751863716,0.15817644565477967,0.07536708341240883
1772701759251972400,7.724972412109375,-0.08710954365432262,0.19459332842603325,0.010847557228803635
1772701759262020400,7.735020263671875,-0.008279168045520782,0.21792685774043202,-0.04825111294984817
1772701759272069000,7.745069091796875,-0.023013211318850518,0.23627251563966273,-0.061467152875661846
1772701759282117400,7.755117431640625,-0.119988899949193,0.23425693803355097,-0.026557167536020276
1772701759292166100,7.765166259765625,-0.1948077018290758,0.22180019204244017,0.04830547348558902
1772701759302214400,7.77521435546875,-0.17516513598710298,0.22351035696119068,0.11014321323931217
1772701759312263200,7.78526318359375,-0.1461994460046291,0.27129049139842387,0.13407295488119125
1772701759322311400,7.7953115234375,0.1909340752661228,0.12670710228830576,0.006288871011137962
1772701759332360200,7.805360107421875,1.3723095129460094,-0.1112640339627862,-0.18914076210856437
1772701759342408400,7.815408447265625,0.45438832008093594,-0.1955894998565316,-0.0026040450185537338
1772701759352457200,7.825457275390625,-0.20541180569082498,-0.2510126963928342,0.16985329331457613
1772701759362505500,7.83550537109375,-0.9363163889944552,0.1126946512877941,0.04187339461147785
1772701759372554200,7.84555419921875,-0.8053197728186845,0.3438942475773394,0.10658464397490024
1772701759382602200,7.855602294921875,-0.6008797347694635,0.16630524544417857,0.2842886507898569
1772701759392651300,7.8656513671875,-0.19686171174943445,0.10929989428296684,0.3121130617827177
