time,seconds_elapsed,z,y,x
1772701751590022100,0.063022216796875,-0.6884002685546875,0.1406097412109375,0.655670166015625
1772701751600071200,0.0730712890625,-0.6849212646484375,0.133758544921875,0.6420440673828125
1772701751610119200,0.083119140625,-0.690093994140625,0.140228271484375,0.6343841552734375
1772701751620168200,0.093168212890625,-0.7069549560546875,0.1451263427734375,0.6398468017578125
1772701751630216200,0.10321630859375,-0.729827880859375,0.1474609375,0.6508026123046875
1772701751640264200,0.11326416015625,-0.743408203125,0.1490631103515625,0.663818359375
1772701751650313200,0.123313232421875,-0.745758056640625,0.1491851806640625,0.673583984375
1772701751660361200,0.133361328125,-0.7408905029296875,0.145172119140625,0.6752777099609375
1772701751670410200,0.14341015625,-0.7430419921875,0.1434478759765625,0.674468994140625
1772701751680458200,0.153458251953125,-0.744659423828125,0.1453399658203125,0.672271728515625
1772701751690506200,0.16350634765625,-0.74072265625,0.146820068359375,0.6732940673828125
1772701751700555000,0.173554931640625,-0.74212646484375,0.148040771484375,0.6775970458984375
1772701751710603300,0.183603271484375,-0.73809814453125,0.1439666748046875,0.6758880615234375
1772701751720652000,0.193652099609375,-0.72283935546875,0.141998291015625,0.672882080078125
1772701751730700300,0.2037001953125,-0.708221435546875,0.13983154296875,0.6660003662109375
1772701751740749000,0.2137490234375,-0.69805908203125,0.144805908203125,0.6584320068359375
1772701751750797300,0.22379736328125,-0.6860198974609375,0.146820068359375,0.6542816162109375
1772701751760845300,0.23384521484375,-0.6735687255859375,0.145904541015625,0.6529388427734375
1772701751770894300,0.243894287109375,-0.66290283203125,0.14599609375,0.648406982421875
1772701751780942000,0.253942138671875,-0.648590087890625,0.1428070068359375,0.6432342529296875
1772701751790991400,0.263991455078125,-0.640777587890625,0.1440277099609375,0.636962890625
1772701751801039000,0.2740390625,-0.6336212158203125,0.1433563232421875,0.63134765625
1772701751811088400,0.28408837890625,-0.6259613037109375,0.1407470703125,0.6293792724609375
1772701751821136100,0.29413623046875,-0.6163177490234375,0.1421661376953125,0.6239166259765625
1772701751831184100,0.30418408203125,-0.6031951904296875,0.13543701171875,0.61041259765625
1772701751841233200,0.314233154296875,-0.5843353271484375,0.113311767578125,0.5980224609375
1772701751851281200,0.32428125,-0.5604400634765625,0.103668212890625,0.582489013671875
1772701751861330200,0.334330078125,-0.53582763671875,0.1097412109375,0.5545196533203125
1772701751871378200,0.344378173828125,-0.5075225830078125,0.1143646240234375,0.52325439453125
1772701751881427200,0.35442724609375,-0.475433349609375,0.1121826171875,0.4902801513671875
1772701751891475200,0.36447509765625,-0.4354095458984375,0.105560302734375,0.45477294921875
1772701751901524200,0.374524169921875,-0.384490966796875,0.094879150390625,0.417572021484375
1772701751911572200,0.384572265625,-0.3264923095703125,0.0750579833984375,0.372833251953125
1772701751921620200,0.3946201171875,-0.268768310546875,0.054931640625,0.349700927734375
1772701751931669200,0.404669189453125,-0.2126312255859375,0.0440673828125,0.342071533203125
1772701751941717200,0.41471728515625,-0.173828125,0.0522308349609375,0.3471832275390625
1772701751951766300,0.424766357421875,-0.1612396240234375,0.0763702392578125,0.3790130615234375
1772701751961814300,0.434814208984375,-0.1595916748046875,0.0997161865234375,0.4117889404296875
1772701751971863300,0.44486328125,-0.1778411865234375,0.104400634765625,0.4304656982421875
1772701751981911300,0.454911376953125,-0.2284088134765625,0.103607177734375,0.4642333984375
1772701751991959000,0.464958984375,-0.3118896484375,0.102783203125,0.5258331298828125
1772701752002008300,0.47500830078125,-0.4374847412109375,0.1165771484375,0.6096038818359375
1772701752012056000,0.48505615234375,-0.6013336181640625,0.1342315673828125,0.7667083740234375
1772701752022105300,0.495105224609375,-0.7958221435546875,0.147552490234375,0.9625091552734375
1772701752032153000,0.505153076171875,-1.025115966796875,0.1847686767578125,1.16748046875
1772701752042202000,0.5152021484375,-1.2742919921875,0.237640380859375,1.3479461669921875
1772701752052250000,0.52525,-1.552734375,0.2699737548828125,1.4463348388671875
1772701752062298400,0.53529833984375,-1.8717498779296875,0.2807159423828125,1.515777587890625
1772701752072347100,0.54534716796875,-2.1571502685546875,0.27630615234375,1.515594482421875
1772701752082395400,0.5553955078125,-2.390899658203125,0.24383544921875,1.456085205078125
1772701752092444200,0.565444091796875,-2.5466766357421875,0.2296295166015625,1.4213409423828125
1772701752102492200,0.5754921875,-2.5511016845703125,0.2127838134765625,1.442840576171875
1772701752112541200,0.585541259765625,-2.483642578125,0.1678314208984375,1.4932708740234375
1772701752122589200,0.595589111328125,-2.4096832275390625,0.1322021484375,1.494873046875
1772701752132638200,0.60563818359375,-2.3568572998046875,0.1200714111328125,1.47552490234375
1772701752142686200,0.615686279296875,-2.289031982421875,0.1058349609375,1.4476470947265625
1772701752152734200,0.625734130859375,-2.18182373046875,0.0625152587890625,1.403411865234375
1772701752162783200,0.635783203125,-2.0892486572265625,0.028564453125,1.3673858642578125
1772701752172831200,0.645831298828125,-2.07061767578125,0.0207672119140625,1.3646392822265625
1772701752182880300,0.65588037109375,-2.0703887939453125,0.0742340087890625,1.3597869873046875
1772701752192927700,0.665927734375,-1.9757843017578125,0.1248626708984375,1.3262176513671875
1772701752202977000,0.67597705078125,-1.7339324951171875,0.14630126953125,1.1894683837890625
1772701752213024800,0.686024658203125,-1.3306427001953125,0.1266937255859375,0.9940338134765625
1772701752223073000,0.696072998046875,-0.8523712158203125,0.06829833984375,0.806243896484375
1772701752233121800,0.706121826171875,-0.4324798583984375,-0.008209228515625,0.6353912353515625
1772701752243170000,0.716170166015625,-0.1005401611328125,-0.0741424560546875,0.469451904296875
1772701752253218800,0.72621875,0.1616363525390625,-0.086822509765625,0.3301849365234375
1772701752263267000,0.73626708984375,0.3544158935546875,-0.0908050537109375,0.2513580322265625
1772701752273315800,0.74631591796875,0.540374755859375,-0.064697265625,0.1169891357421875
1772701752283364000,0.756364013671875,0.6409454345703125,-0.06640625,0.1075286865234375
1772701752293412000,0.766412109375,0.7364044189453125,-0.0583343505859375,-0.009521484375
1772701752303460900,0.7764609375,0.7763214111328125,-0.08984375,0.006988525390625
1772701752313508900,0.7865087890625,0.821441650390625,-0.1352081298828125,0.0371246337890625
1772701752323558000,0.796557861328125,0.8390655517578125,-0.1649322509765625,0.048919677734375
1772701752333606000,0.80660595703125,0.8465728759765625,-0.2048492431640625,-0.001129150390625
1772701752343655000,0.816655029296875,0.835174560546875,-0.218353271484375,0.0064544677734375
1772701752353703000,0.826702880859375,0.7632904052734375,-0.2001190185546875,0.0038299560546875
1772701752363752000,0.836751953125,0.6515655517578125,-0.17388916015625,0.0265045166015625
1772701752373800000,0.846800048828125,0.520111083984375,-0.15234375,0.0455169677734375
1772701752383848000,0.856847900390625,0.3997344970703125,-0.1154327392578125,0.0874176025390625
1772701752393897000,0.86689697265625,0.286529541015625,-0.077728271484375,0.12384033203125
1772701752403945000,0.876945068359375,0.1804351806640625,-0.057403564453125,0.14080810546875
1772701752413993700,0.88699365234375,0.1012725830078125,-0.038787841796875,0.1471710205078125
1772701752424042000,0.8970419921875,0.044952392578125,-0.015380859375,0.1479644775390625
1772701752434090800,0.9070908203125,0.002716064453125,0.0089111328125,0.1488800048828125
1772701752444139000,0.917138916015625,-0.0370330810546875,0.0284576416015625,0.1443023681640625
1772701752454187000,0.92718701171875,-0.0603179931640625,0.0475006103515625,0.13751220703125
1772701752464236000,0.937236083984375,-0.0764007568359375,0.0535430908203125,0.141082763671875
1772701752474284000,0.947283935546875,-0.0977783203125,0.060302734375,0.142181396484375
1772701752484333000,0.9573330078125,-0.148101806640625,0.06781005859375,0.1551971435546875
1772701752494381000,0.967381103515625,-0.2202301025390625,0.0726165771484375,0.204742431640625
1772701752504430000,0.97743017578125,-0.29925537109375,0.1141815185546875,0.238006591796875
1772701752514478000,0.98747802734375,-0.357421875,0.12762451171875,0.2834014892578125
1772701752524527000,0.997527099609375,-0.420318603515625,0.0773468017578125,0.4077911376953125
1772701752534575000,1.0075751953125,-0.5263671875,0.02301025390625,0.555999755859375
1772701752544622800,1.017622802734375,-0.657501220703125,-0.0173797607421875,0.698150634765625
1772701752554672000,1.027672119140625,-0.846099853515625,-0.042572021484375,0.8824310302734375
1772701752564719900,1.037719970703125,-1.1173095703125,-0.0225830078125,1.288330078125
1772701752574769000,1.047768798828125,-1.5377044677734375,0.09283447265625,1.88104248046875
1772701752584817000,1.05781689453125,-2.2745361328125,0.36297607421875,2.4770965576171875
1772701752594866000,1.067865966796875,-3.4827728271484375,0.69134521484375,3.0172882080078125
1772701752604914000,1.077913818359375,-4.4247894287109375,0.6931304931640625,3.401824951171875
1772701752614962000,1.0879619140625,-4.5742034912109375,0.330841064453125,2.819183349609375
1772701752625011000,1.098010986328125,-4.337249755859375,0.0116729736328125,1.6548614501953125
1772701752635059000,1.108058837890625,-3.62554931640625,-0.2960205078125,0.6188507080078125
1772701752645108000,1.11810791015625,-2.72186279296875,-0.1084747314453125,0.6045684814453125
1772701752655156000,1.128156005859375,-1.9080047607421875,0.1460723876953125,0.7810821533203125
1772701752665205000,1.138205078125,-1.203155517578125,0.3000335693359375,0.6299285888671875
1772701752675253000,1.1482529296875,-0.749847412109375,0.2647705078125,0.448638916015625
1772701752685302000,1.158302001953125,-0.3574371337890625,0.2023162841796875,0.349365234375
1772701752695350000,1.16835009765625,-0.0763702392578125,0.182586669921875,0.2700347900390625
1772701752705397800,1.178397705078125,0.083404541015625,0.14447021484375,0.2057342529296875
1772701752715447000,1.188447021484375,0.1642913818359375,0.1216278076171875,0.1615447998046875
1772701752725494800,1.198494873046875,0.1845245361328125,0.1217193603515625,0.1082000732421875
1772701752735544000,1.2085439453125,0.19256591796875,0.1122894287109375,0.0357208251953125
1772701752745591800,1.218591796875,0.2063140869140625,0.0899200439453125,-0.0247344970703125
1772701752755641000,1.22864111328125,0.20257568359375,0.072174072265625,-0.05670166015625
1772701752765688800,1.238688720703125,0.2248992919921875,0.0691070556640625,-0.059722900390625
1772701752775738000,1.248738037109375,0.254119873046875,0.077667236328125,-0.0047760009765625
1772701752785785900,1.258785888671875,0.2838287353515625,0.0804443359375,0.088348388671875
1772701752795834000,1.268834228515625,0.2654266357421875,0.0811767578125,0.166015625
1772701752805883000,1.2788828125,0.241973876953125,0.0928192138671875,0.21673583984375
1772701752815931000,1.288930908203125,0.2068023681640625,0.0917816162109375,0.268463134765625
1772701752825980000,1.29897998046875,0.09393310546875,0.068756103515625,0.3018798828125
1772701752836028000,1.30902783203125,0.0532684326171875,0.0311431884765625,0.2590179443359375
1772701752846077000,1.319076904296875,0.0107421875,-0.0037384033203125,0.2226104736328125
1772701752856125000,1.329125,-0.0477294921875,0.000274658203125,0.27642822265625
1772701752866173000,1.3391728515625,-0.0820770263671875,0.0392608642578125,0.3509368896484375
1772701752876222000,1.349221923828125,-0.120330810546875,0.09228515625,0.4412841796875
1772701752886270000,1.35927001953125,-0.1844940185546875,0.158416748046875,0.596160888671875
1772701752896319000,1.369319091796875,-0.2720489501953125,0.24591064453125,0.782958984375
1772701752906367000,1.379366943359375,-0.4891357421875,0.3175201416015625,0.926605224609375
1772701752916416000,1.389416015625,-0.9780426025390625,0.3893280029296875,0.99298095703125
1772701752926463700,1.399463623046875,-1.375030517578125,0.5173187255859375,0.9920501708984375
1772701752936513000,1.409512939453125,-1.4509429931640625,0.5417938232421875,0.9718017578125
1772701752946560800,1.419560791015625,-1.361541748046875,0.4541473388671875,0.96563720703125
1772701752956609000,1.429609130859375,-1.3495330810546875,0.3085479736328125,0.8707275390625
1772701752966657800,1.43965771484375,-1.4243316650390625,0.1665191650390625,0.811676025390625
1772701752976706000,1.4497060546875,-1.318756103515625,0.0206146240234375,0.7718658447265625
1772701752986754800,1.4597548828125,-1.1013946533203125,-0.0982208251953125,0.70257568359375
1772701752996803000,1.469802978515625,-1.0171051025390625,-0.11456298828125,0.6468353271484375
1772701753006851800,1.479851806640625,-1.0276031494140625,-0.0225830078125,0.5764617919921875
1772701753016900000,1.489900146484375,-1.0582122802734375,0.1032867431640625,0.5570068359375
1772701753026948000,1.499947998046875,-1.14739990234375,0.217681884765625,0.5994415283203125
1772701753036996900,1.509996826171875,-1.347625732421875,0.2685546875,0.7649383544921875
1772701753047045000,1.520045166015625,-1.5898895263671875,0.3115997314453125,1.0246124267578125
1772701753057094000,1.530093994140625,-1.8079071044921875,0.42205810546875,1.2700653076171875
1772701753067142000,1.540141845703125,-1.93902587890625,0.5908203125,1.320556640625
1772701753077191000,1.55019091796875,-2.029327392578125,0.66143798828125,1.099517822265625
1772701753087239000,1.560239013671875,-2.0718231201171875,0.6526641845703125,1.0098419189453125
1772701753097288000,1.570287841796875,-2.136474609375,0.6139373779296875,1.1389923095703125
1772701753107336000,1.5803359375,-2.145843505859375,0.5147705078125,1.36328125
1772701753117384000,1.590384033203125,-2.078277587890625,0.477386474609375,1.5208892822265625
1772701753127433000,1.600432861328125,-2.0251312255859375,0.52227783203125,1.6459197998046875
1772701753137481000,1.61048095703125,-2.0117034912109375,0.5706939697265625,1.9053497314453125
1772701753147529700,1.62052978515625,-2.1194305419921875,0.5387725830078125,2.234100341796875
1772701753157578000,1.630577880859375,-2.2337493896484375,0.4406585693359375,2.2869110107421875
1772701753167626800,1.640626708984375,-2.19873046875,0.3761749267578125,2.01385498046875
1772701753177675000,1.650675048828125,-2.0224151611328125,0.3360137939453125,1.5862884521484375
1772701753187723800,1.660723876953125,-1.728118896484375,0.25396728515625,1.16680908203125
1772701753197771300,1.670771240234375,-1.37286376953125,0.0893096923828125,0.7784576416015625
1772701753207820300,1.6808203125,-0.826904296875,-0.0986328125,0.5318756103515625
1772701753217868300,1.690868408203125,-0.0635833740234375,-0.078033447265625,0.305084228515625
1772701753227916500,1.70091650390625,0.70635986328125,0.0387115478515625,-0.001922607421875
1772701753237965300,1.71096533203125,0.9748382568359375,0.0225067138671875,-0.200469970703125
1772701753248013600,1.721013671875,0.7218017578125,-0.03326416015625,-0.1321563720703125
1772701753258062300,1.731062255859375,0.656982421875,-0.08642578125,-0.0655670166015625
1772701753268110600,1.741110595703125,0.697235107421875,-0.10009765625,-0.0477294921875
1772701753278159400,1.751159423828125,0.6973876953125,-0.0790252685546875,0.0215911865234375
1772701753288207600,1.76120751953125,0.6634521484375,-0.026031494140625,0.0757904052734375
1772701753298255400,1.77125537109375,0.708892822265625,-0.01910400390625,0.131805419921875
1772701753308304400,1.781304443359375,0.6920928955078125,-0.0345611572265625,0.094207763671875
1772701753318352400,1.791352294921875,0.6569671630859375,-0.0077972412109375,0.0342864990234375
1772701753328401400,1.8014013671875,0.62420654296875,-0.058258056640625,0.0203094482421875
1772701753338449400,1.811449462890625,0.4787445068359375,-0.11407470703125,0.005126953125
1772701753348498400,1.82149853515625,0.2629547119140625,-0.1254119873046875,0.0151519775390625
1772701753358546400,1.83154638671875,0.1524658203125,-0.09454345703125,0.0578155517578125
1772701753368595500,1.841595458984375,0.0756072998046875,-0.04302978515625,0.0917816162109375
1772701753378643500,1.8516435546875,-0.0167388916015625,-0.0184173583984375,0.098052978515625
1772701753388691500,1.86169140625,-0.1013641357421875,-0.00408935546875,0.0867767333984375
1772701753398740500,1.871740478515625,-0.163787841796875,0.0108184814453125,0.0576324462890625
1772701753408788500,1.88178857421875,-0.20654296875,0.0293731689453125,0.03460693359375
1772701753418837200,1.891837158203125,-0.2056732177734375,0.0432281494140625,0.0281829833984375
1772701753428885500,1.901885498046875,-0.1845550537109375,0.0703582763671875,0.028564453125
1772701753438934300,1.911934326171875,-0.15631103515625,0.104248046875,0.0260009765625
1772701753448982500,1.921982421875,-0.1264190673828125,0.1262054443359375,0.03900146484375
1772701753459031300,1.93203125,-0.1159210205078125,0.1334686279296875,0.0492706298828125
1772701753469079600,1.94207958984375,-0.104583740234375,0.1333465576171875,0.0531463623046875
1772701753479127300,1.952127197265625,-0.074127197265625,0.118255615234375,0.0467071533203125
1772701753489176600,1.962176513671875,-0.0335845947265625,0.1002349853515625,0.0403594970703125
1772701753499224300,1.972224365234375,0.0008697509765625,0.0993194580078125,0.0599212646484375
1772701753509273600,1.982273681640625,0.02630615234375,0.09381103515625,0.06719970703125
1772701753519321300,1.9923212890625,0.0343780517578125,0.0736083984375,0.0738067626953125
1772701753529370400,2.002370361328125,0.0051727294921875,0.069610595703125,0.119720458984375
1772701753539418400,2.01241845703125,-0.0916748046875,0.06976318359375,0.235565185546875
1772701753549467400,2.02246728515625,-0.2419891357421875,0.0587921142578125,0.4079437255859375
1772701753559515400,2.032515380859375,-0.488800048828125,0.1000518798828125,0.642242431640625
1772701753569563400,2.0425634765625,-0.8542327880859375,0.1434326171875,0.9578704833984375
1772701753579612400,2.0526123046875,-1.3745880126953125,0.1686248779296875,1.3313751220703125
1772701753589660400,2.062660400390625,-1.97930908203125,0.1833953857421875,1.7703399658203125
1772701753599709400,2.07270947265625,-2.6529998779296875,0.2816314697265625,2.3205413818359375
1772701753609757400,2.08275732421875,-3.2927398681640625,0.4713592529296875,2.77471923828125
1772701753619806500,2.092806396484375,-3.761688232421875,0.4523468017578125,3.118316650390625
1772701753629854500,2.1028544921875,-4.0651397705078125,0.2612457275390625,3.4148101806640625
1772701753639903200,2.1129033203125,-4.1338043212890625,0.20635986328125,3.2700653076171875
1772701753649951500,2.122951416015625,-3.79290771484375,0.27398681640625,2.7061004638671875
1772701753659999500,2.13299951171875,-3.2879638671875,0.2877349853515625,2.1871185302734375
1772701753670048500,2.143048583984375,-2.91143798828125,0.2998809814453125,1.774078369140625
1772701753680096500,2.153096435546875,-2.5671844482421875,0.2083587646484375,1.459869384765625
1772701753690145500,2.1631455078125,-2.1299285888671875,0.11138916015625,1.173858642578125
1772701753700193300,2.173193359375,-1.726898193359375,0.1191558837890625,0.9849853515625
1772701753710242600,2.18324267578125,-1.461578369140625,0.14288330078125,0.919036865234375
1772701753720290300,2.193290283203125,-1.2545318603515625,0.091217041015625,0.821563720703125
1772701753730339600,2.203339599609375,-1.103668212890625,0.008392333984375,0.695098876953125
1772701753740387300,2.21338720703125,-0.90130615234375,0.0525665283203125,0.56304931640625
1772701753750435300,2.223435302734375,-0.6207427978515625,0.0758209228515625,0.4076385498046875
1772701753760484400,2.233484375,-0.304443359375,0.0743408203125,0.224945068359375
1772701753770532400,2.243532470703125,0.0348052978515625,0.0597076416015625,0.040985107421875
1772701753780581400,2.253581298828125,0.33197021484375,0.0115203857421875,-0.045440673828125
1772701753790629400,2.26362939453125,0.543548583984375,-0.02020263671875,-0.0796661376953125
1772701753800678400,2.273678466796875,0.64788818359375,-0.0517730712890625,-0.15374755859375
1772701753810726400,2.283726318359375,0.7179412841796875,-0.1002960205078125,-0.2387542724609375
1772701753820775400,2.293775390625,0.79296875,-0.1308441162109375,-0.351531982421875
1772701753830823400,2.303823486328125,0.8512725830078125,-0.158966064453125,-0.3885040283203125
1772701753840871400,2.313871337890625,0.7772674560546875,-0.1342926025390625,-0.283843994140625
1772701753850920400,2.32392041015625,0.6966094970703125,-0.033660888671875,-0.1929931640625
1772701753860968400,2.333968505859375,0.6382598876953125,0.0319061279296875,-0.1488037109375
1772701753871017500,2.344017578125,0.637786865234375,0.050506591796875,-0.1010894775390625
1772701753881065500,2.3540654296875,0.6397247314453125,0.049774169921875,-0.0712738037109375
1772701753891114500,2.364114501953125,0.4820098876953125,0.0164642333984375,0.00946044921875
1772701753901162500,2.37416259765625,0.2753448486328125,-0.0319061279296875,0.0739593505859375
1772701753911211500,2.38421142578125,0.2109527587890625,-0.0251007080078125,0.1074676513671875
1772701753921259500,2.394259521484375,0.1581573486328125,0.0189666748046875,0.1164398193359375
1772701753931307300,2.404307373046875,0.11566162109375,0.0449371337890625,0.11572265625
1772701753941356500,2.4143564453125,0.060028076171875,0.0403594970703125,0.132415771484375
1772701753951404300,2.424404296875,-0.0068817138671875,0.048553466796875,0.1749267578125
1772701753961453300,2.434453369140625,-0.0830535888671875,0.0648345947265625,0.2147064208984375
1772701753971501300,2.444501220703125,-0.17498779296875,0.0900421142578125,0.2439117431640625
1772701753981550300,2.45455029296875,-0.25537109375,0.091644287109375,0.2597198486328125
1772701753991598300,2.464598388671875,-0.3194732666015625,0.074676513671875,0.2673797607421875
1772701754001647400,2.4746474609375,-0.3656768798828125,0.0618896484375,0.2766265869140625
1772701754011695400,2.4846953125,-0.38946533203125,0.045684814453125,0.2945098876953125
1772701754021743400,2.494743408203125,-0.453704833984375,0.0055389404296875,0.318145751953125
1772701754031792400,2.50479248046875,-0.573883056640625,-0.013092041015625,0.378021240234375
1772701754041840400,2.51484033203125,-0.6725921630859375,0.0153045654296875,0.48626708984375
1772701754051889400,2.524889404296875,-0.73358154296875,0.005889892578125,0.627685546875
1772701754061937400,2.5349375,-0.891265869140625,-0.027191162109375,0.8402557373046875
1772701754071986400,2.544986328125,-1.09100341796875,-0.032318115234375,1.0871124267578125
1772701754082034400,2.555034423828125,-1.367950439453125,0.0050506591796875,1.382080078125
1772701754092083500,2.56508349609375,-1.8312225341796875,0.1394195556640625,1.79754638671875
1772701754102131500,2.57513134765625,-2.54364013671875,0.3857269287109375,2.2970123291015625
1772701754112180500,2.585180419921875,-3.3172149658203125,0.471771240234375,2.6752471923828125
1772701754122228500,2.595228515625,-3.6553955078125,0.372039794921875,2.72161865234375
1772701754132276200,2.605276123046875,-3.1026611328125,0.4861297607421875,2.41729736328125
1772701754142325500,2.615325439453125,-2.5543975830078125,0.5005950927734375,2.01812744140625
1772701754152373200,2.625373291015625,-2.333770751953125,0.301483154296875,1.5738372802734375
1772701754162422500,2.635422607421875,-2.136932373046875,0.1811981201171875,1.245758056640625
1772701754172470300,2.64547021484375,-1.8571624755859375,0.2015380859375,1.1153411865234375
1772701754182519600,2.65551953125,-1.61785888671875,0.12664794921875,1.08404541015625
1772701754192568300,2.665568359375,-1.382720947265625,0.091156005859375,1.0473785400390625
1772701754202617300,2.675617431640625,-1.151580810546875,0.0873260498046875,0.9662322998046875
1772701754212665300,2.685665283203125,-0.9189453125,0.0903472900390625,0.812042236328125
1772701754222713300,2.69571337890625,-0.678863525390625,0.08258056640625,0.64111328125
1772701754232762400,2.705762451171875,-0.4611053466796875,0.0642852783203125,0.4904022216796875
1772701754242810400,2.715810302734375,-0.2994384765625,0.0357666015625,0.3677215576171875
1772701754252859400,2.725859375,-0.1791229248046875,0.0198974609375,0.268951416015625
1772701754262907400,2.735907470703125,-0.0982208251953125,0.0184783935546875,0.1899871826171875
1772701754272956400,2.745956298828125,-0.04931640625,0.008148193359375,0.1481170654296875
1772701754283004200,2.756004150390625,-0.0106658935546875,-0.0125274658203125,0.110198974609375
1772701754293053400,2.766053466796875,0.04058837890625,-0.014068603515625,0.056427001953125
1772701754303101200,2.77610107421875,0.08648681640625,0.0002899169921875,0.02349853515625
1772701754313149200,2.786149169921875,0.1128387451171875,0.0144500732421875,0.0092315673828125
1772701754323198200,2.7961982421875,0.149627685546875,0.0312957763671875,0.0039825439453125
1772701754333246200,2.80624609375,0.184417724609375,0.03656005859375,0.013458251953125
1772701754343295200,2.816295166015625,0.189727783203125,0.0236358642578125,0.05450439453125
1772701754353343200,2.82634326171875,0.1488189697265625,0.01434326171875,0.0817413330078125
1772701754363392300,2.836392333984375,0.065643310546875,0.0083465576171875,0.13916015625
1772701754373440300,2.846440185546875,-0.017974853515625,0.014434814453125,0.254852294921875
1772701754383489300,2.8564892578125,-0.0894012451171875,0.0209503173828125,0.3597869873046875
1772701754393537300,2.866537353515625,-0.200042724609375,0.0363006591796875,0.52288818359375
1772701754403586300,2.87658642578125,-0.357513427734375,0.0596466064453125,0.7449188232421875
1772701754413634300,2.88663427734375,-0.5417938232421875,0.1271514892578125,1.0179290771484375
1772701754423682300,2.896682373046875,-0.7267913818359375,0.1517333984375,1.2884674072265625
1772701754433731300,2.9067314453125,-1.19464111328125,0.07769775390625,1.5038299560546875
1772701754443779300,2.916779296875,-1.7474212646484375,0.122283935546875,1.50994873046875
1772701754453828400,2.926828369140625,-1.8345184326171875,0.2401580810546875,1.1827239990234375
1772701754463876400,2.93687646484375,-1.48712158203125,0.21734619140625,0.90203857421875
1772701754473925400,2.94692529296875,-1.1754608154296875,0.0092926025390625,0.749176025390625
1772701754483973400,2.956973388671875,-0.9515533447265625,-0.2701873779296875,0.6323394775390625
1772701754494022400,2.9670224609375,-0.7762298583984375,-0.143951416015625,0.4348297119140625
1772701754504070400,2.9770703125,-0.6472320556640625,0.16326904296875,0.273651123046875
1772701754514118400,2.987118408203125,-0.6299896240234375,0.023651123046875,0.3884124755859375
1772701754524167400,2.99716748046875,-0.6670074462890625,-0.0827789306640625,0.5182952880859375
1772701754534215200,3.007215087890625,-0.7154693603515625,-0.079742431640625,0.5572509765625
1772701754544264200,3.01726416015625,-0.7322235107421875,-0.0356597900390625,0.5641326904296875
1772701754554312200,3.027312255859375,-0.722686767578125,0.0225677490234375,0.5523223876953125
1772701754564361200,3.037361328125,-0.7030792236328125,0.06768798828125,0.5158233642578125
1772701754574409200,3.0474091796875,-0.7079620361328125,0.0835723876953125,0.47235107421875
1772701754584458200,3.057458251953125,-0.692108154296875,0.0828857421875,0.4360504150390625
1772701754594506200,3.06750634765625,-0.673248291015625,0.087188720703125,0.4047393798828125
1772701754604555300,3.07755517578125,-0.6405029296875,0.0842437744140625,0.3657379150390625
1772701754614603300,3.087603271484375,-0.6096343994140625,0.063201904296875,0.32000732421875
1772701754624651500,3.097651611328125,-0.5741119384765625,0.0153961181640625,0.278472900390625
1772701754634700300,3.1077001953125,-0.5309906005859375,-0.0430450439453125,0.2489166259765625
1772701754644748300,3.117748291015625,-0.522216796875,-0.0774078369140625,0.24993896484375
1772701754654797300,3.12779736328125,-0.550872802734375,-0.0781707763671875,0.26727294921875
1772701754664845300,3.13784521484375,-0.6051177978515625,-0.0650787353515625,0.3069915771484375
1772701754674894300,3.147894287109375,-0.69415283203125,-0.062774658203125,0.398895263671875
1772701754684942300,3.1579423828125,-0.866912841796875,-0.058807373046875,0.5394287109375
1772701754694991400,3.167991455078125,-1.145965576171875,0.0257568359375,0.738861083984375
1772701754705039400,3.178039306640625,-1.4619903564453125,0.165191650390625,0.8990631103515625
1772701754715087400,3.18808740234375,-1.734710693359375,0.220062255859375,1.04364013671875
1772701754725136400,3.198136474609375,-1.9439544677734375,0.2233428955078125,1.1447906494140625
1772701754735184400,3.208184326171875,-2.1217041015625,0.26177978515625,1.1622161865234375
1772701754745233400,3.2182333984375,-2.2086029052734375,0.0289306640625,1.095489501953125
1772701754755281400,3.228281494140625,-2.1753082275390625,-0.2061614990234375,0.99920654296875
1772701754765330400,3.238330322265625,-2.0024871826171875,-0.2627105712890625,0.9609832763671875
1772701754775378200,3.248378173828125,-1.7982330322265625,-0.2820281982421875,1.040313720703125
1772701754785427500,3.258427490234375,-1.6221923828125,-0.268768310546875,1.125396728515625
1772701754795475200,3.26847509765625,-1.667449951171875,-0.125732421875,1.3021087646484375
1772701754805524200,3.278524169921875,-1.721282958984375,0.019134521484375,1.458587646484375
1772701754815572200,3.288572265625,-1.677490234375,0.11865234375,1.5660858154296875
1772701754825620500,3.298620361328125,-1.6588134765625,0.138458251953125,1.584808349609375
1772701754835669200,3.308669189453125,-1.5499420166015625,0.100372314453125,1.520904541015625
1772701754845717500,3.318717529296875,-1.2915802001953125,0.072845458984375,1.4163360595703125
1772701754855766300,3.328766357421875,-1.0507049560546875,0.052581787109375,1.2586517333984375
1772701754865814500,3.338814453125,-0.8623199462890625,0.00732421875,1.1017608642578125
1772701754875863300,3.34886328125,-0.647705078125,-0.0323333740234375,0.948150634765625
1772701754885911300,3.358911376953125,-0.44415283203125,-0.054229736328125,0.7750244140625
1772701754895960300,3.368960205078125,-0.2796783447265625,-0.046173095703125,0.621673583984375
1772701754906008300,3.37900830078125,-0.1676483154296875,-0.0045013427734375,0.4950103759765625
1772701754916057300,3.389057373046875,-0.0710601806640625,0.025634765625,0.3898468017578125
1772701754926105300,3.399105224609375,0.024078369140625,0.0469512939453125,0.284576416015625
1772701754936153300,3.4091533203125,0.0915679931640625,0.0657806396484375,0.184661865234375
1772701754946202400,3.419202392578125,0.1352386474609375,0.068817138671875,0.0945281982421875
1772701754956250400,3.42925048828125,0.1540069580078125,0.0496368408203125,0.012176513671875
1772701754966299400,3.43929931640625,0.17340087890625,0.011199951171875,-0.056121826171875
1772701754976347400,3.449347412109375,0.174163818359375,-0.0151824951171875,-0.1238861083984375
1772701754986396400,3.459396484375,0.1680755615234375,-0.0389251708984375,-0.1883087158203125
1772701754996444200,3.469444091796875,0.163665771484375,-0.061309814453125,-0.2312469482421875
1772701755006493400,3.479493408203125,0.1340484619140625,-0.054931640625,-0.2504425048828125
1772701755016541200,3.489541259765625,0.1055145263671875,-0.0393829345703125,-0.2208099365234375
1772701755026590500,3.499590576171875,0.0933380126953125,-0.024383544921875,-0.206695556640625
1772701755036638200,3.50963818359375,0.0879058837890625,0.001983642578125,-0.21368408203125
1772701755046686500,3.5196865234375,0.0760345458984375,0.0276336669921875,-0.2073516845703125
1772701755056735200,3.5297353515625,0.060791015625,0.028594970703125,-0.1949462890625
1772701755066783500,3.539783447265625,0.0405731201171875,0.03533935546875,-0.181549072265625
1772701755076832300,3.549832275390625,0.0361785888671875,0.044464111328125,-0.1636199951171875
1772701755086880500,3.559880615234375,0.037628173828125,0.052642822265625,-0.1425628662109375
1772701755096929300,3.56992919921875,0.017242431640625,0.0643310546875,-0.10638427734375
1772701755106977300,3.579977294921875,0.00152587890625,0.0548248291015625,-0.04925537109375
1772701755117026300,3.5900263671875,-0.013824462890625,0.0369415283203125,0.0264892578125
1772701755127074300,3.60007421875,-0.0450897216796875,0.0476531982421875,0.102630615234375
1772701755137123300,3.610123291015625,-0.1105194091796875,0.0845184326171875,0.1782989501953125
1772701755147171300,3.62017138671875,-0.1637725830078125,0.0850067138671875,0.2311248779296875
1772701755157219300,3.63021923828125,-0.218780517578125,0.024169921875,0.3280181884765625
1772701755167268400,3.640268310546875,-0.3585205078125,-0.0218353271484375,0.555267333984375
1772701755177316400,3.65031640625,-0.5825653076171875,-0.0008392333984375,0.8717498779296875
1772701755187365400,3.660365478515625,-0.9656829833984375,0.04962158203125,1.2189788818359375
1772701755197412900,3.670412841796875,-1.5341796875,0.1186676025390625,1.718902587890625
1772701755207462100,3.680462158203125,-2.2727203369140625,0.228973388671875,2.5621490478515625
1772701755217510000,3.690510009765625,-2.818939208984375,0.2579498291015625,3.46954345703125
1772701755227559200,3.70055908203125,-3.1253662109375,0.2572784423828125,3.640716552734375
1772701755237607000,3.71060693359375,-3.285003662109375,0.305206298828125,2.858154296875
1772701755247656200,3.72065625,-3.2233123779296875,0.4035491943359375,1.9633331298828125
1772701755257704000,3.730703857421875,-2.7322998046875,0.21221923828125,1.3506011962890625
1772701755267752000,3.740751953125,-2.2191314697265625,-0.04046630859375,0.945281982421875
1772701755277801000,3.750801025390625,-1.8642120361328125,-0.141815185546875,0.7244415283203125
1772701755287849000,3.760848876953125,-1.3743133544921875,-0.0261383056640625,0.5995025634765625
1772701755297898000,3.77089794921875,-1.012481689453125,0.04638671875,0.5302581787109375
1772701755307946000,3.780946044921875,-0.80474853515625,-0.009796142578125,0.5276947021484375
1772701755317995000,3.7909951171875,-0.627593994140625,-0.0453033447265625,0.499298095703125
1772701755328043000,3.80104296875,-0.4647979736328125,-0.0659637451171875,0.400665283203125
1772701755338092000,3.811092041015625,-0.3245697021484375,-0.053924560546875,0.275238037109375
1772701755348140000,3.82114013671875,-0.230438232421875,-0.02099609375,0.174346923828125
1772701755358189000,3.83118896484375,-0.1725616455078125,0.019195556640625,0.1154327392578125
1772701755368237000,3.841237060546875,-0.153472900390625,0.041412353515625,0.104034423828125
1772701755378285000,3.85128515625,-0.1887359619140625,0.0639801025390625,0.1016082763671875
1772701755388334000,3.861333984375,-0.15203857421875,0.0951995849609375,0.0938873291015625
1772701755398381800,3.8713818359375,-0.16107177734375,0.1279296875,0.1133270263671875
1772701755408431000,3.88143115234375,-0.169769287109375,0.1368255615234375,0.1865997314453125
1772701755418478800,3.891478759765625,-0.165863037109375,0.1267852783203125,0.225189208984375
1772701755428528000,3.901528076171875,-0.16943359375,0.1407470703125,0.26214599609375
1772701755438575900,3.911575927734375,-0.1875,0.1457977294921875,0.3191070556640625
1772701755448625200,3.921625244140625,-0.2222747802734375,0.1402740478515625,0.3703155517578125
1772701755458673000,3.9316728515625,-0.2767791748046875,0.1500396728515625,0.415374755859375
1772701755468722200,3.94172216796875,-0.3408203125,0.15753173828125,0.490234375
1772701755478770000,3.95177001953125,-0.4219512939453125,0.1567535400390625,0.606536865234375
1772701755488819200,3.961819091796875,-0.5277862548828125,0.1325531005859375,0.734771728515625
1772701755498867000,3.971866943359375,-0.7554779052734375,0.0643310546875,0.8485870361328125
1772701755508915000,3.9819150390625,-1.107391357421875,0.0357666015625,0.9456787109375
1772701755518964000,3.9919638671875,-1.3648834228515625,0.0802764892578125,0.971649169921875
1772701755529012000,4.002011962890625,-1.319671630859375,0.11175537109375,0.901641845703125
1772701755539061000,4.01206103515625,-1.0861358642578125,0.093353271484375,0.8453216552734375
1772701755549109000,4.02210888671875,-0.918426513671875,0.0908660888671875,0.7820281982421875
1772701755559158000,4.032157958984375,-0.8365325927734375,0.03875732421875,0.686676025390625
1772701755569206000,4.0422060546875,-0.7578887939453125,-0.1094207763671875,0.6373138427734375
1772701755579255000,4.052255126953125,-0.6811676025390625,-0.1528167724609375,0.5650634765625
1772701755589303000,4.062302978515625,-0.6006622314453125,0.060089111328125,0.413726806640625
1772701755599352000,4.07235205078125,-0.5488433837890625,0.1731109619140625,0.294158935546875
1772701755609400000,4.082400146484375,-0.5431060791015625,0.131256103515625,0.3843841552734375
1772701755619448000,4.092447998046875,-0.5592803955078125,0.11102294921875,0.4832000732421875
1772701755629497000,4.1024970703125,-0.5517578125,0.0966949462890625,0.5345611572265625
1772701755639545000,4.112545166015625,-0.5058135986328125,0.1171875,0.5372772216796875
1772701755649594000,4.122593994140625,-0.448211669921875,0.1414642333984375,0.50274658203125
1772701755659641900,4.132641845703125,-0.38958740234375,0.1282196044921875,0.4491729736328125
1772701755669691100,4.142691162109375,-0.3461456298828125,0.1140289306640625,0.3963775634765625
1772701755679739000,4.15273876953125,-0.337432861328125,0.1096954345703125,0.3777618408203125
1772701755689788200,4.1627880859375,-0.3427581787109375,0.1161041259765625,0.3936004638671875
1772701755699836000,4.1728359375,-0.385467529296875,0.12896728515625,0.440216064453125
1772701755709885200,4.18288525390625,-0.46209716796875,0.144134521484375,0.513885498046875
1772701755719933000,4.192932861328125,-0.5637359619140625,0.184906005859375,0.566253662109375
1772701755729982200,4.202982177734375,-0.670166015625,0.1981201171875,0.595916748046875
1772701755740030000,4.213030029296875,-0.7844390869140625,0.1634368896484375,0.624969482421875
1772701755750078000,4.223077880859375,-0.8887786865234375,0.124481201171875,0.6579742431640625
1772701755760127000,4.233126953125,-1.0203094482421875,0.0880279541015625,0.696685791015625
1772701755770175000,4.243175048828125,-1.2179718017578125,0.077423095703125,0.8000946044921875
1772701755780224000,4.25322412109375,-1.3904876708984375,0.0649566650390625,0.9435577392578125
1772701755790272000,4.26327197265625,-1.5332183837890625,0.087982177734375,1.0723876953125
1772701755800321000,4.273321044921875,-1.65399169921875,0.1290283203125,1.1615447998046875
1772701755810369000,4.283369140625,-1.709136962890625,0.1656646728515625,1.220977783203125
1772701755820418000,4.29341796875,-1.737640380859375,0.2062225341796875,1.25823974609375
1772701755830466000,4.303466064453125,-1.767242431640625,0.22540283203125,1.3054962158203125
1772701755840515000,4.31351513671875,-1.7916107177734375,0.24609375,1.355560302734375
1772701755850563000,4.32356298828125,-1.8331756591796875,0.27288818359375,1.4456329345703125
1772701755860612000,4.333612060546875,-1.889923095703125,0.29833984375,1.5924072265625
1772701755870660000,4.34366015625,-1.945098876953125,0.338165283203125,1.742034912109375
1772701755880708000,4.3537080078125,-1.9847564697265625,0.3691558837890625,1.8115997314453125
1772701755890757000,4.363757080078125,-1.99725341796875,0.37994384765625,1.7880096435546875
1772701755900805000,4.37380517578125,-1.9691619873046875,0.3709716796875,1.68914794921875
1772701755910854100,4.383854248046875,-1.84881591796875,0.341278076171875,1.5643310546875
1772701755920902000,4.39390185546875,-1.6683502197265625,0.295501708984375,1.438446044921875
1772701755930951200,4.403951171875,-1.48260498046875,0.2541656494140625,1.2958221435546875
1772701755940999000,4.4139990234375,-1.258331298828125,0.2136383056640625,1.1551513671875
1772701755951048200,4.424048095703125,-1.0104522705078125,0.1984710693359375,1.0089263916015625
1772701755961096000,4.434095947265625,-0.7425689697265625,0.1869659423828125,0.838287353515625
1772701755971145200,4.444145263671875,-0.464874267578125,0.1993865966796875,0.6295166015625
1772701755981193000,4.45419287109375,-0.1966400146484375,0.196044921875,0.4232025146484375
1772701755991242000,4.464241943359375,0.044189453125,0.1735687255859375,0.25372314453125
1772701756001290000,4.4742900390625,0.2727203369140625,0.14410400390625,0.1272125244140625
1772701756011338000,4.484337890625,0.4643096923828125,0.120086669921875,0.024688720703125
1772701756021387000,4.494386962890625,0.58660888671875,0.0962677001953125,-0.0830535888671875
1772701756031435000,4.50443505859375,0.63250732421875,0.07440185546875,-0.158782958984375
1772701756041484000,4.514484130859375,0.6292877197265625,0.033477783203125,-0.205902099609375
1772701756051532000,4.524531982421875,0.6068267822265625,-0.0125274658203125,-0.228973388671875
1772701756061581000,4.5345810546875,0.6010284423828125,-0.0387420654296875,-0.2850189208984375
1772701756071629000,4.544629150390625,0.6162872314453125,-0.0649566650390625,-0.275177001953125
1772701756081678000,4.554677978515625,0.605010986328125,-0.0629119873046875,-0.254547119140625
1772701756091726000,4.56472607421875,0.6058502197265625,-0.0606231689453125,-0.3299407958984375
1772701756101774800,4.57477490234375,0.576751708984375,-0.068634033203125,-0.32666015625
1772701756111823000,4.584822998046875,0.5256195068359375,-0.060333251953125,-0.2905120849609375
1772701756121872000,4.594871826171875,0.427154541015625,-0.020477294921875,-0.220245361328125
1772701756131920100,4.604920166015625,0.3438568115234375,0.0075225830078125,-0.14495849609375
1772701756141968100,4.614968017578125,0.258575439453125,0.0310211181640625,-0.0736541748046875
1772701756152017200,4.62501708984375,0.1671905517578125,0.0522003173828125,0.0059814453125
1772701756162065200,4.635065185546875,0.0623779296875,0.062713623046875,0.0873565673828125
1772701756172114200,4.6451142578125,-0.049896240234375,0.0638427734375,0.1889190673828125
1772701756182162000,4.655161865234375,-0.182281494140625,0.0578155517578125,0.3066558837890625
1772701756192211200,4.665211181640625,-0.346282958984375,0.0642242431640625,0.4347686767578125
1772701756202258700,4.6752587890625,-0.532440185546875,0.07720947265625,0.5659942626953125
1772701756212307700,4.6853076171875,-0.7508392333984375,0.0805206298828125,0.711883544921875
1772701756222355700,4.695355712890625,-0.98577880859375,0.0851287841796875,0.8501739501953125
1772701756232404700,4.70540478515625,-1.2230682373046875,0.132110595703125,1.011474609375
1772701756242452700,4.71545263671875,-1.49652099609375,0.1903228759765625,1.227081298828125
1772701756252500700,4.725500732421875,-1.8118438720703125,0.2268829345703125,1.527618408203125
1772701756262549800,4.7355498046875,-2.1098480224609375,0.248199462890625,1.826568603515625
1772701756272597500,4.745597412109375,-2.3773040771484375,0.2482452392578125,2.072296142578125
1772701756282646800,4.755646728515625,-2.638153076171875,0.2711334228515625,2.32159423828125
1772701756292694500,4.765694580078125,-2.753082275390625,0.2450714111328125,2.3545379638671875
1772701756302743600,4.77574365234375,-2.5591278076171875,0.1409149169921875,1.918426513671875
1772701756312791600,4.78579150390625,-2.227325439453125,0.0009307861328125,1.6234588623046875
1772701756322840600,4.795840576171875,-1.841705322265625,-0.0655059814453125,1.3440093994140625
1772701756332888600,4.805888671875,-1.5522003173828125,-0.0176239013671875,0.96246337890625
1772701756342937600,4.8159375,-1.301055908203125,0.04217529296875,0.725006103515625
1772701756352985600,4.825985595703125,-1.1479034423828125,0.0267486572265625,0.653228759765625
1772701756363034600,4.83603466796875,-1.059326171875,0.035919189453125,0.5866241455078125
1772701756373082600,4.84608251953125,-0.895416259765625,0.05487060546875,0.4972686767578125
1772701756383131600,4.856131591796875,-0.6785430908203125,0.051971435546875,0.4327545166015625
1772701756393179600,4.8661796875,-0.48223876953125,0.0565185546875,0.350738525390625
1772701756403227600,4.8762275390625,-0.300933837890625,0.079864501953125,0.2398223876953125
1772701756413276700,4.886276611328125,-0.1601104736328125,0.0840301513671875,0.1373443603515625
1772701756423324700,4.89632470703125,-0.064971923828125,0.099853515625,0.08477783203125
1772701756433373700,4.906373779296875,-0.045166015625,0.0925445556640625,0.08355712890625
1772701756443421700,4.916421630859375,-0.1100006103515625,0.0718231201171875,0.07818603515625
1772701756453470700,4.926470703125,-0.181243896484375,0.0568695068359375,0.099639892578125
1772701756463518700,4.936518798828125,-0.2225189208984375,0.05218505859375,0.1415863037109375
1772701756473567700,4.946567626953125,-0.2162628173828125,0.0426788330078125,0.205780029296875
1772701756483615700,4.95661572265625,-0.1812286376953125,0.0300445556640625,0.2693939208984375
1772701756493664800,4.966664794921875,-0.221282958984375,0.0276641845703125,0.343353271484375
1772701756503712800,4.976712646484375,-0.318634033203125,0.061065673828125,0.4276580810546875
1772701756513761800,4.98676171875,-0.3637847900390625,0.0919036865234375,0.4772796630859375
1772701756523809800,4.996809814453125,-0.4102020263671875,0.0895843505859375,0.5283660888671875
1772701756533858800,5.00685888671875,-0.469635009765625,0.0461578369140625,0.603302001953125
1772701756543906800,5.01690673828125,-0.56103515625,0.0211334228515625,0.70648193359375
1772701756553954600,5.02695458984375,-0.6644134521484375,0.046661376953125,0.8174285888671875
1772701756564003600,5.037003662109375,-0.77972412109375,0.0863494873046875,0.933624267578125
1772701756574051600,5.047051513671875,-0.8849334716796875,0.1273193359375,1.031951904296875
1772701756584100600,5.0571005859375,-0.965911865234375,0.1620025634765625,1.10137939453125
1772701756594148600,5.067148681640625,-1.0351409912109375,0.196533203125,1.1382293701171875
1772701756604197600,5.07719775390625,-1.0621337890625,0.2127685546875,1.1033172607421875
1772701756614245600,5.08724560546875,-1.028228759765625,0.2092132568359375,1.0068206787109375
1772701756624294700,5.097294677734375,-0.86456298828125,0.1678466796875,0.866424560546875
1772701756634342700,5.1073427734375,-0.7096710205078125,0.1197357177734375,0.728668212890625
1772701756644391700,5.1173916015625,-0.5966796875,0.0849151611328125,0.6036224365234375
1772701756654439700,5.127439697265625,-0.488189697265625,0.0730743408203125,0.5004730224609375
1772701756664488400,5.137488525390625,-0.3982086181640625,0.0606689453125,0.4288482666015625
1772701756674536700,5.14753662109375,-0.317901611328125,0.066314697265625,0.3548583984375
1772701756684585500,5.15758544921875,-0.269287109375,0.1009368896484375,0.2876129150390625
1772701756694633700,5.1676337890625,-0.2480316162109375,0.0897064208984375,0.2638092041015625
1772701756704681700,5.177681640625,-0.23931884765625,0.0442352294921875,0.242706298828125
1772701756714730800,5.187730712890625,-0.2297515869140625,0.0077972412109375,0.2183074951171875
1772701756724778800,5.19777880859375,-0.2300262451171875,-0.0162200927734375,0.20501708984375
1772701756734827800,5.207827880859375,-0.23895263671875,-0.033416748046875,0.22027587890625
1772701756744875800,5.217875732421875,-0.276092529296875,-0.0189971923828125,0.23345947265625
1772701756754924800,5.2279248046875,-0.34368896484375,0.01287841796875,0.2559661865234375
1772701756764972800,5.237972900390625,-0.44525146484375,0.0445709228515625,0.3355865478515625
1772701756775021600,5.248021484375,-0.6389007568359375,0.104461669921875,0.47015380859375
1772701756785069800,5.25806982421875,-0.99456787109375,0.193603515625,0.7254791259765625
1772701756795118600,5.26811865234375,-1.5040130615234375,0.2832183837890625,1.1231689453125
1772701756805166800,5.278166748046875,-2.09808349609375,0.3248443603515625,1.5952606201171875
1772701756815215600,5.288215576171875,-2.62548828125,0.253814697265625,1.88714599609375
1772701756825263600,5.298263671875,-3.1005096435546875,0.1188507080078125,2.0985107421875
1772701756835312600,5.308312744140625,-3.48382568359375,-0.1064300537109375,2.148590087890625
1772701756845360600,5.318360595703125,-3.7243804931640625,-0.3057403564453125,2.0828857421875
1772701756855408600,5.32840869140625,-3.737060546875,-0.5527496337890625,2.06329345703125
1772701756865457700,5.338457763671875,-3.5114898681640625,-0.6931610107421875,1.92633056640625
1772701756875505700,5.348505615234375,-3.1721649169921875,-0.668121337890625,1.7142333984375
1772701756885554400,5.358554443359375,-2.70831298828125,-0.534454345703125,1.635650634765625
1772701756895602700,5.368602783203125,-2.1792755126953125,-0.3961029052734375,1.6164398193359375
1772701756905651500,5.3786513671875,-1.7584991455078125,-0.2453155517578125,1.50909423828125
1772701756915699700,5.38869970703125,-1.48577880859375,-0.05401611328125,1.3314056396484375
1772701756925748500,5.39874853515625,-1.26849365234375,0.0732421875,1.2120361328125
1772701756935796700,5.408796630859375,-1.0136871337890625,0.09967041015625,1.129058837890625
1772701756945845500,5.418845458984375,-0.7023773193359375,0.0804901123046875,0.98394775390625
1772701756955893800,5.428893798828125,-0.3336181640625,0.026397705078125,0.8243560791015625
1772701756965941800,5.438941650390625,0.0471038818359375,0.0121002197265625,0.6824798583984375
1772701756975990800,5.44899072265625,0.387664794921875,0.023284912109375,0.5490875244140625
1772701756986038800,5.459038818359375,0.65704345703125,0.0270233154296875,0.4053192138671875
1772701756996087600,5.469087646484375,0.8729705810546875,0.0152130126953125,0.2691497802734375
1772701757006135800,5.4791357421875,1.0905303955078125,-0.02374267578125,0.1208648681640625
1772701757016184600,5.4891845703125,1.2303619384765625,-0.0239410400390625,-0.0103912353515625
1772701757026232800,5.49923291015625,1.2921905517578125,-0.0415802001953125,-0.0960540771484375
1772701757036281600,5.509281494140625,1.333892822265625,-0.070159912109375,-0.1261138916015625
1772701757046329900,5.519329833984375,1.33929443359375,-0.0717620849609375,-0.15045166015625
1772701757056378600,5.529378662109375,1.1805572509765625,-0.0265960693359375,-0.1642608642578125
1772701757066427000,5.539427001953125,0.975189208984375,0.006927490234375,-0.1623992919921875
1772701757076475600,5.5494755859375,0.8018341064453125,0.0596160888671875,-0.1365509033203125
1772701757086523600,5.559523681640625,0.6169586181640625,0.11773681640625,-0.084014892578125
1772701757096572700,5.56957275390625,0.429351806640625,0.1669769287109375,-0.0345306396484375
1772701757106620700,5.57962060546875,0.2560882568359375,0.19256591796875,0.010162353515625
1772701757116669700,5.589669677734375,0.10491943359375,0.169036865234375,0.0551300048828125
1772701757126717400,5.599717529296875,0.00238037109375,0.1036529541015625,0.1090850830078125
1772701757136765700,5.609765625,-0.084381103515625,0.069244384765625,0.1421966552734375
1772701757146814500,5.619814453125,-0.17022705078125,0.047760009765625,0.141082763671875
1772701757156862700,5.62986279296875,-0.22296142578125,0.0485687255859375,0.121337890625
1772701757166911500,5.639911376953125,-0.2613525390625,0.0616607666015625,0.1220550537109375
1772701757176959700,5.649959716796875,-0.2913360595703125,0.0616302490234375,0.145721435546875
1772701757187008500,5.660008544921875,-0.303070068359375,0.0669708251953125,0.1424102783203125
1772701757197057000,5.67005712890625,-0.3068695068359375,0.0717620849609375,0.107574462890625
1772701757207105800,5.680105712890625,-0.322540283203125,0.06219482421875,0.080474853515625
1772701757217154000,5.690154052734375,-0.3355255126953125,0.04327392578125,0.08233642578125
1772701757227202800,5.700202880859375,-0.3318328857421875,0.040374755859375,0.1049957275390625
1772701757237250800,5.710250732421875,-0.3107147216796875,0.0560150146484375,0.15032958984375
1772701757247299800,5.7202998046875,-0.3079071044921875,0.0786285400390625,0.2110443115234375
1772701757257347800,5.730347900390625,-0.3358001708984375,0.0632476806640625,0.2782745361328125
1772701757267396900,5.74039697265625,-0.4016876220703125,0.0470123291015625,0.3724822998046875
1772701757277444900,5.75044482421875,-0.521240234375,0.048187255859375,0.5066986083984375
1772701757287494000,5.760493896484375,-0.6771240234375,0.0473175048828125,0.679962158203125
1772701757297542000,5.7705419921875,-0.885833740234375,0.0777740478515625,0.9303131103515625
1772701757307591000,5.7805908203125,-1.1750640869140625,0.1482086181640625,1.249053955078125
1772701757317639000,5.790638916015625,-1.5773162841796875,0.2463531494140625,1.6314849853515625
1772701757327688000,5.80068798828125,-2.0847015380859375,0.387786865234375,2.109222412109375
1772701757337736000,5.81073583984375,-2.5630950927734375,0.5140533447265625,2.4965972900390625
1772701757347785000,5.820784912109375,-2.9117889404296875,0.68218994140625,2.6653289794921875
1772701757357833000,5.8308330078125,-3.06494140625,0.7880401611328125,2.466278076171875
1772701757367882000,5.840882080078125,-2.899810791015625,0.6673583984375,2.263946533203125
1772701757377930000,5.850929931640625,-2.482666015625,0.5554962158203125,2.028778076171875
1772701757387979000,5.86097900390625,-2.1314544677734375,0.5023040771484375,1.7225494384765625
1772701757398027000,5.871027099609375,-1.85272216796875,0.4491729736328125,1.4714202880859375
1772701757408075800,5.88107568359375,-1.591217041015625,0.4658203125,1.247833251953125
1772701757418124000,5.8911240234375,-1.365966796875,0.4815521240234375,1.092803955078125
1772701757428171800,5.901171875,-1.245513916015625,0.404022216796875,0.966644287109375
1772701757438221000,5.911220947265625,-1.093017578125,0.331573486328125,0.8317108154296875
1772701757448268800,5.921268798828125,-0.8562469482421875,0.27166748046875,0.6832122802734375
1772701757458318000,5.931318115234375,-0.6237640380859375,0.2169952392578125,0.5386962890625
1772701757468365800,5.94136572265625,-0.406768798828125,0.1715850830078125,0.3955535888671875
1772701757478415000,5.9514150390625,-0.2211151123046875,0.1578826904296875,0.2587432861328125
1772701757488462800,5.961462890625,-0.0531158447265625,0.147613525390625,0.15814208984375
1772701757498512100,5.97151220703125,0.0638427734375,0.1335906982421875,0.1328582763671875
1772701757508560000,5.981559814453125,0.107147216796875,0.1404571533203125,0.16717529296875
1772701757518609000,5.99160888671875,0.0772705078125,0.1843414306640625,0.207183837890625
1772701757528657000,6.001656982421875,0.0385589599609375,0.19097900390625,0.21795654296875
1772701757538706000,6.011705810546875,0.0452728271484375,0.1344451904296875,0.242645263671875
1772701757548754000,6.02175390625,0.0282440185546875,0.0634307861328125,0.262359619140625
1772701757558803000,6.031802978515625,-0.0667266845703125,0.0113983154296875,0.2566680908203125
1772701757568851000,6.041850830078125,-0.113555908203125,-0.00531005859375,0.220001220703125
1772701757578900000,6.05189990234375,-0.13323974609375,0.0186614990234375,0.1897735595703125
1772701757588948000,6.061947998046875,-0.1641693115234375,0.059234619140625,0.1853179931640625
1772701757598997000,6.0719970703125,-0.2162017822265625,0.0921173095703125,0.203643798828125
1772701757609045000,6.082044921875,-0.2725830078125,0.1410980224609375,0.2595367431640625
1772701757619094000,6.092093994140625,-0.30023193359375,0.1874237060546875,0.3439788818359375
1772701757629141800,6.102141845703125,-0.343719482421875,0.197998046875,0.4542694091796875
1772701757639191000,6.11219091796875,-0.414398193359375,0.20343017578125,0.58099365234375
1772701757649238800,6.12223876953125,-0.4730224609375,0.2501983642578125,0.7154083251953125
1772701757659287000,6.132287109375,-0.5538177490234375,0.3127899169921875,0.8753814697265625
1772701757669335800,6.142335693359375,-0.6802825927734375,0.3589630126953125,1.0330352783203125
1772701757679384000,6.152384033203125,-0.865692138671875,0.4118194580078125,1.1575775146484375
1772701757689432800,6.162432861328125,-1.0617828369140625,0.47955322265625,1.22021484375
1772701757699481000,6.172481201171875,-1.232666015625,0.5387420654296875,1.21630859375
1772701757709529900,6.18252978515625,-1.3328094482421875,0.5106353759765625,1.1563720703125
1772701757719578000,6.192578125,-1.33135986328125,0.4148406982421875,1.048126220703125
1772701757729627000,6.202626953125,-1.156402587890625,0.2583770751953125,0.87042236328125
1772701757739675000,6.2126748046875,-1.0648651123046875,0.200439453125,0.7561492919921875
1772701757749724000,6.222723876953125,-1.02557373046875,0.1894683837890625,0.672210693359375
1772701757759772000,6.23277197265625,-0.964263916015625,0.1595916748046875,0.62261962890625
1772701757769821000,6.242821044921875,-0.8696746826171875,0.1485595703125,0.6351165771484375
1772701757779869000,6.252868896484375,-0.787445068359375,0.14337158203125,0.649505615234375
1772701757789918000,6.26291796875,-0.72314453125,0.15032958984375,0.663818359375
1772701757799966000,6.272966064453125,-0.6623382568359375,0.177978515625,0.6686553955078125
1772701757810015000,6.283014892578125,-0.614288330078125,0.2027435302734375,0.6461639404296875
1772701757820063000,6.29306298828125,-0.607513427734375,0.226531982421875,0.5940704345703125
1772701757830112000,6.303112060546875,-0.6529083251953125,0.254486083984375,0.5540924072265625
1772701757840160000,6.313159912109375,-0.7349853515625,0.289794921875,0.5493621826171875
1772701757850209000,6.323208984375,-0.8079986572265625,0.3095855712890625,0.5595703125
1772701757860257000,6.333257080078125,-0.8594970703125,0.33770751953125,0.5872802734375
1772701757870306000,6.34330615234375,-0.881744384765625,0.352081298828125,0.59381103515625
1772701757880354000,6.35335400390625,-0.90960693359375,0.3491363525390625,0.5989990234375
1772701757890402800,6.36340283203125,-0.9512481689453125,0.3487091064453125,0.5971527099609375
1772701757900451000,6.373451171875,-0.9473114013671875,0.3523101806640625,0.6232757568359375
1772701757910498800,6.383498779296875,-0.9337005615234375,0.3717041015625,0.6935882568359375
1772701757920547800,6.3935478515625,-0.9354705810546875,0.42791748046875,0.786712646484375
1772701757930595800,6.403595947265625,-0.9539642333984375,0.4957275390625,0.88519287109375
1772701757940644900,6.413644775390625,-1.005523681640625,0.560882568359375,0.954803466796875
1772701757950692900,6.42369287109375,-1.1333160400390625,0.62738037109375,1.0271453857421875
1772701757960742000,6.433741943359375,-1.2488555908203125,0.670989990234375,1.167755126953125
1772701757970790000,6.443789794921875,-1.31060791015625,0.6860198974609375,1.26904296875
1772701757980839000,6.4538388671875,-1.329986572265625,0.6743011474609375,1.330047607421875
1772701757990887000,6.463886962890625,-1.333740234375,0.6312408447265625,1.366363525390625
1772701758000936000,6.47393603515625,-1.3441314697265625,0.5750579833984375,1.3812408447265625
1772701758010984000,6.48398388671875,-1.3531646728515625,0.488250732421875,1.3759613037109375
1772701758021032700,6.49403271484375,-1.3684234619140625,0.4184112548828125,1.3328704833984375
1772701758031081000,6.5040810546875,-1.3704071044921875,0.3628387451171875,1.2770843505859375
1772701758041129700,6.514129638671875,-1.3265228271484375,0.310577392578125,1.254852294921875
1772701758051178000,6.524177978515625,-1.202972412109375,0.2755126953125,1.2027740478515625
1772701758061226800,6.534226806640625,-1.001922607421875,0.2533721923828125,1.0736236572265625
1772701758071275000,6.54427490234375,-0.76763916015625,0.2006988525390625,0.90826416015625
1772701758081323800,6.55432373046875,-0.559814453125,0.1301727294921875,0.73468017578125
1772701758091372000,6.5643720703125,-0.3815460205078125,0.06536865234375,0.5887908935546875
1772701758101420800,6.5744208984375,-0.2196502685546875,0.0109405517578125,0.4718017578125
1772701758111469000,6.584468994140625,-0.0724945068359375,-0.0256500244140625,0.3679351806640625
1772701758121517800,6.594517822265625,0.0711822509765625,-0.047119140625,0.2741851806640625
1772701758131565800,6.60456591796875,0.209991455078125,-0.0902557373046875,0.207855224609375
1772701758141614800,6.61461474609375,0.3380126953125,-0.12091064453125,0.121002197265625
1772701758151662800,6.624662841796875,0.4373321533203125,-0.1506500244140625,0.07049560546875
1772701758161711000,6.634711181640625,0.494110107421875,-0.2051239013671875,0.025177001953125
1772701758171759900,6.644759765625,0.4796142578125,-0.186309814453125,-0.0485076904296875
1772701758181807900,6.654807861328125,0.4480438232421875,-0.1951446533203125,-0.0561981201171875
1772701758191857000,6.66485693359375,0.3964080810546875,-0.177520751953125,-0.053802490234375
1772701758201905400,6.674905517578125,0.3524627685546875,-0.121612548828125,-0.052825927734375
1772701758211954700,6.68495458984375,0.3325653076171875,-0.0914154052734375,-0.0595703125
1772701758222002400,6.69500244140625,0.2965545654296875,-0.07269287109375,-0.0664825439453125
1772701758232051700,6.7050517578125,0.254547119140625,-0.04034423828125,-0.0616302490234375
1772701758242099500,6.715099365234375,0.2220458984375,-0.005584716796875,-0.0478057861328125
1772701758252148700,6.725148681640625,0.183197021484375,0.0222320556640625,-0.00537109375
1772701758262196500,6.735196533203125,0.141448974609375,0.0446624755859375,0.0564117431640625
1772701758272245800,6.745245849609375,0.09344482421875,0.0709381103515625,0.1058502197265625
1772701758282293500,6.75529345703125,0.042449951171875,0.1101226806640625,0.133148193359375
1772701758292342500,6.765342529296875,-0.005889892578125,0.1230621337890625,0.1467742919921875
1772701758302390500,6.775390625,-0.0576019287109375,0.1084442138671875,0.197509765625
1772701758312439600,6.785439453125,-0.1349029541015625,0.1583404541015625,0.1994476318359375
1772701758322487600,6.795487548828125,-0.1711273193359375,0.1478271484375,0.381439208984375
1772701758332536600,6.80553662109375,-0.278228759765625,0.0610504150390625,0.8007965087890625
1772701758342584600,6.81558447265625,-0.6263275146484375,0.10986328125,1.22442626953125
1772701758352633600,6.825633544921875,-1.1567535400390625,0.1705322265625,1.454132080078125
1772701758362681600,6.835681640625,-1.709747314453125,0.2576904296875,1.740447998046875
1772701758372730400,6.84573046875,-2.08099365234375,0.4999542236328125,2.31317138671875
1772701758382778600,6.855778564453125,-1.9350433349609375,0.7418365478515625,2.851165771484375
1772701758392827400,6.865827392578125,-2.0178680419921875,0.7035369873046875,2.876739501953125
1772701758402875400,6.87587548828125,-2.4610137939453125,0.69586181640625,2.5826263427734375
1772701758412924400,6.88592431640625,-2.61431884765625,0.7973785400390625,2.1180877685546875
1772701758422972400,6.895972412109375,-2.19720458984375,0.79248046875,1.6352081298828125
1772701758433020700,6.906020751953125,-1.7314453125,0.6873626708984375,1.0565338134765625
1772701758443069400,6.9160693359375,-1.5977020263671875,0.662261962890625,0.712127685546875
1772701758453117700,6.92611767578125,-1.3189239501953125,0.6701202392578125,0.6647491455078125
1772701758463166500,6.93616650390625,-1.012054443359375,0.533935546875,0.74609375
1772701758473214700,6.946214599609375,-0.8449249267578125,0.373199462890625,0.691619873046875
1772701758483263500,6.956263427734375,-0.68341064453125,0.2719879150390625,0.58544921875
1772701758493311700,6.966311767578125,-0.5009002685546875,0.22265625,0.490386962890625
1772701758503360500,6.976360595703125,-0.3458709716796875,0.1760101318359375,0.4313812255859375
1772701758513408500,6.986408447265625,-0.2059326171875,0.121612548828125,0.3709259033203125
1772701758523457500,6.99645751953125,-0.0890655517578125,0.077239990234375,0.31494140625
1772701758533505500,7.006505615234375,-0.0240325927734375,0.0569305419921875,0.2928924560546875
1772701758543554600,7.016554443359375,-0.0352020263671875,0.08941650390625,0.3242645263671875
1772701758553602600,7.0266025390625,-0.141448974609375,0.1698455810546875,0.435699462890625
1772701758563651600,7.036651611328125,-0.2302398681640625,0.2341156005859375,0.5139007568359375
1772701758573699600,7.046699462890625,-0.3043975830078125,0.255767822265625,0.5303192138671875
1772701758583748600,7.05674853515625,-0.41448974609375,0.2747344970703125,0.529388427734375
1772701758593796600,7.066796630859375,-0.5042572021484375,0.2761077880859375,0.5921478271484375
1772701758603845600,7.076845703125,-0.5498809814453125,0.2480010986328125,0.6865997314453125
1772701758613893600,7.0868935546875,-0.6219940185546875,0.2423095703125,0.7429656982421875
1772701758623942700,7.096942626953125,-0.713531494140625,0.260772705078125,0.7585601806640625
1772701758633990400,7.106990478515625,-0.822998046875,0.2831878662109375,0.78228759765625
1772701758644039700,7.117039794921875,-0.91107177734375,0.2858734130859375,0.8194580078125
1772701758654087400,7.12708740234375,-0.9342498779296875,0.2825164794921875,0.8558807373046875
1772701758664136700,7.13713671875,-0.9135589599609375,0.31048583984375,0.9032745361328125
1772701758674184400,7.147184326171875,-0.9130096435546875,0.3516082763671875,0.9420928955078125
1772701758684232400,7.157232421875,-0.84027099609375,0.335784912109375,0.951568603515625
1772701758694281500,7.167281494140625,-0.742828369140625,0.2305755615234375,0.9293060302734375
1772701758704329500,7.17732958984375,-0.65716552734375,0.1334686279296875,0.89111328125
1772701758714378500,7.18737841796875,-0.5526885986328125,0.1137237548828125,0.8593292236328125
1772701758724426500,7.197426513671875,-0.487152099609375,0.1806793212890625,0.864105224609375
1772701758734475500,7.2074755859375,-0.46380615234375,0.1475830078125,0.8714752197265625
1772701758744523500,7.2175234375,-0.4659271240234375,0.1202239990234375,0.9038848876953125
1772701758754572500,7.227572509765625,-0.45050048828125,0.13177490234375,0.9237213134765625
1772701758764620500,7.23762060546875,-0.4451141357421875,0.12322998046875,0.9059906005859375
1772701758774669600,7.247669677734375,-0.43963623046875,0.124725341796875,0.912353515625
1772701758784717600,7.257717529296875,-0.4350433349609375,0.165496826171875,0.90185546875
1772701758794766300,7.267766357421875,-0.4552001953125,0.223663330078125,0.865020751953125
1772701758804814600,7.277814697265625,-0.443328857421875,0.24566650390625,0.83453369140625
1772701758814863400,7.28786328125,-0.4046783447265625,0.248931884765625,0.808837890625
1772701758824911600,7.29791162109375,-0.3618316650390625,0.2385711669921875,0.7933197021484375
1772701758834960400,7.30796044921875,-0.30633544921875,0.2281036376953125,0.8083343505859375
1772701758845008600,7.318008544921875,-0.2940673828125,0.210693359375,0.84527587890625
1772701758855057400,7.328057373046875,-0.32220458984375,0.1960906982421875,0.8620452880859375
1772701758865105700,7.338105712890625,-0.3605804443359375,0.1949462890625,0.8674774169921875
1772701758875154400,7.348154541015625,-0.3867950439453125,0.193817138671875,0.8567657470703125
1772701758885202700,7.35820263671875,-0.3973846435546875,0.17864990234375,0.8535614013671875
1772701758895251500,7.36825146484375,-0.388671875,0.1978759765625,0.8504486083984375
1772701758905299500,7.378299560546875,-0.3740386962890625,0.2242584228515625,0.84600830078125
1772701758915348500,7.388348388671875,-0.380523681640625,0.226318359375,0.84344482421875
1772701758925396500,7.398396484375,-0.415618896484375,0.236175537109375,0.8431854248046875
1772701758935445500,7.408445556640625,-0.467926025390625,0.247528076171875,0.8494720458984375
1772701758945493500,7.418493408203125,-0.5056915283203125,0.2328033447265625,0.8745880126953125
1772701758955542500,7.42854248046875,-0.4923248291015625,0.219879150390625,0.8936614990234375
1772701758965590500,7.438590576171875,-0.4445953369140625,0.2178955078125,0.8911285400390625
1772701758975639600,7.4486396484375,-0.4013519287109375,0.2059173583984375,0.882110595703125
1772701758985687600,7.4586875,-0.3670501708984375,0.20684814453125,0.86932373046875
1772701758995735600,7.468735595703125,-0.3496246337890625,0.19976806640625,0.8651885986328125
1772701759005784600,7.47878466796875,-0.3410797119140625,0.1976165771484375,0.8696441650390625
1772701759015832300,7.488832275390625,-0.3771514892578125,0.2194366455078125,0.870758056640625
1772701759025881600,7.498881591796875,-0.4352569580078125,0.2182159423828125,0.8717041015625
1772701759035929300,7.508929443359375,-0.4756011962890625,0.203369140625,0.888671875
1772701759045978600,7.518978515625,-0.4842376708984375,0.1980438232421875,0.9066925048828125
1772701759056026400,7.5290263671875,-0.48291015625,0.2031097412109375,0.8939056396484375
1772701759066075600,7.53907568359375,-0.4660186767578125,0.2085113525390625,0.8705596923828125
1772701759076123400,7.549123291015625,-0.448394775390625,0.2227020263671875,0.8523406982421875
1772701759086172700,7.559172607421875,-0.438873291015625,0.2351837158203125,0.8381195068359375
1772701759096220400,7.569220458984375,-0.4405364990234375,0.2303009033203125,0.839599609375
1772701759106269700,7.579269775390625,-0.4522857666015625,0.2319793701171875,0.8443756103515625
1772701759116317400,7.5893173828125,-0.4665985107421875,0.22247314453125,0.848388671875
1772701759126366700,7.59936669921875,-0.47113037109375,0.2065582275390625,0.86767578125
1772701759136414500,7.60941455078125,-0.474212646484375,0.2061614990234375,0.88189697265625
1772701759146463700,7.619463623046875,-0.4907073974609375,0.2137298583984375,0.8812103271484375
1772701759156511500,7.629511474609375,-0.502105712890625,0.2211761474609375,0.8721466064453125
1772701759166560800,7.639560791015625,-0.5098876953125,0.2301025390625,0.8554229736328125
1772701759176608500,7.6496083984375,-0.510772705078125,0.2305145263671875,0.8525848388671875
1772701759186657500,7.659657470703125,-0.4968414306640625,0.2307281494140625,0.8507843017578125
1772701759196705300,7.669705322265625,-0.478607177734375,0.2345123291015625,0.847808837890625
1772701759206754600,7.679754638671875,-0.4723663330078125,0.2247467041015625,0.857879638671875
1772701759216802300,7.68980224609375,-0.4752960205078125,0.2163543701171875,0.8776397705078125
1772701759226851300,7.699851318359375,-0.4825286865234375,0.218292236328125,0.8804931640625
1772701759236899300,7.7098994140625,-0.48486328125,0.2210540771484375,0.869537353515625
1772701759246948400,7.7199482421875,-0.4775238037109375,0.224395751953125,0.86248779296875
1772701759256996400,7.729996337890625,-0.4680328369140625,0.2269287109375,0.8568572998046875
1772701759267045400,7.74004541015625,-0.4676361083984375,0.2278289794921875,0.853759765625
1772701759277093400,7.75009326171875,-0.47760009765625,0.227020263671875,0.857086181640625
1772701759287142400,7.760142333984375,-0.4854736328125,0.22589111328125,0.865264892578125
1772701759297190400,7.7701904296875,-0.4842529296875,0.224212646484375,0.87152099609375
1772701759307238400,7.78023828125,-0.48095703125,0.2292022705078125,0.8753662109375
1772701759317287400,7.790287353515625,-0.4605255126953125,0.216705322265625,0.864227294921875
1772701759327335400,7.80033544921875,-0.335418701171875,0.188690185546875,0.84161376953125
1772701759337384200,7.81038427734375,-0.4157867431640625,0.1808929443359375,0.8524627685546875
1772701759347432400,7.820432373046875,-0.49127197265625,0.1717529296875,0.8734130859375
1772701759357481200,7.830481201171875,-0.5690155029296875,0.204071044921875,0.85919189453125
1772701759367529500,7.840529541015625,-0.565155029296875,0.235198974609375,0.8648681640625
1772701759377578200,7.850578125,-0.540496826171875,0.2181243896484375,0.882354736328125
1772701759387626500,7.86062646484375,-0.5030059814453125,0.2103118896484375,0.8902587890625
1772701759397675300,7.87067529296875,-0.4556732177734375,0.2097320556640625,0.8701019287109375
