time,seconds_elapsed,z,y,x
1772701751590022100,0.063022216796875,0.05411063879728317,0.13035453855991364,-0.18159669637680054
1772701751600071200,0.0730712890625,0.04711238294839859,0.1011497899889946,-0.1792331337928772
1772701751610119200,0.083119140625,0.04910869151353836,0.06560883671045303,-0.16876637935638428
1772701751620168200,0.093168212890625,0.056535981595516205,0.053881339728832245,-0.14994315803050995
1772701751630216200,0.10321630859375,0.06893965601921082,0.06332571059465408,-0.11293960362672806
1772701751640264200,0.11326416015625,0.0868305042386055,0.06958227604627609,-0.06913459300994873
1772701751650313200,0.123313232421875,0.09999503940343857,0.07484840601682663,-0.03386235982179642
1772701751660361200,0.133361328125,0.10974114388227463,0.07469767332077026,0.001207477180287242
1772701751670410200,0.14341015625,0.1167343407869339,0.0724659413099289,0.03524800017476082
1772701751680458200,0.153458251953125,0.12129340320825577,0.0701758936047554,0.06568899750709534
1772701751690506200,0.16350634765625,0.12312193214893341,0.06681790947914124,0.09071499109268188
1772701751700555000,0.173554931640625,0.12828978896141052,0.09538856893777847,0.1075458973646164
1772701751710603300,0.183603271484375,0.12697046995162964,0.12116024643182755,0.1196984350681305
1772701751720652000,0.193652099609375,0.12007900327444077,0.12447481602430344,0.1128314733505249
1772701751730700300,0.2037001953125,0.11870934069156647,0.11529277265071869,0.11025939881801605
1772701751740749000,0.2137490234375,0.11423416435718536,0.1255272924900055,0.10726253688335419
1772701751750797300,0.22379736328125,0.10854405164718628,0.13050980865955353,0.10664202272891998
1772701751760845300,0.23384521484375,0.10247497260570526,0.13136814534664154,0.108460433781147
1772701751770894300,0.243894287109375,0.08989366888999939,0.13636024296283722,0.10409710556268692
1772701751780942000,0.253942138671875,0.08085224032402039,0.1399856060743332,0.10007333755493164
1772701751790991400,0.263991455078125,0.06747092306613922,0.15237648785114288,0.09694625437259674
1772701751801039000,0.2740390625,0.06727437674999237,0.17649753391742706,0.1002323254942894
1772701751811088400,0.28408837890625,0.05811816453933716,0.2058226764202118,0.10776321589946747
1772701751821136100,0.29413623046875,0.053159624338150024,0.2518969476222992,0.11539450287818909
1772701751831184100,0.30418408203125,0.03151664882898331,0.28782832622528076,0.1303577423095703
1772701751841233200,0.314233154296875,-0.0016317188274115324,0.3068177402019501,0.1431443691253662
1772701751851281200,0.32428125,-0.030702784657478333,0.32020917534828186,0.16834692656993866
1772701751861330200,0.334330078125,-0.05369118973612785,0.357147216796875,0.21158015727996826
1772701751871378200,0.344378173828125,-0.06937268376350403,0.43283718824386597,0.2772723436355591
1772701751881427200,0.35442724609375,-0.07714884728193283,0.5215859413146973,0.3604804277420044
1772701751891475200,0.36447509765625,-0.07866711169481277,0.6095099449157715,0.4553145170211792
1772701751901524200,0.374524169921875,-0.09427137672901154,0.675967812538147,0.5394288897514343
1772701751911572200,0.384572265625,-0.1357961744070053,0.6754271984100342,0.6098929047584534
1772701751921620200,0.3946201171875,-0.20240209996700287,0.6259626746177673,0.6464461088180542
1772701751931669200,0.404669189453125,-0.2667001485824585,0.5316862463951111,0.64833003282547
1772701751941717200,0.41471728515625,-0.32667452096939087,0.4252042770385742,0.6521018743515015
1772701751951766300,0.424766357421875,-0.36996421217918396,0.309253990650177,0.6432612538337708
1772701751961814300,0.434814208984375,-0.4042057991027832,0.22002238035202026,0.6090660095214844
1772701751971863300,0.44486328125,-0.45983630418777466,0.18073782324790955,0.5544989109039307
1772701751981911300,0.454911376953125,-0.5014420747756958,0.18748600780963898,0.48632383346557617
1772701751991959000,0.464958984375,-0.5405498147010803,0.20999957621097565,0.40488144755363464
1772701752002008300,0.47500830078125,-0.5538560152053833,0.15310832858085632,0.33993279933929443
1772701752012056000,0.48505615234375,-0.5472231507301331,-0.05732747167348862,0.31937479972839355
1772701752022105300,0.495105224609375,-0.5350226759910583,-0.47429168224334717,0.38850700855255127
1772701752032153000,0.505153076171875,-0.5022332668304443,-0.9983072280883789,0.506653368473053
1772701752042202000,0.5152021484375,-0.45531612634658813,-1.4397575855255127,0.6152014136314392
1772701752052250000,0.52525,-0.36804327368736267,-1.7283114194869995,0.6689242720603943
1772701752062298400,0.53529833984375,-0.23542876541614532,-1.8367459774017334,0.6163143515586853
1772701752072347100,0.54534716796875,-0.07402442395687103,-1.7400673627853394,0.46599194407463074
1772701752082395400,0.5553955078125,0.07282014191150665,-1.3212032318115234,0.31416457891464233
1772701752092444200,0.565444091796875,0.15966317057609558,-0.9147721529006958,0.2465844750404358
1772701752102492200,0.5754921875,0.22952640056610107,-0.8905214071273804,0.2636558711528778
1772701752112541200,0.585541259765625,0.25586000084877014,-1.13101065158844,0.34205615520477295
1772701752122589200,0.595589111328125,0.22614605724811554,-1.2820603847503662,0.4540817439556122
1772701752132638200,0.60563818359375,0.18887297809123993,-1.3099572658538818,0.5559253096580505
1772701752142686200,0.615686279296875,0.16329944133758545,-1.3226794004440308,0.6112402081489563
1772701752152734200,0.625734130859375,0.13478071987628937,-1.459234595298767,0.5974652767181396
1772701752162783200,0.635783203125,0.11414707452058792,-1.650903344154358,0.5907759666442871
1772701752172831200,0.645831298828125,0.17201943695545197,-1.803686261177063,0.6409080624580383
1772701752182880300,0.65588037109375,0.33193239569664,-1.8932985067367554,0.7581867575645447
1772701752192927700,0.665927734375,0.5406289100646973,-1.8219460248947144,0.8666775822639465
1772701752202977000,0.67597705078125,0.7126949429512024,-1.622927188873291,0.8607432246208191
1772701752213024800,0.686024658203125,0.800599217414856,-1.530499815940857,0.6955167651176453
1772701752223073000,0.696072998046875,0.8164977431297302,-1.5945074558258057,0.41149991750717163
1772701752233121800,0.706121826171875,0.7763878703117371,-1.6600279808044434,0.12044518440961838
1772701752243170000,0.716170166015625,0.6782599687576294,-1.6720688343048096,-0.13265231251716614
1772701752253218800,0.72621875,0.659687876701355,-1.6338160037994385,-0.28309935331344604
1772701752263267000,0.73626708984375,0.555363118648529,-1.4700108766555786,-0.4860854744911194
1772701752273315800,0.74631591796875,0.582724928855896,-1.3658641576766968,-0.6291022896766663
1772701752283364000,0.756364013671875,0.4666747748851776,-1.083910584449768,-0.8151800036430359
1772701752293412000,0.766412109375,0.4230242371559143,-0.706976592540741,-0.9260159730911255
1772701752303460900,0.7764609375,0.41077661514282227,-0.31511959433555603,-0.9500025510787964
1772701752313508900,0.7865087890625,0.46499377489089966,-0.009769540280103683,-0.8666847348213196
1772701752323558000,0.796557861328125,0.4150131642818451,0.24000035226345062,-0.7234846949577332
1772701752333606000,0.80660595703125,0.41080644726753235,0.3996925354003906,-0.5484015941619873
1772701752343655000,0.816655029296875,0.41452473402023315,0.5085154175758362,-0.31745147705078125
1772701752353703000,0.826702880859375,0.44421979784965515,0.5917115211486816,-0.08578574657440186
1772701752363752000,0.836751953125,0.4681895673274994,0.6779326796531677,0.07836830615997314
1772701752373800000,0.846800048828125,0.4661056399345398,0.7690442204475403,0.19373005628585815
1772701752383848000,0.856847900390625,0.46581724286079407,0.8198248147964478,0.27397269010543823
1772701752393897000,0.86689697265625,0.46027040481567383,0.8391977548599243,0.32134315371513367
1772701752403945000,0.876945068359375,0.43400442600250244,0.8641353249549866,0.3159715533256531
1772701752413993700,0.88699365234375,0.3970557451248169,0.8866251707077026,0.25150254368782043
1772701752424042000,0.8970419921875,0.3591232895851135,0.9319385886192322,0.14007295668125153
1772701752434090800,0.9070908203125,0.32931825518608093,0.9944392442703247,0.010910704731941223
1772701752444139000,0.917138916015625,0.3170408010482788,1.0609596967697144,-0.10512455552816391
1772701752454187000,0.92718701171875,0.31643572449684143,1.095798373222351,-0.19699855148792267
1772701752464236000,0.937236083984375,0.3229634165763855,1.0698764324188232,-0.29529476165771484
1772701752474284000,0.947283935546875,0.3318392038345337,1.0542922019958496,-0.3993878662586212
1772701752484333000,0.9573330078125,0.3842802941799164,1.0498969554901123,-0.4984758496284485
1772701752494381000,0.967381103515625,0.48172029852867126,1.0759615898132324,-0.5713814496994019
1772701752504430000,0.97743017578125,0.5881993174552917,1.0994418859481812,-0.6133880615234375
1772701752514478000,0.98747802734375,0.6669564843177795,0.9766799807548523,-0.6522228121757507
1772701752524527000,0.997527099609375,0.7612435817718506,0.8207178115844727,-0.6534934043884277
1772701752534575000,1.0075751953125,0.8377793431282043,0.6788618564605713,-0.6579952239990234
1772701752544622800,1.017622802734375,0.8454535007476807,0.48829910159111023,-0.6889474987983704
1772701752554672000,1.027672119140625,0.8036983609199524,0.399360716342926,-0.840197741985321
1772701752564719900,1.037719970703125,0.9010283350944519,0.5322545766830444,-1.1762272119522095
1772701752574769000,1.047768798828125,1.1184666156768799,0.5718904137611389,-1.5419119596481323
1772701752584817000,1.05781689453125,1.3379311561584473,0.13898532092571259,-1.7139472961425781
1772701752594866000,1.067865966796875,1.7877241373062134,-0.03742806613445282,-1.818100929260254
1772701752604914000,1.077913818359375,2.0623857975006104,-0.11094489693641663,-1.661266565322876
1772701752614962000,1.0879619140625,1.5572991371154785,0.2346647083759308,-0.9650616645812988
1772701752625011000,1.098010986328125,0.7766600847244263,1.3513518571853638,-0.14274276793003082
1772701752635059000,1.108058837890625,0.25992879271507263,1.0675514936447144,0.7326657176017761
1772701752645108000,1.11810791015625,-0.019706061109900475,0.49162033200263977,1.3746707439422607
1772701752655156000,1.128156005859375,-0.23228757083415985,0.1782059520483017,1.4751989841461182
1772701752665205000,1.138205078125,-0.3425741195678711,0.31451746821403503,1.2908562421798706
1772701752675253000,1.1482529296875,-0.3301329016685486,0.6937212347984314,0.9777289628982544
1772701752685302000,1.158302001953125,-0.2805219292640686,0.9930773377418518,0.604394793510437
1772701752695350000,1.16835009765625,-0.28289616107940674,1.1015598773956299,0.26249366998672485
1772701752705397800,1.178397705078125,-0.3088872730731964,1.1647151708602905,-0.03521790727972984
1772701752715447000,1.188447021484375,-0.3187790513038635,1.2702887058258057,-0.29910334944725037
1772701752725494800,1.198494873046875,-0.30948060750961304,1.3932510614395142,-0.5249798893928528
1772701752735544000,1.2085439453125,-0.32309043407440186,1.505639672279358,-0.7242421507835388
1772701752745591800,1.218591796875,-0.3743736147880554,1.6030442714691162,-0.8630229234695435
1772701752755641000,1.22864111328125,-0.45118796825408936,1.655139684677124,-0.9371131062507629
1772701752765688800,1.238688720703125,-0.4894956648349762,1.5895252227783203,-0.9898791313171387
1772701752775738000,1.248738037109375,-0.4100905954837799,1.4103821516036987,-1.010471224784851
1772701752785785900,1.258785888671875,-0.23082229495048523,1.149399757385254,-0.9500688910484314
1772701752795834000,1.268834228515625,-0.046849798411130905,0.7912920117378235,-0.7346228361129761
1772701752805883000,1.2788828125,0.06208387762308121,0.09878835827112198,-0.529295802116394
1772701752815931000,1.288930908203125,0.1417483389377594,-0.4247520864009857,-0.3239288032054901
1772701752825980000,1.29897998046875,0.20672202110290527,-0.4968912601470947,-0.22916953265666962
1772701752836028000,1.30902783203125,0.17381440103054047,-0.39167723059654236,-0.24563400447368622
1772701752846077000,1.319076904296875,0.11530182510614395,-0.3935030996799469,-0.25057122111320496
1772701752856125000,1.329125,0.03984887897968292,-0.6225717067718506,-0.28150251507759094
1772701752866173000,1.3391728515625,-0.1429518312215805,-1.0353976488113403,-0.34693238139152527
1772701752876222000,1.349221923828125,-0.39238694310188293,-1.5507967472076416,-0.43622151017189026
1772701752886270000,1.35927001953125,-0.5353076457977295,-2.2053325176239014,-0.574201226234436
1772701752896319000,1.369319091796875,-0.566585123538971,-2.618229627609253,-1.1706265211105347
1772701752906367000,1.379366943359375,-0.543505072593689,-2.4124321937561035,-1.537750005722046
1772701752916416000,1.389416015625,-0.2479003518819809,-1.3332327604293823,-1.416264295578003
1772701752926463700,1.399463623046875,0.11021438986063004,0.15981975197792053,-1.233432412147522
1772701752936513000,1.409512939453125,0.4143625497817993,1.1813217401504517,-1.2134698629379272
1772701752946560800,1.419560791015625,0.5063031315803528,1.235516905784607,-1.2862958908081055
1772701752956609000,1.429609130859375,0.45283856987953186,0.8816583752632141,-1.1970511674880981
1772701752966657800,1.43965771484375,0.3496330976486206,0.24857252836227417,-1.010619044303894
1772701752976706000,1.4497060546875,0.22672368586063385,-0.11179417371749878,-0.9547935724258423
1772701752986754800,1.4597548828125,0.08651624619960785,-0.050809118896722794,-0.9513285160064697
1772701752996803000,1.469802978515625,-0.14711567759513855,0.11188818514347076,-0.882717490196228
1772701753006851800,1.479851806640625,-0.4776507318019867,0.1446610391139984,-0.7845137119293213
1772701753016900000,1.489900146484375,-0.8321413993835449,-0.004594751633703709,-0.6637539863586426
1772701753026948000,1.499947998046875,-1.1120710372924805,-0.3505691885948181,-0.4514225721359253
1772701753036996900,1.509996826171875,-1.1669337749481201,-0.6799694895744324,-0.12385430186986923
1772701753047045000,1.520045166015625,-1.024359107017517,-0.7589428424835205,0.2640758454799652
1772701753057094000,1.530093994140625,-0.7491546869277954,-0.4523293972015381,0.6187844276428223
1772701753067142000,1.540141845703125,-0.6649495363235474,-0.04935663193464279,0.946585476398468
1772701753077191000,1.55019091796875,-0.7719260454177856,0.170282781124115,1.3074861764907837
1772701753087239000,1.560239013671875,-0.817026674747467,0.2458832710981369,1.7051959037780762
1772701753097288000,1.570287841796875,-0.6761688590049744,0.1960965394973755,2.0896458625793457
1772701753107336000,1.5803359375,-0.4598988890647888,0.22732876241207123,2.1507747173309326
1772701753117384000,1.590384033203125,-0.3281320631504059,0.4169660806655884,1.938180923461914
1772701753127433000,1.600432861328125,-0.2622108459472656,0.6032560467720032,1.5741827487945557
1772701753137481000,1.61048095703125,-0.1289185732603073,0.355318158864975,1.1500227451324463
1772701753147529700,1.62052978515625,-0.08256624639034271,-0.4818819463253021,0.813445508480072
1772701753157578000,1.630577880859375,-0.08787978440523148,-1.3543026447296143,0.6730308532714844
1772701753167626800,1.640626708984375,-0.06347937136888504,-1.6425727605819702,0.6274700164794922
1772701753177675000,1.650675048828125,0.07634803652763367,-1.0253076553344727,0.6747882962226868
1772701753187723800,1.660723876953125,0.1389983594417572,0.08746779710054398,0.8843711018562317
1772701753197771300,1.670771240234375,0.16559642553329468,1.1104223728179932,1.1833915710449219
1772701753207820300,1.6808203125,0.17736226320266724,1.7170437574386597,1.0721827745437622
1772701753217868300,1.690868408203125,-0.00917245913296938,1.228211522102356,0.4630800485610962
1772701753227916500,1.70091650390625,-0.34001561999320984,-0.19787366688251495,-0.2229108363389969
1772701753237965300,1.71096533203125,-0.5672003030776978,-1.4070448875427246,-0.4745316207408905
1772701753248013600,1.721013671875,-0.6405839920043945,-1.6429823637008667,-0.7296273112297058
1772701753258062300,1.731062255859375,-0.6900591254234314,-1.3809696435928345,-1.076990008354187
1772701753268110600,1.741110595703125,-0.7039938569068909,-0.8574782013893127,-1.3996953964233398
1772701753278159400,1.751159423828125,-0.5819281339645386,-0.3514626920223236,-1.5720258951187134
1772701753288207600,1.76120751953125,-0.3103101849555969,0.14934900403022766,-1.5890618562698364
1772701753298255400,1.77125537109375,-0.02647128887474537,0.4570003151893616,-1.430021047592163
1772701753308304400,1.781304443359375,0.16396576166152954,0.5509148240089417,-1.0158958435058594
1772701753318352400,1.791352294921875,0.3453803062438965,0.41027408838272095,-0.48421648144721985
1772701753328401400,1.8014013671875,0.5056722164154053,0.18721222877502441,-0.038718100637197495
1772701753338449400,1.811449462890625,0.5605682134628296,0.22949470579624176,0.2600265145301819
1772701753348498400,1.82149853515625,0.5801424980163574,0.34196585416793823,0.4957152009010315
1772701753358546400,1.83154638671875,0.5964758992195129,0.3598143756389618,0.6836560964584351
1772701753368595500,1.841595458984375,0.5765892863273621,0.30613836646080017,0.8205021023750305
1772701753378643500,1.8516435546875,0.5154103636741638,0.2541763484477997,0.8881018757820129
1772701753388691500,1.86169140625,0.4115827679634094,0.21779197454452515,0.8991385698318481
1772701753398740500,1.871740478515625,0.27550429105758667,0.21921038627624512,0.9221083521842957
1772701753408788500,1.88178857421875,0.1172853484749794,0.22534257173538208,0.9298695921897888
1772701753418837200,1.891837158203125,-0.02365739271044731,0.23046836256980896,0.9154466986656189
1772701753428885500,1.901885498046875,-0.14081384241580963,0.17584745585918427,0.8891096115112305
1772701753438934300,1.911934326171875,-0.2210271954536438,0.026613235473632812,0.867323637008667
1772701753448982500,1.921982421875,-0.28951969742774963,-0.11224744468927383,0.8023750185966492
1772701753459031300,1.93203125,-0.33524563908576965,-0.17686079442501068,0.6978882551193237
1772701753469079600,1.94207958984375,-0.34170645475387573,-0.11016112565994263,0.5293226838111877
1772701753479127300,1.952127197265625,-0.3540329039096832,0.07379912585020065,0.3137904107570648
1772701753489176600,1.962176513671875,-0.38474369049072266,0.09534942358732224,0.1404191553592682
1772701753499224300,1.972224365234375,-0.3908417820930481,0.018258899450302124,-0.0011377023765817285
1772701753509273600,1.982273681640625,-0.4051131308078766,-0.05680948495864868,-0.1358286738395691
1772701753519321300,1.9923212890625,-0.44224637746810913,-0.0780244916677475,-0.25353267788887024
1772701753529370400,2.002370361328125,-0.471016526222229,-0.10040117055177689,-0.2658252716064453
1772701753539418400,2.01241845703125,-0.4710780382156372,-0.11778043210506439,-0.15809856355190277
1772701753549467400,2.02246728515625,-0.4624145030975342,0.06504318118095398,0.0494152195751667
1772701753559515400,2.032515380859375,-0.36208710074424744,0.056412409991025925,0.45667514204978943
1772701753569563400,2.0425634765625,-0.19102375209331512,-0.1993115097284317,1.0330278873443604
1772701753579612400,2.0526123046875,-0.05491730943322182,-0.15440155565738678,1.4203354120254517
1772701753589660400,2.062660400390625,0.003309244057163596,0.8030993938446045,1.353137731552124
1772701753599709400,2.07270947265625,0.11208099871873856,1.8684756755828857,1.1809654235839844
1772701753609757400,2.08275732421875,0.0637238547205925,1.9601083993911743,0.9080931544303894
1772701753619806500,2.092806396484375,-0.19265680015087128,1.0285139083862305,0.40209177136421204
1772701753629854500,2.1028544921875,-0.23583756387233734,0.11809708178043365,-0.06285832077264786
1772701753639903200,2.1129033203125,-0.23700961470603943,-0.4552335739135742,-0.23266707360744476
1772701753649951500,2.122951416015625,-0.16141046583652496,-0.7131591439247131,-0.12766608595848083
1772701753659999500,2.13299951171875,-0.017237575724720955,-0.5623147487640381,0.1968369036912918
1772701753670048500,2.143048583984375,0.11489436030387878,-0.245949849486351,0.5742558240890503
1772701753680096500,2.153096435546875,0.13322170078754425,0.004520449787378311,0.8074997067451477
1772701753690145500,2.1631455078125,0.09722907841205597,-0.09267827123403549,0.8990203142166138
1772701753700193300,2.173193359375,0.1461161971092224,-0.3798708915710449,0.9189077615737915
1772701753710242600,2.18324267578125,0.23172537982463837,-0.6271914839744568,0.8859671354293823
1772701753720290300,2.193290283203125,0.19618016481399536,-0.7107998132705688,0.7475115060806274
1772701753730339600,2.203339599609375,0.11291936039924622,-0.6911544799804688,0.5340620875358582
1772701753740387300,2.21338720703125,0.04946901649236679,-0.5777767896652222,0.24348509311676025
1772701753750435300,2.223435302734375,-0.0013464941876009107,-0.4067952036857605,-0.07801410555839539
1772701753760484400,2.233484375,-0.060742974281311035,-0.3533495366573334,-0.3547618091106415
1772701753770532400,2.243532470703125,-0.11208126693964005,-0.5835726261138916,-0.5405223369598389
1772701753780581400,2.253581298828125,-0.10312185436487198,-0.9485082626342773,-0.6169596314430237
1772701753790629400,2.26362939453125,-0.08993148803710938,-1.117407202720642,-0.6480831503868103
1772701753800678400,2.273678466796875,-0.1717027872800827,-0.9587132334709167,-0.7025826573371887
1772701753810726400,2.283726318359375,-0.3493340313434601,-0.6875320672988892,-0.7654574513435364
1772701753820775400,2.293775390625,-0.5726802945137024,-0.2539784908294678,-0.8265399932861328
1772701753830823400,2.303823486328125,-0.688602089881897,0.2850269377231598,-0.7880892753601074
1772701753840871400,2.313871337890625,-0.6163132786750793,0.721700131893158,-0.6094279289245605
1772701753850920400,2.32392041015625,-0.472364604473114,1.0184357166290283,-0.36426663398742676
1772701753860968400,2.333968505859375,-0.2624092400074005,1.0330449342727661,0.07739731669425964
1772701753871017500,2.344017578125,-0.0467376783490181,0.6489612460136414,0.6982147693634033
1772701753881065500,2.3540654296875,0.0931248813867569,0.20454461872577667,1.0709998607635498
1772701753891114500,2.364114501953125,0.14389406144618988,0.28509750962257385,1.1912442445755005
1772701753901162500,2.37416259765625,0.13965456187725067,0.5756089687347412,1.1384161710739136
1772701753911211500,2.38421142578125,0.1421097368001938,0.7202202081680298,1.0308667421340942
1772701753921259500,2.394259521484375,0.14936205744743347,0.7350937128067017,0.8918026089668274
1772701753931307300,2.404307373046875,0.12984775006771088,0.7562599778175354,0.7036218047142029
1772701753941356500,2.4143564453125,0.09701709449291229,0.706299901008606,0.5140337347984314
1772701753951404300,2.424404296875,0.07491472363471985,0.5491014719009399,0.33532845973968506
1772701753961453300,2.434453369140625,0.07577625662088394,0.3223082721233368,0.21417833864688873
1772701753971501300,2.444501220703125,0.0807342603802681,0.03606665879487991,0.11241069436073303
1772701753981550300,2.45455029296875,0.08657004684209824,-0.23489932715892792,0.04898139089345932
1772701753991598300,2.464598388671875,0.09480161219835281,-0.40999549627304077,0.0007800398743711412
1772701754001647400,2.4746474609375,0.10817041248083115,-0.5079500079154968,-0.09309665113687515
1772701754011695400,2.4846953125,0.11471246927976608,-0.5357462763786316,-0.30234095454216003
1772701754021743400,2.494743408203125,0.08997169882059097,-0.3601858913898468,-0.5630108714103699
1772701754031792400,2.50479248046875,0.0497443862259388,-0.0866781696677208,-0.7419694662094116
1772701754041840400,2.51484033203125,0.02737090364098549,-0.020714066922664642,-0.8240715265274048
1772701754051889400,2.524889404296875,0.022819295525550842,-0.019473565742373466,-0.821143627166748
1772701754061937400,2.5349375,0.05269943177700043,0.2779192328453064,-0.8447318077087402
1772701754071986400,2.544986328125,0.10050316900014877,0.7802140712738037,-0.9111542105674744
1772701754082034400,2.555034423828125,0.06397552043199539,1.1669764518737793,-0.9718961119651794
1772701754092083500,2.56508349609375,-0.048524659126996994,0.8895522356033325,-0.8366525769233704
1772701754102131500,2.57513134765625,-0.15706418454647064,0.27591466903686523,-0.7290480732917786
1772701754112180500,2.585180419921875,0.002835467690601945,0.4026326835155487,-0.5788788199424744
1772701754122228500,2.595228515625,0.10601431876420975,0.25059226155281067,-0.4684164822101593
1772701754132276200,2.605276123046875,0.19081655144691467,-0.36458489298820496,-0.45298346877098083
1772701754142325500,2.615325439453125,0.22940629720687866,-0.7197970151901245,-0.2816500663757324
1772701754152373200,2.625373291015625,0.24507367610931396,-0.5271756649017334,0.20525461435317993
1772701754162422500,2.635422607421875,0.22661690413951874,-0.34064626693725586,0.8069739937782288
1772701754172470300,2.64547021484375,0.1563592404127121,-0.09401305019855499,1.284752368927002
1772701754182519600,2.65551953125,0.11537319421768188,0.05167438089847565,1.5575917959213257
1772701754192568300,2.665568359375,0.12124786525964737,0.06306125968694687,1.6167006492614746
1772701754202617300,2.675617431640625,0.13621003925800323,0.08470609784126282,1.5490294694900513
1772701754212665300,2.685665283203125,0.16465073823928833,0.10727053135633469,1.3976165056228638
1772701754222713300,2.69571337890625,0.18667027354240417,0.07996274530887604,1.1816952228546143
1772701754232762400,2.705762451171875,0.1664086878299713,-0.09081832319498062,0.9403547048568726
1772701754242810400,2.715810302734375,0.06995644420385361,-0.3282913267612457,0.7172721028327942
1772701754252859400,2.725859375,-0.06866054981946945,-0.5598747730255127,0.5258022546768188
1772701754262907400,2.735907470703125,-0.18464069068431854,-0.6950211524963379,0.4047924876213074
1772701754272956400,2.745956298828125,-0.26444897055625916,-0.6731126308441162,0.35046640038490295
1772701754283004200,2.756004150390625,-0.3244667649269104,-0.5416619181632996,0.3235578238964081
1772701754293053400,2.766053466796875,-0.37407639622688293,-0.41990938782691956,0.2764611542224884
1772701754303101200,2.77610107421875,-0.39693590998649597,-0.34186652302742004,0.2148561179637909
1772701754313149200,2.786149169921875,-0.4044792950153351,-0.2594054639339447,0.1395041048526764
1772701754323198200,2.7961982421875,-0.4626656472682953,-0.20724479854106903,0.03260907530784607
1772701754333246200,2.80624609375,-0.4913769066333771,-0.22136780619621277,-0.07182545214891434
1772701754343295200,2.816295166015625,-0.5272310376167297,-0.2552911639213562,-0.14764457941055298
1772701754353343200,2.82634326171875,-0.5721601843833923,-0.18834806978702545,-0.12765942513942719
1772701754363392300,2.836392333984375,-0.534979522228241,0.02617647685110569,-0.02514716424047947
1772701754373440300,2.846440185546875,-0.46017345786094666,0.3611376881599426,0.09338773787021637
1772701754383489300,2.8564892578125,-0.34562185406684875,0.7791557312011719,0.22297821938991547
1772701754393537300,2.866537353515625,-0.20233020186424255,1.1196826696395874,0.42490682005882263
1772701754403586300,2.87658642578125,-0.11532126367092133,0.9705097079277039,0.748138964176178
1772701754413634300,2.88663427734375,-0.2804385721683502,-0.040469128638505936,0.785355269908905
1772701754423682300,2.896682373046875,-0.6926895380020142,-1.2724889516830444,0.38385364413261414
1772701754433731300,2.9067314453125,-0.7266243100166321,-1.5888235569000244,0.2931474447250366
1772701754443779300,2.916779296875,-0.5476585626602173,-0.43595147132873535,0.4559054672718048
1772701754453828400,2.926828369140625,-0.5529212355613708,0.5554251670837402,0.5183078646659851
1772701754463876400,2.93687646484375,-0.5299192667007446,1.117616891860962,0.4561219811439514
1772701754473925400,2.94692529296875,-0.42457738518714905,1.1231471300125122,0.30773651599884033
1772701754483973400,2.956973388671875,-0.1485721617937088,0.8548662066459656,0.19955918192863464
1772701754494022400,2.9670224609375,-0.09504661709070206,0.4580937922000885,0.07090266793966293
1772701754504070400,2.9770703125,-0.14070065319538116,0.15667536854743958,-0.030289728194475174
1772701754514118400,2.987118408203125,-0.19469544291496277,0.019052254036068916,-0.07867776602506638
1772701754524167400,2.99716748046875,-0.20731669664382935,0.043226033449172974,-0.04036713019013405
1772701754534215200,3.007215087890625,-0.22066766023635864,0.20534196496009827,0.014955513179302216
1772701754544264200,3.01726416015625,-0.23340663313865662,0.2934707701206207,0.058034807443618774
1772701754554312200,3.027312255859375,-0.27975842356681824,0.19491702318191528,0.038541801273822784
1772701754564361200,3.037361328125,-0.3294769525527954,0.1102607250213623,0.04948526248335838
1772701754574409200,3.0474091796875,-0.358720064163208,0.1266689896583557,0.11062238365411758
1772701754584458200,3.057458251953125,-0.35950836539268494,0.14535214006900787,0.21156737208366394
1772701754594506200,3.06750634765625,-0.3265640139579773,0.11694739013910294,0.32611578702926636
1772701754604555300,3.07755517578125,-0.2722853124141693,0.059477709233760834,0.45299091935157776
1772701754614603300,3.087603271484375,-0.22305278480052948,0.009786584414541721,0.5583210587501526
1772701754624651500,3.097651611328125,-0.2454901933670044,-0.12855663895606995,0.5667827129364014
1772701754634700300,3.1077001953125,-0.3511607050895691,-0.2973576486110687,0.518319845199585
1772701754644748300,3.117748291015625,-0.44993653893470764,-0.3996469974517822,0.4608357846736908
1772701754654797300,3.12779736328125,-0.525490403175354,-0.429514080286026,0.4127718508243561
1772701754664845300,3.13784521484375,-0.6043897867202759,-0.45147716999053955,0.32723990082740784
1772701754674894300,3.147894287109375,-0.6645913124084473,-0.5800308585166931,0.1965026706457138
1772701754684942300,3.1579423828125,-0.6170573234558105,-0.9121776819229126,0.09410838782787323
1772701754694991400,3.167991455078125,-0.514274537563324,-1.3267236948013306,0.1132035180926323
1772701754705039400,3.178039306640625,-0.34690043330192566,-1.5244706869125366,0.41888540983200073
1772701754715087400,3.18808740234375,-0.13982021808624268,-1.5243878364562988,0.9497138857841492
1772701754725136400,3.198136474609375,0.027286747470498085,-1.7738569974899292,1.5381981134414673
1772701754735184400,3.208184326171875,0.08225040137767792,-2.0150084495544434,1.9297864437103271
1772701754745233400,3.2182333984375,-0.034087661653757095,-2.061631917953491,1.999383568763733
1772701754755281400,3.228281494140625,-0.24868518114089966,-2.0539169311523438,1.7657314538955688
1772701754765330400,3.238330322265625,-0.5352485179901123,-1.7705520391464233,1.4327495098114014
1772701754775378200,3.248378173828125,-0.8336759209632874,-1.6089786291122437,1.0452011823654175
1772701754785427500,3.258427490234375,-1.066366195678711,-1.4715996980667114,0.8147387504577637
1772701754795475200,3.26847509765625,-1.1384161710739136,-1.1004828214645386,0.7656700015068054
1772701754805524200,3.278524169921875,-1.0771687030792236,-0.7664678692817688,0.771241307258606
1772701754815572200,3.288572265625,-0.9340600967407227,-0.5856179594993591,0.8150522112846375
1772701754825620500,3.298620361328125,-0.7869651317596436,-0.5086494088172913,0.8534454107284546
1772701754835669200,3.308669189453125,-0.6285877823829651,-0.3888995349407196,0.8187865018844604
1772701754845717500,3.318717529296875,-0.4991573393344879,-0.27579694986343384,0.6979125142097473
1772701754855766300,3.328766357421875,-0.40888577699661255,-0.09616567939519882,0.5697486996650696
1772701754865814500,3.338814453125,-0.32822635769844055,0.08458838611841202,0.41498759388923645
1772701754875863300,3.34886328125,-0.2520250380039215,0.2533332109451294,0.21957629919052124
1772701754885911300,3.358911376953125,-0.19716766476631165,0.3703027069568634,0.013813816010951996
1772701754895960300,3.368960205078125,-0.14411883056163788,0.42228758335113525,-0.18374693393707275
1772701754906008300,3.37900830078125,-0.08820123225450516,0.4348401427268982,-0.3815329670906067
1772701754916057300,3.389057373046875,-0.031214645132422447,0.38533756136894226,-0.5745818018913269
1772701754926105300,3.399105224609375,0.01690627820789814,0.36580249667167664,-0.7797386646270752
1772701754936153300,3.4091533203125,0.05287546664476395,0.4067789316177368,-1.0006828308105469
1772701754946202400,3.419202392578125,0.07300310581922531,0.4573742151260376,-1.1999220848083496
1772701754956250400,3.42925048828125,0.07386703044176102,0.45773959159851074,-1.361651062965393
1772701754966299400,3.43929931640625,0.051790494471788406,0.39329856634140015,-1.4833977222442627
1772701754976347400,3.449347412109375,0.013070528395473957,0.30567604303359985,-1.5464808940887451
1772701754986396400,3.459396484375,-0.04639279842376709,0.17740674316883087,-1.5640026330947876
1772701754996444200,3.469444091796875,-0.10639888048171997,0.07726629078388214,-1.5180939435958862
1772701755006493400,3.479493408203125,-0.11662008613348007,0.05545846372842789,-1.4093618392944336
1772701755016541200,3.489541259765625,-0.10185552388429642,0.07631953805685043,-1.2508548498153687
1772701755026590500,3.499590576171875,-0.08971896767616272,0.1290069818496704,-1.0574898719787598
1772701755036638200,3.50963818359375,-0.09848476201295853,0.1939590871334076,-0.8561415672302246
1772701755046686500,3.5196865234375,-0.09243752062320709,0.2681129276752472,-0.6571952104568481
1772701755056735200,3.5297353515625,-0.07942451536655426,0.3458905518054962,-0.4536399245262146
1772701755066783500,3.539783447265625,-0.04259166866540909,0.41891470551490784,-0.23557870090007782
1772701755076832300,3.549832275390625,-0.007500526960939169,0.4354364275932312,-0.07304678112268448
1772701755086880500,3.559880615234375,0.030784809961915016,0.45913055539131165,0.07693499326705933
1772701755096929300,3.56992919921875,0.06839796900749207,0.5259101390838623,0.19047380983829498
1772701755106977300,3.579977294921875,0.09986560791730881,0.5743527412414551,0.26236557960510254
1772701755117026300,3.5900263671875,0.11871626228094101,0.48974573612213135,0.2957592308521271
1772701755127074300,3.60007421875,0.12696513533592224,0.29197725653648376,0.28212302923202515
1772701755137123300,3.610123291015625,0.07037616521120071,0.17357152700424194,0.19967450201511383
1772701755147171300,3.62017138671875,-0.06441680341959,0.24440787732601166,0.05437881872057915
1772701755157219300,3.63021923828125,-0.11253506690263748,0.7057134509086609,-0.049380600452423096
1772701755167268400,3.640268310546875,0.1050928607583046,1.6547093391418457,-0.02875708043575287
1772701755177316400,3.65031640625,0.4195120632648468,2.7657673358917236,0.23003879189491272
1772701755187365400,3.660365478515625,0.5709734559059143,3.613349437713623,0.6124966740608215
1772701755197412900,3.670412841796875,-0.060869742184877396,3.855907917022705,0.6033236980438232
1772701755207462100,3.680462158203125,-0.9195011258125305,2.3856325149536133,0.3056429922580719
1772701755217510000,3.690510009765625,-0.7620909810066223,0.26275572180747986,0.1055903434753418
1772701755227559200,3.70055908203125,-0.4167002737522125,-1.0593039989471436,-0.16957038640975952
1772701755237607000,3.71060693359375,-0.29192107915878296,-0.677240788936615,-0.5964967012405396
1772701755247656200,3.72065625,-0.11684459447860718,0.4314078688621521,-0.8415399789810181
1772701755257704000,3.730703857421875,-0.0562579445540905,0.6407198309898376,-0.9468832015991211
1772701755267752000,3.740751953125,0.01822667382657528,0.8417178988456726,-0.7668886780738831
1772701755277801000,3.750801025390625,0.1619713306427002,0.6854726076126099,-0.5325440764427185
1772701755287849000,3.760848876953125,0.27808088064193726,0.20052510499954224,-0.47176140546798706
1772701755297898000,3.77089794921875,0.2736653685569763,0.041449174284935,-0.4091086685657501
1772701755307946000,3.780946044921875,0.24342571198940277,0.07443508505821228,-0.3779504895210266
1772701755317995000,3.7909951171875,0.23691295087337494,0.12060338258743286,-0.38073641061782837
1772701755328043000,3.80104296875,0.23007741570472717,0.10746441036462784,-0.4070625603199005
1772701755338092000,3.811092041015625,0.194563090801239,-0.012256666086614132,-0.4625849425792694
1772701755348140000,3.82114013671875,0.14248311519622803,-0.14008013904094696,-0.4974217712879181
1772701755358189000,3.83118896484375,0.12877555191516876,-0.3183966279029846,-0.5555340647697449
1772701755368237000,3.841237060546875,0.1428394466638565,-0.5079029202461243,-0.5177933573722839
1772701755378285000,3.85128515625,0.15476401150226593,-0.5493014454841614,-0.48759523034095764
1772701755388334000,3.861333984375,0.1643013209104538,-0.4498678147792816,-0.4238857626914978
1772701755398381800,3.8713818359375,0.2183762788772583,-0.2618885934352875,-0.29490646719932556
1772701755408431000,3.88143115234375,0.3029947578907013,0.03882862254977226,-0.13005706667900085
1772701755418478800,3.891478759765625,0.3532251715660095,0.45446816086769104,0.043957870453596115
1772701755428528000,3.901528076171875,0.3961012661457062,0.8820277452468872,0.21387474238872528
1772701755438575900,3.911575927734375,0.4402618110179901,1.2703922986984253,0.36125460267066956
1772701755448625200,3.921625244140625,0.4493301212787628,1.5553089380264282,0.5214951634407043
1772701755458673000,3.9316728515625,0.4139135479927063,1.5485581159591675,0.7104765176773071
1772701755468722200,3.94172216796875,0.3417336344718933,1.2014957666397095,0.9184473156929016
1772701755478770000,3.95177001953125,0.2504894733428955,0.530722975730896,1.0931330919265747
1772701755488819200,3.961819091796875,0.051961202174425125,-0.24839729070663452,1.0607799291610718
1772701755498867000,3.971866943359375,-0.2569953203201294,-0.44851282238960266,0.8483781814575195
1772701755508915000,3.9819150390625,-0.49764999747276306,0.10040969401597977,0.6599699258804321
1772701755518964000,3.9919638671875,-0.5936521291732788,0.941742479801178,0.5923680067062378
1772701755529012000,4.002011962890625,-0.6643041968345642,1.2766305208206177,0.46083393692970276
1772701755539061000,4.01206103515625,-0.6873725056648254,0.9754128456115723,0.33090895414352417
1772701755549109000,4.02210888671875,-0.6602434515953064,0.5858924984931946,0.281945139169693
1772701755559158000,4.032157958984375,-0.5821853876113892,0.296100914478302,0.247782364487648
1772701755569206000,4.0422060546875,-0.5486559271812439,0.10654322057962418,0.23122575879096985
1772701755579255000,4.052255126953125,-0.42445701360702515,0.019992349669337273,0.19210179150104523
1772701755589303000,4.062302978515625,-0.33147433400154114,-0.1917601078748703,0.12124866247177124
1772701755599352000,4.07235205078125,-0.2782931327819824,-0.2577604353427887,0.10119186341762543
1772701755609400000,4.082400146484375,-0.25447890162467957,-0.21204407513141632,0.08163414150476456
1772701755619448000,4.092447998046875,-0.24465182423591614,-0.1588306576013565,0.07063794881105423
1772701755629497000,4.1024970703125,-0.27800339460372925,-0.13385766744613647,0.048049017786979675
1772701755639545000,4.112545166015625,-0.29930922389030457,-0.14774978160858154,-0.008807073347270489
1772701755649594000,4.122593994140625,-0.3147321045398712,-0.15119777619838715,-0.09900807589292526
1772701755659641900,4.132641845703125,-0.31538110971450806,-0.13385260105133057,-0.22512578964233398
1772701755669691100,4.142691162109375,-0.32082808017730713,-0.12279196828603745,-0.32627958059310913
1772701755679739000,4.15273876953125,-0.3255099356174469,-0.12316134572029114,-0.38047143816947937
1772701755689788200,4.1627880859375,-0.3445688486099243,-0.1932797133922577,-0.3642999231815338
1772701755699836000,4.1728359375,-0.3876582384109497,-0.33205196261405945,-0.26950469613075256
1772701755709885200,4.18288525390625,-0.45893535017967224,-0.5363449454307556,-0.12133228778839111
1772701755719933000,4.192932861328125,-0.5458542704582214,-0.7259971499443054,0.015795741230249405
1772701755729982200,4.202982177734375,-0.6037231683731079,-0.8604739904403687,0.11586108803749084
1772701755740030000,4.213030029296875,-0.618800938129425,-0.9546201825141907,0.1869557648897171
1772701755750078000,4.223077880859375,-0.6468434929847717,-1.023838996887207,0.22071853280067444
1772701755760127000,4.233126953125,-0.6888982653617859,-0.968635618686676,0.2423897385597229
1772701755770175000,4.243175048828125,-0.698379397392273,-0.8027973771095276,0.23968902230262756
1772701755780224000,4.25322412109375,-0.7265521287918091,-0.6136034727096558,0.21914087235927582
1772701755790272000,4.26327197265625,-0.7798531651496887,-0.5323871970176697,0.2280787080526352
1772701755800321000,4.273321044921875,-0.8346362709999084,-0.6435281038284302,0.2544320225715637
1772701755810369000,4.283369140625,-0.8178573250770569,-0.7819059491157532,0.23225080966949463
1772701755820418000,4.29341796875,-0.7587119340896606,-0.8285224437713623,0.1544625461101532
1772701755830466000,4.303466064453125,-0.6966725587844849,-0.8565040230751038,0.09725704789161682
1772701755840515000,4.31351513671875,-0.6215290427207947,-0.9479540586471558,0.10701406747102737
1772701755850563000,4.32356298828125,-0.5614984631538391,-1.0440534353256226,0.18899574875831604
1772701755860612000,4.333612060546875,-0.5160273909568787,-1.030479073524475,0.30707472562789917
1772701755870660000,4.34366015625,-0.4586264193058014,-0.9132006168365479,0.39976656436920166
1772701755880708000,4.3537080078125,-0.35888946056365967,-0.8181643486022949,0.44238460063934326
1772701755890757000,4.363757080078125,-0.24392345547676086,-0.7387017607688904,0.4396578073501587
1772701755900805000,4.37380517578125,-0.1268167942762375,-0.6534686088562012,0.4081408977508545
1772701755910854100,4.383854248046875,-0.019039470702409744,-0.6305289268493652,0.36626240611076355
1772701755920902000,4.39390185546875,0.03494759649038315,-0.6148125529289246,0.34522077441215515
1772701755930951200,4.403951171875,0.0563836470246315,-0.591767430305481,0.33446958661079407
1772701755940999000,4.4139990234375,0.06660645455121994,-0.5286617279052734,0.32780689001083374
1772701755951048200,4.424048095703125,0.08165039122104645,-0.43651339411735535,0.2913820445537567
1772701755961096000,4.434095947265625,0.09344739466905594,-0.293342649936676,0.21241585910320282
1772701755971145200,4.444145263671875,0.12726181745529175,-0.16276255249977112,0.10348644107580185
1772701755981193000,4.45419287109375,0.15091414749622345,-0.026826554909348488,-0.013586382381618023
1772701755991242000,4.464241943359375,0.1859285831451416,0.08818738162517548,-0.14116936922073364
1772701756001290000,4.4742900390625,0.22116594016551971,0.12281087040901184,-0.27434659004211426
1772701756011338000,4.484337890625,0.2620276212692261,0.015121961012482643,-0.3548550307750702
1772701756021387000,4.494386962890625,0.30660122632980347,-0.19328317046165466,-0.35326138138771057
1772701756031435000,4.50443505859375,0.35853311419487,-0.4237501919269562,-0.28377631306648254
1772701756041484000,4.514484130859375,0.4427042007446289,-0.6187900304794312,-0.15893372893333435
1772701756051532000,4.524531982421875,0.4308752119541168,-0.5729942917823792,-0.016875918954610825
1772701756061581000,4.5345810546875,0.4401795268058777,-0.4803037643432617,0.11863743513822556
1772701756071629000,4.544629150390625,0.4792933464050293,-0.2740088999271393,0.2546519935131073
1772701756081678000,4.554677978515625,0.45390358567237854,-0.0709516704082489,0.3369375467300415
1772701756091726000,4.56472607421875,0.3922223746776581,0.10152023285627365,0.3541942834854126
1772701756101774800,4.57477490234375,0.3198954463005066,0.21058014035224915,0.30747365951538086
1772701756111823000,4.584822998046875,0.2536626160144806,0.3805233836174011,0.2524668574333191
1772701756121872000,4.594871826171875,0.18803967535495758,0.5451381802558899,0.17485329508781433
1772701756131920100,4.604920166015625,0.12371741235256195,0.6665343642234802,0.09186840057373047
1772701756141968100,4.614968017578125,0.08183041960000992,0.7836058735847473,-0.014389592222869396
1772701756152017200,4.62501708984375,0.05705023556947708,0.9407438039779663,-0.11707974970340729
1772701756162065200,4.635065185546875,0.058639343827962875,1.020121693611145,-0.18953290581703186
1772701756172114200,4.6451142578125,0.05035291984677315,0.9548692107200623,-0.2215781956911087
1772701756182162000,4.655161865234375,0.026759708300232887,0.8342663645744324,-0.2663816213607788
1772701756192211200,4.665211181640625,-0.009751164354383945,0.7354210019111633,-0.33588239550590515
1772701756202258700,4.6752587890625,-0.02863963507115841,0.6019737124443054,-0.4149188995361328
1772701756212307700,4.6853076171875,-0.011109109967947006,0.5226230025291443,-0.44532206654548645
1772701756222355700,4.695355712890625,0.03056083805859089,0.513611376285553,-0.35589659214019775
1772701756232404700,4.70540478515625,0.08771094679832458,0.6257187724113464,-0.16929368674755096
1772701756242452700,4.71545263671875,0.10890251398086548,0.9436322450637817,0.12420637160539627
1772701756252500700,4.725500732421875,0.10790622979402542,1.3061097860336304,0.5022324919700623
1772701756262549800,4.7355498046875,0.1174778938293457,1.4981205463409424,0.8485481142997742
1772701756272597500,4.745597412109375,0.15025341510772705,1.372398853302002,0.9896325469017029
1772701756282646800,4.755646728515625,0.19815756380558014,1.0362322330474854,0.8315978646278381
1772701756292694500,4.765694580078125,0.04610011726617813,1.0361547470092773,0.49727874994277954
1772701756302743600,4.77574365234375,-0.13122034072875977,1.2691501379013062,0.1378992795944214
1772701756312791600,4.78579150390625,-0.016046611592173576,0.8691743016242981,-0.14881637692451477
1772701756322840600,4.795840576171875,0.19577376544475555,0.36913490295410156,-0.3151358366012573
1772701756332888600,4.805888671875,0.36214783787727356,0.014568289741873741,-0.4011650085449219
1772701756342937600,4.8159375,0.494476318359375,-0.07876085489988327,-0.435492604970932
1772701756352985600,4.825985595703125,0.6276404857635498,0.1038222685456276,-0.3142080008983612
1772701756363034600,4.83603466796875,0.7473727464675903,0.47402191162109375,-0.11974717676639557
1772701756373082600,4.84608251953125,0.8732473254203796,0.7750238180160522,0.017365939915180206
1772701756383131600,4.856131591796875,0.9846491813659668,0.9381786584854126,0.06553320586681366
1772701756393179600,4.8661796875,1.062415599822998,1.017738938331604,0.04060788080096245
1772701756403227600,4.8762275390625,1.1045234203338623,0.942034125328064,-0.04807431995868683
1772701756413276700,4.886276611328125,1.1406651735305786,0.6828680634498596,-0.15625378489494324
1772701756423324700,4.89632470703125,1.1665489673614502,0.3500826358795166,-0.30200034379959106
1772701756433373700,4.906373779296875,1.131239414215088,0.14782728254795074,-0.39625972509384155
1772701756443421700,4.916421630859375,1.0493043661117554,0.11277608573436737,-0.47913649678230286
1772701756453470700,4.926470703125,0.958699107170105,0.19757193326950073,-0.5156300663948059
1772701756463518700,4.936518798828125,0.8575615882873535,0.28982728719711304,-0.5160164833068848
1772701756473567700,4.946567626953125,0.7363568544387817,0.23952683806419373,-0.5639914870262146
1772701756483615700,4.95661572265625,0.5619038343429565,0.18797442317008972,-0.6202065348625183
1772701756493664800,4.966664794921875,0.3748985230922699,0.40744954347610474,-0.5836772918701172
1772701756503712800,4.976712646484375,0.18940295279026031,0.7763932347297668,-0.567173421382904
1772701756513761800,4.98676171875,0.03900199383497238,1.0042532682418823,-0.5587255954742432
1772701756523809800,4.996809814453125,-0.07165021449327469,0.9802057147026062,-0.43617624044418335
1772701756533858800,5.00685888671875,-0.17531749606132507,0.8679412603378296,-0.17811354994773865
1772701756543906800,5.01690673828125,-0.2950848937034607,0.6906822919845581,0.11970403045415878
1772701756553954600,5.02695458984375,-0.39190998673439026,0.45740216970443726,0.42919236421585083
1772701756564003600,5.037003662109375,-0.46578821539878845,0.21374770998954773,0.7223001718521118
1772701756574051600,5.047051513671875,-0.5467706918716431,0.052264802157878876,0.902147114276886
1772701756584100600,5.0571005859375,-0.6148064732551575,-0.0015398397808894515,0.9472589492797852
1772701756594148600,5.067148681640625,-0.663720965385437,0.07082117348909378,0.8616343140602112
1772701756604197600,5.07719775390625,-0.6843237280845642,0.2771463692188263,0.7195397615432739
1772701756614245600,5.08724560546875,-0.6678390502929688,0.4965868592262268,0.5442204475402832
1772701756624294700,5.097294677734375,-0.6181830763816833,0.4778456687927246,0.35347843170166016
1772701756634342700,5.1073427734375,-0.5586339831352234,0.3597200810909271,0.20665037631988525
1772701756644391700,5.1173916015625,-0.4920480251312256,0.18455493450164795,0.07433974742889404
1772701756654439700,5.127439697265625,-0.42388415336608887,-0.0036016590893268585,-0.06588660180568695
1772701756664488400,5.137488525390625,-0.32478606700897217,-0.17570604383945465,-0.2278802990913391
1772701756674536700,5.14753662109375,-0.22976821660995483,-0.3421157896518707,-0.3635909855365753
1772701756684585500,5.15758544921875,-0.15003663301467896,-0.48795396089553833,-0.4602871835231781
1772701756694633700,5.1676337890625,-0.10195033252239227,-0.6043378114700317,-0.5196713805198669
1772701756704681700,5.177681640625,-0.06854896992444992,-0.6834840178489685,-0.5527033805847168
1772701756714730800,5.187730712890625,-0.04320206493139267,-0.7092357277870178,-0.5622726678848267
1772701756724778800,5.19777880859375,-0.019028285518288612,-0.6559141874313354,-0.5355299711227417
1772701756734827800,5.207827880859375,0.015807192772626877,-0.6130216121673584,-0.47761982679367065
1772701756744875800,5.217875732421875,0.0364656001329422,-0.637270450592041,-0.3829846680164337
1772701756754924800,5.2279248046875,0.03485172241926193,-0.6955819725990295,-0.26000842452049255
1772701756764972800,5.237972900390625,-0.002755572786554694,-0.7624086737632751,-0.07423188537359238
1772701756775021600,5.248021484375,-0.10899572819471359,-1.0297917127609253,0.20473423600196838
1772701756785069800,5.25806982421875,-0.21115298569202423,-1.4155346155166626,0.6437872052192688
1772701756795118600,5.26811865234375,-0.19081975519657135,-1.692138433456421,1.275890588760376
1772701756805166800,5.278166748046875,-0.2301061749458313,-1.9689407348632812,1.7837780714035034
1772701756815215600,5.288215576171875,-0.3086462616920471,-2.5484273433685303,2.26168155670166
1772701756825263600,5.298263671875,-0.2603450417518616,-3.0137417316436768,2.765141725540161
1772701756835312600,5.308312744140625,-0.23952603340148926,-3.150459051132202,3.144575834274292
1772701756845360600,5.318360595703125,-0.24766892194747925,-2.992276430130005,3.1329898834228516
1772701756855408600,5.32840869140625,-0.19528347253799438,-2.749776601791382,2.872723340988159
1772701756865457700,5.338457763671875,-0.14174328744411469,-2.4251065254211426,2.3729894161224365
1772701756875505700,5.348505615234375,-0.15352964401245117,-1.9942508935928345,1.738161325454712
1772701756885554400,5.358554443359375,-0.17199546098709106,-1.776254653930664,0.9969932436943054
1772701756895602700,5.368602783203125,-0.12276506423950195,-1.8605165481567383,0.26768285036087036
1772701756905651500,5.3786513671875,0.0022919164039194584,-2.0149435997009277,-0.35068079829216003
1772701756915699700,5.38869970703125,0.19969740509986877,-2.070909261703491,-0.7903414964675903
1772701756925748500,5.39874853515625,0.3865245282649994,-2.0108845233917236,-1.0036604404449463
1772701756935796700,5.408796630859375,0.49721217155456543,-1.80899178981781,-1.0790753364562988
1772701756945845500,5.418845458984375,0.5320809483528137,-1.4834896326065063,-1.11715829372406
1772701756955893800,5.428893798828125,0.5238730907440186,-1.0674124956130981,-1.141674280166626
1772701756965941800,5.438941650390625,0.5186447501182556,-0.5796388983726501,-1.2024017572402954
1772701756975990800,5.44899072265625,0.47700491547584534,-0.02708248421549797,-1.251824140548706
1772701756986038800,5.459038818359375,0.5199483633041382,0.608726441860199,-1.2304102182388306
1772701756996087600,5.469087646484375,0.43246859312057495,0.967438280582428,-1.1335010528564453
1772701757006135800,5.4791357421875,0.48444896936416626,1.053749442100525,-0.954365611076355
1772701757016184600,5.4891845703125,0.4118919372558594,0.9733496904373169,-0.7029005885124207
1772701757026232800,5.49923291015625,0.4701344668865204,0.8607576489448547,-0.4497296214103699
1772701757036281600,5.509281494140625,0.3096449375152588,0.629343569278717,-0.2224743515253067
1772701757046329900,5.519329833984375,0.3833189010620117,0.43508675694465637,-0.02275085262954235
1772701757056378600,5.529378662109375,0.23430411517620087,0.43417221307754517,0.11139789968729019
1772701757066427000,5.539427001953125,0.365857869386673,0.5611559748649597,0.17719554901123047
1772701757076475600,5.5494755859375,0.2616550326347351,0.7157253623008728,0.18851664662361145
1772701757086523600,5.559523681640625,0.46215832233428955,0.9137113690376282,0.17304208874702454
1772701757096572700,5.56957275390625,0.4309665858745575,1.0454872846603394,0.13856267929077148
1772701757106620700,5.57962060546875,0.6841314435005188,1.160434365272522,0.07796510308980942
1772701757116669700,5.589669677734375,0.6146354675292969,1.2448307275772095,0.032948896288871765
1772701757126717400,5.599717529296875,0.7487536072731018,1.2171626091003418,-0.04368675872683525
1772701757136765700,5.609765625,0.566135048866272,1.14310622215271,-0.14582884311676025
1772701757146814500,5.619814453125,0.6597651243209839,1.0915650129318237,-0.28349509835243225
1772701757156862700,5.62986279296875,0.493470698595047,1.0250773429870605,-0.42039942741394043
1772701757166911500,5.639911376953125,0.6423163414001465,0.9992196559906006,-0.5388919711112976
1772701757176959700,5.649959716796875,0.49270132184028625,1.0064418315887451,-0.6490083336830139
1772701757187008500,5.660008544921875,0.630687952041626,0.9973463416099548,-0.7763506174087524
1772701757197056800,5.670056884765625,0.4741513133049011,0.9572271704673767,-0.8983737230300903
1772701757207105800,5.680105712890625,0.6465835571289062,0.8942381143569946,-1.0133373737335205
1772701757217154000,5.690154052734375,0.5032567381858826,0.8293259143829346,-1.1275306940078735
1772701757227202800,5.700202880859375,0.6381410360336304,0.7915194034576416,-1.2328190803527832
1772701757237250800,5.710250732421875,0.4160693883895874,0.7388612627983093,-1.3295975923538208
1772701757247299800,5.7202998046875,0.4786531329154968,0.6172757148742676,-1.4112225770950317
1772701757257347800,5.730347900390625,0.2353810966014862,0.4213474988937378,-1.4588873386383057
1772701757267396900,5.74039697265625,0.32870572805404663,0.26972147822380066,-1.519901156425476
1772701757277444900,5.75044482421875,0.10511709749698639,0.3009617030620575,-1.6417371034622192
1772701757287494000,5.760493896484375,0.2196655124425888,0.5575665831565857,-1.8144593238830566
1772701757297542000,5.7705419921875,0.07990308851003647,0.7842889428138733,-1.9779001474380493
1772701757307591000,5.7805908203125,0.3026837110519409,0.8810045719146729,-2.1418373584747314
1772701757317639000,5.790638916015625,0.1849679946899414,0.9612043499946594,-2.2222700119018555
1772701757327688000,5.80068798828125,0.2585572600364685,1.0267356634140015,-2.167180299758911
1772701757337736000,5.81073583984375,0.2335379272699356,0.8289778828620911,-2.0476222038269043
1772701757347785000,5.820784912109375,0.39145004749298096,1.0631277561187744,-1.9859442710876465
1772701757357833000,5.8308330078125,-0.047567784786224365,1.7141779661178589,-2.03462553024292
1772701757367882000,5.840882080078125,-0.21245767176151276,1.5133605003356934,-2.042489528656006
1772701757377930000,5.850929931640625,-0.2544224262237549,1.023497223854065,-1.9928759336471558
1772701757387979000,5.86097900390625,-0.17330414056777954,0.4251347780227661,-1.8793318271636963
1772701757398027000,5.871027099609375,-0.05452023446559906,0.035585690289735794,-1.6211260557174683
1772701757408075800,5.88107568359375,0.005543103441596031,-0.39896124601364136,-1.259889841079712
1772701757418124000,5.8911240234375,-0.002906307578086853,-0.6740497946739197,-0.7544066905975342
1772701757428171800,5.901171875,-0.07387848198413849,-0.6145824790000916,-0.16743560135364532
1772701757438221000,5.911220947265625,-0.16115906834602356,-0.3161800801753998,0.3174988627433777
1772701757448268800,5.921268798828125,-0.2716437578201294,0.034446656703948975,0.6340698599815369
1772701757458318000,5.931318115234375,-0.3304484784603119,0.27144214510917664,0.7880898118019104
1772701757468365800,5.94136572265625,-0.34761735796928406,0.37186649441719055,0.7993922829627991
1772701757478415000,5.9514150390625,-0.3649106025695801,0.3013257682323456,0.6651409864425659
1772701757488462800,5.961462890625,-0.3601089119911194,0.07296821475028992,0.42286416888237
1772701757498512100,5.97151220703125,-0.3281821310520172,-0.15582847595214844,0.1603124439716339
1772701757508560000,5.981559814453125,-0.2586808204650879,-0.27355778217315674,0.007155114784836769
1772701757518609000,5.99160888671875,-0.24132180213928223,-0.16384193301200867,-0.009484848007559776
1772701757528657000,6.001656982421875,-0.2970393896102905,0.005617405753582716,0.014426076784729958
1772701757538706000,6.011705810546875,-0.4228695034980774,-0.08451727777719498,-0.08398491144180298
1772701757548754000,6.02175390625,-0.570242166519165,-0.1294567883014679,-0.20802883803844452
1772701757558803000,6.031802978515625,-0.6890338063240051,0.04006406292319298,-0.3167819380760193
1772701757568851000,6.041850830078125,-0.7224865555763245,0.1745702028274536,-0.38938531279563904
1772701757578900000,6.05189990234375,-0.6650722622871399,0.25124287605285645,-0.37859177589416504
1772701757588948000,6.061947998046875,-0.5639416575431824,0.31324952840805054,-0.2641754448413849
1772701757598997000,6.0719970703125,-0.41793757677078247,0.43536078929901123,-0.07587159425020218
1772701757609045000,6.082044921875,-0.28846481442451477,0.5696461796760559,0.09562985599040985
1772701757619094000,6.092093994140625,-0.20373661816120148,0.6690220236778259,0.19258356094360352
1772701757629141800,6.102141845703125,-0.11442884057760239,0.8979588150978088,0.2614332139492035
1772701757639191000,6.11219091796875,-0.02797224558889866,1.1341532468795776,0.26579493284225464
1772701757649238800,6.12223876953125,0.031739819794893265,1.2138125896453857,0.15754035115242004
1772701757659287000,6.132287109375,0.044256675988435745,1.1378602981567383,-0.044138431549072266
1772701757669335800,6.142335693359375,0.05674770101904869,0.9148192405700684,-0.2521912455558777
1772701757679384000,6.152384033203125,0.1535613238811493,0.6890361905097961,-0.37018656730651855
1772701757689432800,6.162432861328125,0.2800111472606659,0.5833989977836609,-0.4039032757282257
1772701757699481000,6.172481201171875,0.3926732540130615,0.6483220458030701,-0.40989112854003906
1772701757709529900,6.18252978515625,0.4952102601528168,0.9792179465293884,-0.38989609479904175
1772701757719578000,6.192578125,0.5675108432769775,1.2124872207641602,-0.3704507648944855
1772701757729627000,6.202626953125,0.6553884744644165,1.1024816036224365,-0.2541894018650055
1772701757739675000,6.2126748046875,0.7057267427444458,0.8122295141220093,-0.040697626769542694
1772701757749724000,6.222723876953125,0.6616647839546204,0.4429697096347809,0.24719834327697754
1772701757759772000,6.23277197265625,0.5845529437065125,0.023873373866081238,0.5375614762306213
1772701757769821000,6.242821044921875,0.5156979560852051,-0.3648144602775574,0.7413374781608582
1772701757779869000,6.252868896484375,0.4465428590774536,-0.6264841556549072,0.8113746047019958
1772701757789918000,6.26291796875,0.3684115707874298,-0.6915813684463501,0.7195531129837036
1772701757799966000,6.272966064453125,0.2941477298736572,-0.5807041525840759,0.47883182764053345
1772701757810015000,6.283014892578125,0.21554134786128998,-0.4254285395145416,0.16355085372924805
1772701757820063000,6.29306298828125,0.10996431857347488,-0.3529069125652313,-0.11657534539699554
1772701757830112000,6.303112060546875,0.029469741508364677,-0.34515926241874695,-0.2934989929199219
1772701757840160000,6.313159912109375,-0.03893834352493286,-0.4521685242652893,-0.34686341881752014
1772701757850209000,6.323208984375,-0.09857477992773056,-0.7563188076019287,-0.2870514690876007
1772701757860257000,6.333257080078125,-0.16507098078727722,-1.0612918138504028,-0.20473477244377136
1772701757870306000,6.34330615234375,-0.23117595911026,-1.3186572790145874,-0.23104865849018097
1772701757880354000,6.35335400390625,-0.3181036710739136,-1.4597883224487305,-0.3574143350124359
1772701757890402800,6.36340283203125,-0.4479801654815674,-1.4903086423873901,-0.4659903347492218
1772701757900451000,6.373451171875,-0.5871569514274597,-1.5202462673187256,-0.5278406739234924
1772701757910498800,6.383498779296875,-0.6872236728668213,-1.578842043876648,-0.47549542784690857
1772701757920547800,6.3935478515625,-0.7149375677108765,-1.733649730682373,-0.2906363606452942
1772701757930595800,6.403595947265625,-0.6869016885757446,-1.9109352827072144,-0.008419849909842014
1772701757940644900,6.413644775390625,-0.6323872804641724,-1.9993300437927246,0.3078124225139618
1772701757950692900,6.42369287109375,-0.547385573387146,-1.9413408041000366,0.5406986474990845
1772701757960742000,6.433741943359375,-0.4573252201080322,-1.6493281126022339,0.6032869219779968
1772701757970790000,6.443789794921875,-0.39993223547935486,-1.294254183769226,0.5489624738693237
1772701757980839000,6.4538388671875,-0.3852755129337311,-1.0062024593353271,0.4124826490879059
1772701757990887000,6.463886962890625,-0.4100325405597687,-0.790216326713562,0.3408670425415039
1772701758000936000,6.47393603515625,-0.4429454803466797,-0.7364069223403931,0.3708409070968628
1772701758010984000,6.48398388671875,-0.4946739077568054,-0.8005555272102356,0.4397802948951721
1772701758021032700,6.49403271484375,-0.5797659158706665,-0.8360533714294434,0.47075793147087097
1772701758031081000,6.5040810546875,-0.6493087410926819,-0.8039020895957947,0.4482046961784363
1772701758041129700,6.514129638671875,-0.6737637519836426,-0.7043837308883667,0.3778897821903229
1772701758051178000,6.524177978515625,-0.6444250345230103,-0.5391060709953308,0.27379319071769714
1772701758061226800,6.534226806640625,-0.5550927519798279,-0.3542611300945282,0.12825997173786163
1772701758071275000,6.54427490234375,-0.43829718232154846,-0.15290646255016327,-0.04087073355913162
1772701758081323800,6.55432373046875,-0.3413828909397125,0.03533508628606796,-0.22659212350845337
1772701758091372000,6.5643720703125,-0.24536928534507751,0.21330241858959198,-0.3865990936756134
1772701758101420800,6.5744208984375,-0.13601109385490417,0.3206709623336792,-0.5366610288619995
1772701758111469000,6.584468994140625,-0.012765063904225826,0.38637328147888184,-0.6611883044242859
1772701758121517800,6.594517822265625,0.09937132894992828,0.4782025218009949,-0.7904080748558044
1772701758131565800,6.60456591796875,0.27329039573669434,0.537370502948761,-0.917900562286377
1772701758141614800,6.61461474609375,0.3862563669681549,0.5392587184906006,-0.9939279556274414
1772701758151662800,6.624662841796875,0.48633527755737305,0.32965087890625,-1.087377667427063
1772701758161711000,6.634711181640625,0.4623021185398102,0.18610942363739014,-1.0769684314727783
1772701758171759900,6.644759765625,0.4865190386772156,0.03983369842171669,-0.9806917309761047
1772701758181807900,6.654807861328125,0.4994862377643585,0.01261086668819189,-0.8052128553390503
1772701758191857000,6.66485693359375,0.5090634822845459,0.11775939166545868,-0.5831443667411804
1772701758201905400,6.674905517578125,0.5441272258758545,0.2499413937330246,-0.3240633010864258
1772701758211954700,6.68495458984375,0.5769743919372559,0.319267213344574,-0.06154724955558777
1772701758222002400,6.69500244140625,0.6101959943771362,0.3782791197299957,0.1483931988477707
1772701758232051700,6.7050517578125,0.6421797275543213,0.4180592894554138,0.3026101887226105
1772701758242099500,6.715099365234375,0.6314554810523987,0.36776602268218994,0.4136451184749603
1772701758252148700,6.725148681640625,0.5787672400474548,0.31908026337623596,0.4764581620693207
1772701758262196500,6.735196533203125,0.5201979279518127,0.25609090924263,0.484431654214859
1772701758272245800,6.745245849609375,0.46285951137542725,0.19642038643360138,0.4148392677307129
1772701758282293500,6.75529345703125,0.4018512964248657,0.19149139523506165,0.28786879777908325
1772701758292342500,6.765342529296875,0.34618642926216125,0.2096693366765976,0.12283457815647125
1772701758302390500,6.775390625,0.2596867084503174,0.3307795226573944,-0.02671177126467228
1772701758312439600,6.785439453125,0.20356431603431702,0.6170749068260193,-0.04017990827560425
1772701758322487600,6.795487548828125,0.22023117542266846,0.9246359467506409,0.05817888304591179
1772701758332536600,6.80553662109375,0.4258125424385071,1.410807490348816,0.17070116102695465
1772701758342584600,6.81558447265625,0.8475939035415649,2.0974185466766357,0.48989221453666687
1772701758352633600,6.825633544921875,0.7835912108421326,2.6769702434539795,0.36804327368736267
1772701758362681600,6.835681640625,0.17894364893436432,3.151414394378662,-0.020178770646452904
1772701758372730400,6.84573046875,-0.4458200931549072,3.02313232421875,-0.18171174824237823
1772701758382778600,6.855778564453125,-0.3538067936897278,1.5230332612991333,-0.3213697671890259
1772701758392827400,6.865827392578125,-0.026585005223751068,0.34090033173561096,-0.1639745533466339
1772701758402875400,6.87587548828125,0.4106788635253906,0.8785110712051392,-0.16884946823120117
1772701758412924400,6.88592431640625,0.7757774591445923,1.1350672245025635,-0.09620855748653412
1772701758422972400,6.895972412109375,0.9370827674865723,0.979401171207428,-0.1335170418024063
1772701758433020700,6.906020751953125,1.0006614923477173,1.139604926109314,-0.21135565638542175
1772701758443069400,6.9160693359375,0.9729763269424438,1.0696085691452026,-0.1686987429857254
1772701758453117700,6.92611767578125,1.0368660688400269,0.8721991181373596,-0.108265221118927
1772701758463166500,6.93616650390625,1.1052021980285645,0.8662543892860413,0.017010942101478577
1772701758473214700,6.946214599609375,1.1494238376617432,1.079590082168579,0.14995354413986206
1772701758483263500,6.956263427734375,1.1606780290603638,1.4452413320541382,0.21623589098453522
1772701758493311700,6.966311767578125,1.1547101736068726,1.7086430788040161,0.1839037835597992
1772701758503360500,6.976360595703125,1.0938646793365479,1.684950351715088,0.03578862547874451
1772701758513408500,6.986408447265625,0.9378721117973328,1.3779948949813843,-0.26750653982162476
1772701758523457500,6.99645751953125,0.7196428179740906,0.9255126714706421,-0.6715815663337708
1772701758533505500,7.006505615234375,0.5089228749275208,0.44540515542030334,-1.0649493932724
1772701758543554600,7.016554443359375,0.3996848165988922,0.055264852941036224,-1.3091503381729126
1772701758553602600,7.0266025390625,0.39579206705093384,-0.15764741599559784,-1.4037811756134033
1772701758563651600,7.036651611328125,0.42134857177734375,-0.25530633330345154,-1.449127197265625
1772701758573699600,7.046699462890625,0.46777093410491943,-0.30074837803840637,-1.3957496881484985
1772701758583748600,7.05674853515625,0.5056919455528259,-0.3774607479572296,-1.2534170150756836
1772701758593796600,7.066796630859375,0.48703837394714355,-0.5405857563018799,-1.1530044078826904
1772701758603845600,7.076845703125,0.4469450116157532,-0.7233023047447205,-1.1262558698654175
1772701758613893600,7.0868935546875,0.4123028814792633,-0.7340888977050781,-1.1089762449264526
1772701758623942700,7.096942626953125,0.3639422655105591,-0.5619405508041382,-1.063601016998291
1772701758633990400,7.106990478515625,0.3344903588294983,-0.28876814246177673,-1.005033016204834
1772701758644039700,7.117039794921875,0.29695925116539,-0.043348804116249084,-0.9061075448989868
1772701758654087400,7.12708740234375,0.2565705478191376,0.04601516202092171,-0.7863470315933228
1772701758664136700,7.13713671875,0.20278853178024292,0.07022835314273834,-0.6130151748657227
1772701758674184400,7.147184326171875,0.15812784433364868,0.12353605031967163,-0.3471270799636841
1772701758684232400,7.157232421875,0.14531059563159943,0.18568091094493866,-0.15176795423030853
1772701758694281500,7.167281494140625,0.11463337391614914,0.10954460501670837,0.06384289264678955
1772701758704329500,7.17732958984375,-0.0017502295086160302,0.0004223773430567235,0.20165614783763885
1772701758714378500,7.18737841796875,-0.11040613800287247,-0.12893535196781158,0.30167222023010254
1772701758724426500,7.197426513671875,-0.1821165382862091,-0.17354409396648407,0.3300894796848297
1772701758734475500,7.2074755859375,-0.25294890999794006,-0.13193432986736298,0.327114462852478
1772701758744523500,7.2175234375,-0.3117629587650299,-0.10548435151576996,0.291471004486084
1772701758754572500,7.227572509765625,-0.32516583800315857,-0.045513421297073364,0.2500212788581848
1772701758764620500,7.23762060546875,-0.35970571637153625,0.032034099102020264,0.200785830616951
1772701758774669600,7.247669677734375,-0.4067818820476532,0.13868996500968933,0.11530794948339462
1772701758784717600,7.257717529296875,-0.4410857856273651,0.39420509338378906,0.06612469255924225
1772701758794766300,7.267766357421875,-0.4330904483795166,0.6835551261901855,0.07607239484786987
1772701758804814600,7.277814697265625,-0.3988230228424072,0.8135344386100769,0.10371041297912598
1772701758814863400,7.28786328125,-0.3468407690525055,0.7804955244064331,0.15058551728725433
1772701758824911600,7.29791162109375,-0.311492383480072,0.5772228240966797,0.1526409387588501
1772701758834960400,7.30796044921875,-0.29581329226493835,0.262631893157959,0.09581121057271957
1772701758845008600,7.318008544921875,-0.2887345850467682,0.06309214979410172,0.05621826648712158
1772701758855057400,7.328057373046875,-0.30536603927612305,0.06061514467000961,0.06160983443260193
1772701758865105700,7.338105712890625,-0.31827226281166077,0.1883840262889862,0.0935153067111969
1772701758875154400,7.348154541015625,-0.3386898934841156,0.34573182463645935,0.13729128241539001
1772701758885202700,7.35820263671875,-0.35665586590766907,0.4176715314388275,0.17670845985412598
1772701758895251500,7.36825146484375,-0.3424127399921417,0.3042227327823639,0.17579419910907745
1772701758905299500,7.378299560546875,-0.3191753327846527,0.049906838685274124,0.12325002998113632
1772701758915348500,7.388348388671875,-0.2886400520801544,-0.1513596922159195,0.062009043991565704
1772701758925396500,7.398396484375,-0.24475063383579254,-0.19351646304130554,0.012738964520394802
1772701758935445500,7.408445556640625,-0.19427333772182465,-0.07223877310752869,-0.008875250816345215
1772701758945493500,7.418493408203125,-0.13703854382038116,0.16834746301174164,-0.018320683389902115
1772701758955542500,7.42854248046875,-0.10320175439119339,0.3895416259765625,-0.04667748883366585
1772701758965590500,7.438590576171875,-0.08074704557657242,0.5017214417457581,-0.06570630520582199
1772701758975639600,7.4486396484375,-0.06603574007749557,0.4930110275745392,-0.08097394555807114
1772701758985687600,7.4586875,-0.03827015683054924,0.35052552819252014,-0.049847982823848724
1772701758995735600,7.468735595703125,-0.01696193963289261,0.09402316808700562,-0.004490888677537441
1772701759005784600,7.47878466796875,0.002669286448508501,-0.16047409176826477,0.03909840062260628
1772701759015832300,7.488832275390625,0.026752784848213196,-0.2730216681957245,0.07872170954942703
1772701759025881600,7.498881591796875,0.041311752051115036,-0.2320345640182495,0.11509916186332703
1772701759035929300,7.508929443359375,0.04381086304783821,-0.12200766801834106,0.13238386809825897
1772701759045978600,7.518978515625,0.0478450208902359,0.02634958177804947,0.11984065175056458
1772701759056026400,7.5290263671875,0.06189345940947533,0.1537908911705017,0.11444215476512909
1772701759066075600,7.53907568359375,0.08537641912698746,0.20509962737560272,0.11826778948307037
1772701759076123400,7.549123291015625,0.11614072322845459,0.1663077473640442,0.15254826843738556
1772701759086172700,7.559172607421875,0.13996721804141998,0.0828181803226471,0.18709158897399902
1772701759096220400,7.569220458984375,0.16551226377487183,0.005852296482771635,0.21284222602844238
1772701759106269700,7.579269775390625,0.17714734375476837,-0.03942010924220085,0.2431093156337738
1772701759116317400,7.5893173828125,0.16615702211856842,-0.06227855384349823,0.26647162437438965
1772701759126366700,7.59936669921875,0.13837997615337372,-0.0795062780380249,0.2572579085826874
1772701759136414500,7.60941455078125,0.11474229395389557,-0.056473661214113235,0.23823733627796173
1772701759146463700,7.619463623046875,0.11155395954847336,-0.002924417145550251,0.20602959394454956
1772701759156511500,7.629511474609375,0.11462884396314621,0.06523120403289795,0.15567535161972046
1772701759166560800,7.639560791015625,0.12137516587972641,0.1264338344335556,0.11124449968338013
1772701759176608500,7.6496083984375,0.13215936720371246,0.15111282467842102,0.09743121266365051
1772701759186657500,7.659657470703125,0.13604918122291565,0.11662941426038742,0.09389001131057739
1772701759196705300,7.669705322265625,0.12436376512050629,0.06876814365386963,0.09353261440992355
1772701759206754600,7.679754638671875,0.10289735347032547,0.018746523186564445,0.08321499824523926
1772701759216802300,7.68980224609375,0.08231724053621292,-0.012292086146771908,0.06283009797334671
1772701759226851300,7.699851318359375,0.06943260133266449,-0.007125820033252239,0.04832492023706436
1772701759236899300,7.7098994140625,0.07415731996297836,0.011130415834486485,0.040216393768787384
1772701759246948400,7.7199482421875,0.07615815103054047,0.009662214666604996,0.020497817546129227
1772701759256996400,7.729996337890625,0.08447786420583725,0.0019342538435012102,-0.00884888507425785
1772701759267045400,7.74004541015625,0.08438491821289062,-0.0007187871960923076,-0.027657726779580116
1772701759277093400,7.75009326171875,0.08470556885004044,0.01182443555444479,-0.03509646654129028
1772701759287142400,7.760142333984375,0.08342645317316055,0.02936108410358429,-0.0417727455496788
1772701759297190400,7.7701904296875,0.07786417007446289,0.031686291098594666,-0.056108810007572174
1772701759307238400,7.78023828125,0.08375135809183121,0.03780410438776016,-0.035304728895425797
1772701759317287400,7.790287353515625,0.12119673192501068,-0.21926045417785645,0.1305588036775589
1772701759327335400,7.80033544921875,0.09257813543081284,-0.4374052882194519,0.08588907867670059
1772701759337384200,7.81038427734375,0.04144864156842232,-0.508072555065155,0.0014919028617441654
1772701759347432400,7.820432373046875,0.026076341047883034,-0.32672619819641113,-0.07275436818599701
1772701759357481200,7.830481201171875,0.03255527839064598,-0.03099573217332363,-0.07534215599298477
1772701759367529500,7.840529541015625,0.029625270515680313,0.13117186725139618,-0.085065096616745
1772701759377578200,7.850578125,0.02106080949306488,0.15851934254169464,-0.07686468958854675
1772701759387626500,7.86062646484375,0.012914733029901981,0.08967475593090057,-0.057555705308914185
1772701759397675300,7.87067529296875,0.008168447762727737,-0.03994714841246605,-0.03044072911143303
