time,seconds_elapsed,z,y,x
1772701751605095200,0.07809521484375,0.050821274518966675,0.0735069140791893,-0.17313089966773987
1772701751615143400,0.088143310546875,0.053220637142658234,0.05011869966983795,-0.1626395434141159
1772701751625192200,0.098192138671875,0.06345383077859879,0.051340825855731964,-0.13086216151714325
1772701751635240200,0.108240234375,0.07673125714063644,0.06086096167564392,-0.08884155005216599
1772701751645289200,0.118289306640625,0.09583730250597,0.06271505355834961,-0.05175756290555
1772701751655337200,0.128337158203125,0.10609704256057739,0.06911350041627884,-0.015834499150514603
1772701751665385200,0.13838525390625,0.11505618691444397,0.0646258071064949,0.016888825222849846
1772701751675434200,0.148434326171875,0.12275218963623047,0.06344150006771088,0.05427854508161545
1772701751685482200,0.158482177734375,0.12547020614147186,0.05678146332502365,0.08202628046274185
1772701751695531000,0.168531005859375,0.12444907426834106,0.07042210549116135,0.10203567892313004
1772701751705579300,0.178579345703125,0.12841291725635529,0.10277631878852844,0.11889216303825378
1772701751715628000,0.1886279296875,0.12412571161985397,0.11825308203697205,0.11569878458976746
1772701751725676300,0.19867626953125,0.11787101626396179,0.11065135151147842,0.11375653743743896
1772701751735724300,0.208724365234375,0.11606034636497498,0.11093425750732422,0.11380087584257126
1772701751745773300,0.218773193359375,0.11265496164560318,0.1194358691573143,0.10855071991682053
1772701751755821300,0.2288212890625,0.10801155865192413,0.12467250972986221,0.10837265104055405
1772701751765870000,0.2388701171875,0.09522812068462372,0.1305823177099228,0.10924296826124191
1772701751775918300,0.24891845703125,0.08518339693546295,0.13168638944625854,0.10271364450454712
1772701751785967000,0.258967041015625,0.07728419452905655,0.13622096180915833,0.10060735046863556
1772701751796015400,0.269015380859375,0.06595051288604736,0.15775927901268005,0.09924206882715225
1772701751806063000,0.27906298828125,0.06263620406389236,0.1816459745168686,0.10278087854385376
1772701751816112400,0.2891123046875,0.055567704141139984,0.21784020960330963,0.11140669882297516
1772701751826160000,0.29916015625,0.04441225528717041,0.2669358551502228,0.12242872267961502
1772701751836209400,0.30920947265625,0.018296722322702408,0.29151663184165955,0.1369376927614212
1772701751846257200,0.319257080078125,-0.01816648058593273,0.30710569024086,0.1498553454875946
1772701751856306400,0.329306396484375,-0.04244544729590416,0.32845768332481384,0.18613839149475098
1772701751866354200,0.339354248046875,-0.06126866862177849,0.3839702010154724,0.24222669005393982
1772701751876402200,0.349402099609375,-0.07253365218639374,0.4729452431201935,0.3193550407886505
1772701751886451200,0.359451171875,-0.08050582557916641,0.5613635182380676,0.409621000289917
1772701751896499200,0.369499267578125,-0.08251994848251343,0.635214626789093,0.498531311750412
1772701751906548200,0.37954833984375,-0.108636774122715,0.6789796948432922,0.5779811143875122
1772701751916596200,0.38959619140625,-0.1642557829618454,0.6487868428230286,0.631710946559906
1772701751926645200,0.399645263671875,-0.23757286369800568,0.576127827167511,0.6540855169296265
1772701751936693200,0.409693359375,-0.2999340891838074,0.4737655818462372,0.6509857177734375
1772701751946741000,0.419740966796875,-0.34724676609039307,0.36123186349868774,0.6536148190498352
1772701751956790300,0.429790283203125,-0.3860427141189575,0.24950504302978516,0.6376098394393921
1772701751966838000,0.439838134765625,-0.4321819841861725,0.18940602242946625,0.583314061164856
1772701751976887300,0.44988720703125,-0.4828176498413086,0.17271266877651215,0.5243837237358093
1772701751986935000,0.45993505859375,-0.5205826163291931,0.19752028584480286,0.44587135314941406
1772701751996984300,0.469984375,-0.5522105693817139,0.19035683572292328,0.366348534822464
1772701752007032000,0.480031982421875,-0.5475772023200989,0.05901559442281723,0.3219057023525238
1772701752017081300,0.490081298828125,-0.5431228280067444,-0.24369926750659943,0.34221938252449036
1772701752027129000,0.500129150390625,-0.5185101628303528,-0.7435746192932129,0.44171029329299927
1772701752037177000,0.510177001953125,-0.4789811968803406,-1.242647409439087,0.5680298805236816
1772701752047226000,0.52022607421875,-0.4141761064529419,-1.6152018308639526,0.6491791009902954
1772701752057274000,0.530274169921875,-0.3072434663772583,-1.8122167587280273,0.6614375710487366
1772701752067323100,0.5403232421875,-0.15746623277664185,-1.8376277685165405,0.5490047335624695
1772701752077371100,0.55037109375,0.0037299657706171274,-1.5635027885437012,0.38368940353393555
1772701752087420200,0.560420166015625,0.12184994667768478,-1.0969159603118896,0.2719692587852478
1772701752097468200,0.57046826171875,0.19817784428596497,-0.8539735674858093,0.23879408836364746
1772701752107516400,0.580516357421875,0.2505643367767334,-1.01304292678833,0.30445271730422974
1772701752117565200,0.590565185546875,0.24843445420265198,-1.2372565269470215,0.3983207941055298
1772701752127613200,0.60061328125,0.20654931664466858,-1.3077712059020996,0.5098339915275574
1772701752137662200,0.610662109375,0.17626170814037323,-1.316226840019226,0.5934917330741882
1772701752147710200,0.620710205078125,0.15164797008037567,-1.3800162076950073,0.6080674529075623
1772701752157759200,0.63075927734375,0.12007983028888702,-1.5651524066925049,0.5932718515396118
1772701752167807000,0.640806884765625,0.13488087058067322,-1.7465202808380127,0.608582615852356
1772701752177855200,0.650855224609375,0.24143263697624207,-1.865321159362793,0.693682074546814
1772701752187904000,0.660904052734375,0.4383068084716797,-1.893520474433899,0.8151965737342834
1772701752197952000,0.670951904296875,0.643234372138977,-1.728690266609192,0.8823171854019165
1772701752208001000,0.6810009765625,0.7697686553001404,-1.560626745223999,0.8004910349845886
1772701752218049000,0.691049072265625,0.8151892423629761,-1.5606982707977295,0.565152645111084
1772701752228097800,0.701097900390625,0.8047072887420654,-1.6315737962722778,0.25432315468788147
1772701752238146000,0.71114599609375,0.7236359715461731,-1.6826471090316772,-0.022993139922618866
1772701752248194800,0.72119482421875,0.6437613368034363,-1.6530483961105347,-0.22333715856075287
1772701752258242800,0.731242919921875,0.5994101166725159,-1.561767816543579,-0.3906599283218384
1772701752268291000,0.741291015625,0.5355879664421082,-1.4058797359466553,-0.5713053345680237
1772701752278339800,0.75133984375,0.5053680539131165,-1.253915548324585,-0.7361297011375427
1772701752288388000,0.76138818359375,0.4401184916496277,-0.9074287414550781,-0.8793537020683289
1772701752298436900,0.771436767578125,0.4154498279094696,-0.5094379186630249,-0.9470483064651489
1772701752308485000,0.781485107421875,0.4373775124549866,-0.16123734414577484,-0.9168975353240967
1772701752318534000,0.791533935546875,0.4176531434059143,0.11523560434579849,-0.804254412651062
1772701752328582100,0.80158203125,0.40962985157966614,0.32301411032676697,-0.6404369473457336
1772701752338630000,0.8116298828125,0.41243135929107666,0.4590994119644165,-0.4384584426879883
1772701752348679200,0.82167919921875,0.42369601130485535,0.5462931990623474,-0.18991385400295258
1772701752358727000,0.831726806640625,0.45961862802505493,0.6252539753913879,0.0035061752423644066
1772701752368776000,0.84177587890625,0.46863049268722534,0.7202816605567932,0.14059320092201233
1772701752378824000,0.851823974609375,0.467720091342926,0.7911970615386963,0.23628278076648712
1772701752388873000,0.861873046875,0.4634254574775696,0.820955216884613,0.3026977479457855
1772701752398921000,0.8719208984375,0.4495829939842224,0.8421443104743958,0.3274019658565521
1772701752408969000,0.881968994140625,0.42259079217910767,0.8692728281021118,0.29443415999412537
1772701752419018000,0.89201806640625,0.3742541968822479,0.9009833335876465,0.20082634687423706
1772701752429066000,0.90206591796875,0.3422650992870331,0.956762969493866,0.07729028910398483
1772701752439115000,0.912114990234375,0.32189276814460754,1.0196303129196167,-0.0516364648938179
1772701752449163000,0.9221630859375,0.3141554892063141,1.0817523002624512,-0.15427549183368683
1772701752459212000,0.9322119140625,0.31857457756996155,1.080340027809143,-0.247701495885849
1772701752469260000,0.942260009765625,0.32582584023475647,1.053130030632019,-0.3491482436656952
1772701752479308800,0.952308837890625,0.3531590402126312,1.043336272239685,-0.45097970962524414
1772701752489357000,0.962357177734375,0.42908522486686707,1.04794442653656,-0.5411887168884277
1772701752499404800,0.97240478515625,0.5429189205169678,1.097166895866394,-0.590821385383606
1772701752509454000,0.9824541015625,0.6278961300849915,1.0480387210845947,-0.6354623436927795
1772701752519501800,0.992501708984375,0.7151497006416321,0.8858911395072937,-0.6518951058387756
1772701752529551000,1.002551025390625,0.8031299114227295,0.746890127658844,-0.6495682597160339
1772701752539598800,1.012598876953125,0.8558655381202698,0.577190637588501,-0.6690818071365356
1772701752549648100,1.022648193359375,0.8179224133491516,0.4098815321922302,-0.7411876916885376
1772701752559696000,1.03269580078125,0.8385748267173767,0.43115654587745667,-0.9853115081787109
1772701752569744000,1.042743896484375,1.0039067268371582,0.6176406741142273,-1.3792166709899902
1772701752579793000,1.05279296875,1.2192437648773193,0.3146084249019623,-1.6724613904953003
1772701752589841000,1.0628408203125,1.529396891593933,0.06920400261878967,-1.737858533859253
1772701752599890000,1.072889892578125,2.0190110206604004,-0.11506099253892899,-1.8179010152816772
1772701752609938000,1.08293798828125,1.8819828033447266,-0.05763125419616699,-1.366865634918213
1772701752619987000,1.092987060546875,1.168540596961975,0.8993256092071533,-0.548475444316864
1772701752630035000,1.103034912109375,0.4618092477321625,1.332824468612671,0.2949953079223633
1772701752640084000,1.113083984375,0.11598782986402512,0.7506995797157288,1.1197600364685059
1772701752650132000,1.123132080078125,-0.13569900393486023,0.2826349139213562,1.4856442213058472
1772701752660180000,1.133179931640625,-0.301896333694458,0.17812660336494446,1.4023345708847046
1772701752670229000,1.14322900390625,-0.3443996012210846,0.5027238726615906,1.1465541124343872
1772701752680277000,1.153277099609375,-0.3029995560646057,0.850873589515686,0.7908074259757996
1772701752690326000,1.163325927734375,-0.2754973769187927,1.0678973197937012,0.4291040897369385
1772701752700374000,1.1733740234375,-0.30197709798812866,1.1160699129104614,0.10935227572917938
1772701752710423000,1.183423095703125,-0.31708893179893494,1.2067114114761353,-0.17388023436069489
1772701752720470800,1.193470703125,-0.3135075569152832,1.3236801624298096,-0.411545068025589
1772701752730520000,1.20352001953125,-0.30763766169548035,1.452771782875061,-0.6244738698005676
1772701752740567800,1.21356787109375,-0.3493007719516754,1.5414958000183105,-0.8099314570426941
1772701752750616000,1.223615966796875,-0.4135756194591522,1.6328725814819336,-0.9024115800857544
1772701752760664800,1.233664794921875,-0.4790301024913788,1.6262375116348267,-0.9725109934806824
1772701752770712800,1.243712890625,-0.46467140316963196,1.5074306726455688,-1.0004643201828003
1772701752780761900,1.253761962890625,-0.3299940526485443,1.2720353603363037,-1.0045359134674072
1772701752790809900,1.263809814453125,-0.1305515170097351,0.9894774556159973,-0.8545597195625305
1772701752800859000,1.27385888671875,0.016712605953216553,0.47393596172332764,-0.627819836139679
1772701752810907000,1.283906982421875,0.10169247537851334,-0.23334743082523346,-0.41851741075515747
1772701752820955100,1.293955078125,0.18241101503372192,-0.5112330317497253,-0.25596609711647034
1772701752831004000,1.30400390625,0.1999247521162033,-0.45090821385383606,-0.22761276364326477
1772701752841052200,1.31405224609375,0.14050030708312988,-0.37611129879951477,-0.2498026192188263
1772701752851101000,1.324100830078125,0.08823444694280624,-0.48816168308258057,-0.2629442512989044
1772701752861149200,1.334149169921875,-0.0305128525942564,-0.8141288757324219,-0.31144094467163086
1772701752871198000,1.344197998046875,-0.2702522277832031,-1.2914292812347412,-0.3910580277442932
1772701752881246000,1.354245849609375,-0.4868864119052887,-1.860190987586975,-0.48361149430274963
1772701752891295000,1.364294921875,-0.547704815864563,-2.5094189643859863,-0.825687825679779
1772701752901343000,1.374343017578125,-0.5759881138801575,-2.604090452194214,-1.4270974397659302
1772701752911391000,1.384390869140625,-0.42224568128585815,-1.9603017568588257,-1.5090665817260742
1772701752921440000,1.39443994140625,-0.06604425609111786,-0.6122125387191772,-1.3148581981658936
1772701752931488000,1.404488037109375,0.2854599952697754,0.7854554057121277,-1.1971474885940552
1772701752941537000,1.414537109375,0.48690757155418396,1.291481375694275,-1.2564347982406616
1772701752951585000,1.4245849609375,0.4929409623146057,1.0864014625549316,-1.264479160308838
1772701752961634000,1.434634033203125,0.40524011850357056,0.5792006850242615,-1.1061066389083862
1772701752971682000,1.44468212890625,0.29075053334236145,-0.010638630017638206,-0.957599937915802
1772701752981730800,1.454730712890625,0.16476166248321533,-0.1213725283741951,-0.9534153342247009
1772701752991778800,1.46477880859375,-0.01267223060131073,0.02965746819972992,-0.9243596792221069
1772701753001827000,1.4748271484375,-0.30664363503456116,0.13985513150691986,-0.8371269106864929
1772701753011875800,1.484875732421875,-0.653232991695404,0.09716387093067169,-0.7304446697235107
1772701753021924000,1.494924072265625,-0.9970644116401672,-0.17084142565727234,-0.5745714902877808
1772701753031972900,1.504972900390625,-1.1674268245697021,-0.5422740578651428,-0.298537015914917
1772701753042021000,1.515021240234375,-1.118560791015625,-0.7672922015190125,0.07060883939266205
1772701753052070000,1.52506982421875,-0.8862183690071106,-0.653599739074707,0.44598299264907837
1772701753062118100,1.5351181640625,-0.6689280271530151,-0.2407987415790558,0.7781086564064026
1772701753072166000,1.545165771484375,-0.7158883810043335,0.07106754928827286,1.1239312887191772
1772701753082215200,1.555215087890625,-0.8133634328842163,0.22617056965827942,1.495672345161438
1772701753092263000,1.565262939453125,-0.7710926532745361,0.21440578997135162,1.9196124076843262
1772701753102312000,1.57531201171875,-0.5610977411270142,0.18062295019626617,2.1652040481567383
1772701753112360000,1.58535986328125,-0.3743728697299957,0.30528950691223145,2.072117805480957
1772701753122409000,1.595408935546875,-0.29363247752189636,0.5250763893127441,1.7701798677444458
1772701753132457000,1.60545703125,-0.20474523305892944,0.5558077096939087,1.3605742454528809
1772701753142506000,1.615506103515625,-0.08089499175548553,-0.025245320051908493,0.9594938158988953
1772701753152554000,1.625553955078125,-0.09041659533977509,-0.947073757648468,0.7252179384231567
1772701753162602000,1.63560205078125,-0.08800054341554642,-1.6339638233184814,0.6434751749038696
1772701753172651000,1.645651123046875,0.006475630681961775,-1.435404658317566,0.6380681395530701
1772701753182699000,1.655698974609375,0.12145829945802689,-0.5011932253837585,0.7548302412033081
1772701753192747300,1.665747314453125,0.1533088982105255,0.5965420603752136,1.0557485818862915
1772701753202795500,1.67579541015625,0.18509559333324432,1.5132420063018799,1.1911097764968872
1772701753212844300,1.68584423828125,0.11093961447477341,1.6176352500915527,0.8220701813697815
1772701753222892500,1.695892578125,-0.16615597903728485,0.5745783448219299,0.0840793177485466
1772701753232941300,1.70594140625,-0.49108850955963135,-0.9351437091827393,-0.387367308139801
1772701753242989300,1.7159892578125,-0.6032384037971497,-1.6291089057922363,-0.5757929682731628
1772701753253037600,1.72603759765625,-0.6631768345832825,-1.5666810274124146,-0.8994514346122742
1772701753263086300,1.73608642578125,-0.7137722969055176,-1.122719407081604,-1.2491700649261475
1772701753273134600,1.746134521484375,-0.6497198343276978,-0.631661593914032,-1.5078500509262085
1772701753283183400,1.756183349609375,-0.4656893014907837,-0.08774743974208832,-1.5838087797164917
1772701753293231400,1.7662314453125,-0.15238092839717865,0.32243475317955017,-1.551071047782898
1772701753303280400,1.7762802734375,0.07595210522413254,0.5292776823043823,-1.2399460077285767
1772701753313328400,1.786328369140625,0.2517138123512268,0.4943804442882538,-0.7624303102493286
1772701753323377400,1.79637744140625,0.43695175647735596,0.28020763397216797,-0.22716586291790009
1772701753333425400,1.80642529296875,0.5463405847549438,0.17453792691230774,0.1229628473520279
1772701753343473400,1.816473388671875,0.5738747715950012,0.2822246849536896,0.38473576307296753
1772701753353522200,1.826522216796875,0.5905104875564575,0.35840415954589844,0.5932641625404358
1772701753363570400,1.8365703125,0.5932316184043884,0.3297463655471802,0.7570605278015137
1772701753373619200,1.846619140625,0.5511859059333801,0.275439977645874,0.8591280579566956
1772701753383667500,1.85666748046875,0.4731164872646332,0.2199764996767044,0.9006182551383972
1772701753393716200,1.86671630859375,0.34589993953704834,0.21207277476787567,0.908180296421051
1772701753403764500,1.876764404296875,0.20035488903522491,0.21479253470897675,0.92827308177948
1772701753413812500,1.8868125,0.04043206572532654,0.22861328721046448,0.9225491881370544
1772701753423861500,1.896861572265625,-0.08633355796337128,0.2073463499546051,0.904087245464325
1772701753433909500,1.906909423828125,-0.18387636542320251,0.09822040051221848,0.8823910355567932
1772701753443958500,1.91695849609375,-0.25742727518081665,-0.053822748363018036,0.8355322480201721
1772701753454006500,1.927006591796875,-0.310636430978775,-0.1619579941034317,0.7578086853027344
1772701753464055300,1.93705517578125,-0.34032320976257324,-0.17208212614059448,0.6222315430641174
1772701753474103600,1.947103515625,-0.341086745262146,-0.032130349427461624,0.4293084144592285
1772701753484152300,1.95715234375,-0.3738868832588196,0.11376022547483444,0.2130395472049713
1772701753494200600,1.96720068359375,-0.3889787495136261,0.04802941903471947,0.06882350146770477
1772701753504249300,1.977249267578125,-0.3965664505958557,-0.02678508311510086,-0.06523914635181427
1772701753514297600,1.987297607421875,-0.42321911454200745,-0.08586625009775162,-0.20331206917762756
1772701753524345300,1.997345458984375,-0.4597949981689453,-0.08832133561372757,-0.26894110441207886
1772701753534394600,2.00739453125,-0.4704090356826782,-0.1385999470949173,-0.2213144749403
1772701753544442400,2.0174423828125,-0.4696645438671112,-0.044006362557411194,-0.0671432614326477
1772701753554491400,2.027491455078125,-0.42238837480545044,0.08710478246212006,0.23130947351455688
1772701753564539400,2.037539306640625,-0.28290480375289917,-0.05778316408395767,0.731386661529541
1772701753574588400,2.04758837890625,-0.10727357119321823,-0.2894182503223419,1.284900188446045
1772701753584636400,2.057636474609375,-0.03144817799329758,0.22057053446769714,1.4261269569396973
1772701753594685400,2.067685546875,0.058159735053777695,1.4063482284545898,1.2700060606002808
1772701753604733400,2.0777333984375,0.1345510333776474,2.050804615020752,1.0764023065567017
1772701753614781400,2.087781494140625,-0.0766240581870079,1.5805081129074097,0.6804549098014832
1772701753624830500,2.09783056640625,-0.22372311353683472,0.4933401346206665,0.13627971708774567
1772701753634878500,2.10787841796875,-0.24298922717571259,-0.18634569644927979,-0.18825681507587433
1772701753644927500,2.117927490234375,-0.20623980462551117,-0.6535629034042358,-0.21777383983135223
1772701753654975500,2.1279755859375,-0.09547121077775955,-0.6820417046546936,0.016294587403535843
1772701753665024500,2.1380244140625,0.05707864835858345,-0.4228847026824951,0.396252304315567
1772701753675072500,2.148072509765625,0.13895061612129211,-0.09572575986385345,0.7160396575927734
1772701753685121300,2.158121337890625,0.1152888685464859,-0.01198350265622139,0.8742031455039978
1772701753695169500,2.16816943359375,0.11218974739313126,-0.23932823538780212,0.9087944030761719
1772701753705217300,2.17821728515625,0.1983443647623062,-0.528432309627533,0.9152994751930237
1772701753715266600,2.1882666015625,0.22734832763671875,-0.6927624344825745,0.8276007771492004
1772701753725314300,2.198314208984375,0.15542754530906677,-0.7130624055862427,0.6493176221847534
1772701753735363600,2.208363525390625,0.08446893841028214,-0.6583759784698486,0.39582809805870056
1772701753745411300,2.218411376953125,0.024981260299682617,-0.4995597302913666,0.0819396823644638
1772701753755460600,2.228460693359375,-0.029652424156665802,-0.35746651887893677,-0.22693081200122833
1772701753765508400,2.23850830078125,-0.08862098306417465,-0.4369291663169861,-0.45624613761901855
1772701753775557600,2.2485576171875,-0.10108404606580734,-0.7833946943283081,-0.5743858218193054
1772701753785605400,2.25860546875,-0.0881575495004654,-1.0816409587860107,-0.6375545263290405
1772701753795653400,2.2686533203125,-0.12051282823085785,-1.0751513242721558,-0.6761261820793152
1772701753805702400,2.278702392578125,-0.24113662540912628,-0.8491746783256531,-0.7308959364891052
1772701753815750400,2.28875048828125,-0.4673314094543457,-0.5007317662239075,-0.80758136510849
1772701753825799400,2.29879931640625,-0.6604815125465393,0.015094740316271782,-0.8395144939422607
1772701753835847400,2.308847412109375,-0.665579617023468,0.5094666481018066,-0.7029425501823425
1772701753845896400,2.318896484375,-0.5516838431358337,0.8777828216552734,-0.49877142906188965
1772701753855944400,2.3289443359375,-0.3748275935649872,1.0807881355285645,-0.16705450415611267
1772701753865993500,2.338993408203125,-0.14256536960601807,0.864970862865448,0.3567417562007904
1772701753876041500,2.34904150390625,0.03382831811904907,0.37122881412506104,0.9329147338867188
1772701753886089200,2.359089111328125,0.12800277769565582,0.17531448602676392,1.1570854187011719
1772701753896138500,2.369138427734375,0.14281687140464783,0.4280191957950592,1.1818691492080688
1772701753906186200,2.379186279296875,0.13887126743793488,0.6645731925964355,1.0913422107696533
1772701753916235500,2.389235595703125,0.14935480058193207,0.7233257293701172,0.9716641306877136
1772701753926283300,2.399283203125,0.1464845985174179,0.7419644594192505,0.802426815032959
1772701753936332500,2.40933251953125,0.11144433915615082,0.7422084212303162,0.6054381132125854
1772701753946380300,2.41938037109375,0.08229771256446838,0.6303907632827759,0.42071977257728577
1772701753956429600,2.4294296875,0.07331699877977371,0.434508353471756,0.27253562211990356
1772701753966477300,2.439477294921875,0.07704084366559982,0.1776837408542633,0.16199855506420135
1772701753976525300,2.449525390625,0.08529691398143768,-0.11568527668714523,0.08241371810436249
1772701753986574300,2.45957421875,0.09244117140769958,-0.341640442609787,0.02266300469636917
1772701753996622300,2.469622314453125,0.10030894726514816,-0.47758790850639343,-0.027000155299901962
1772701754006671400,2.47967138671875,0.11540992558002472,-0.5420572757720947,-0.18327100574970245
1772701754016719400,2.48971923828125,0.10737676173448563,-0.48035821318626404,-0.4379046559333801
1772701754026768400,2.499768310546875,0.06778637319803238,-0.22945697605609894,-0.6636515259742737
1772701754036816400,2.50981640625,0.038826897740364075,-0.021080339327454567,-0.7926174998283386
1772701754046865400,2.519865478515625,0.02300112508237362,-0.053154803812503815,-0.8302383422851562
1772701754056913400,2.529913330078125,0.03897343575954437,0.08046051114797592,-0.8207524418830872
1772701754066961400,2.53996142578125,0.08119964599609375,0.5179789066314697,-0.8754546046257019
1772701754077010400,2.550010498046875,0.09525208175182343,1.001771092414856,-0.9523232579231262
1772701754087058400,2.560058349609375,0.015636593103408813,1.1650421619415283,-0.928632378578186
1772701754097107500,2.570107421875,-0.12423369288444519,0.5049494504928589,-0.7603059411048889
1772701754107155200,2.5801552734375,-0.09929307550191879,0.24872015416622162,-0.6742388010025024
1772701754117204500,2.59020458984375,0.06142336502671242,0.41779759526252747,-0.5104871392250061
1772701754127252200,2.600252197265625,0.14912134408950806,-0.03262918442487717,-0.44764846563339233
1772701754137301500,2.610301513671875,0.2200346738100052,-0.6352586150169373,-0.4152500331401825
1772701754147349200,2.620349365234375,0.24475955963134766,-0.6646287441253662,-0.06598757207393646
1772701754157398500,2.6303984375,0.2443169504404068,-0.43033742904663086,0.5087494850158691
1772701754167446300,2.6404462890625,0.19333882629871368,-0.23356327414512634,1.0642210245132446
1772701754177494500,2.65049462890625,0.12891030311584473,-0.0029889224097132683,1.451924204826355
1772701754187543300,2.660543212890625,0.11768728494644165,0.055875975638628006,1.6082230806350708
1772701754197592300,2.67059228515625,0.13047738373279572,0.06088005378842354,1.5995603799819946
1772701754207641300,2.680641357421875,0.14934782683849335,0.09260493516921997,1.4787397384643555
1772701754217689300,2.690689453125,0.17901118099689484,0.09891635924577713,1.2994205951690674
1772701754227738400,2.70073828125,0.1828569918870926,0.0024380474351346493,1.0627515316009521
1772701754237786400,2.710786376953125,0.12459874153137207,-0.21221725642681122,0.8263480067253113
1772701754247835400,2.72083544921875,0.004499438218772411,-0.45877575874328613,0.6176539063453674
1772701754257883400,2.73088330078125,-0.1315702497959137,-0.6529417634010315,0.4575076103210449
1772701754267931100,2.74093115234375,-0.23021452128887177,-0.7149257659912109,0.3701137602329254
1772701754277980400,2.75098046875,-0.2943705916404724,-0.6201017498970032,0.34099236130714417
1772701754288028200,2.761028076171875,-0.35321828722953796,-0.4769386947154999,0.3033803701400757
1772701754298077400,2.771077392578125,-0.3910732567310333,-0.384687602519989,0.24661538004875183
1772701754308125200,2.781125244140625,-0.39764469861984253,-0.3111966550350189,0.18230852484703064
1772701754318174500,2.791174560546875,-0.4332820475101471,-0.23614665865898132,0.08901612460613251
1772701754328222200,2.80122216796875,-0.48048195242881775,-0.21044570207595825,-0.01906086690723896
1772701754338271500,2.811271484375,-0.5064703822135925,-0.2532943785190582,-0.11572456359863281
1772701754348319200,2.8213193359375,-0.5548083782196045,-0.24703899025917053,-0.1489017903804779
1772701754358367500,2.831367431640625,-0.5637331604957581,-0.09810410439968109,-0.07709791511297226
1772701754368416300,2.841416259765625,-0.4984179735183716,0.17130504548549652,0.03834375739097595
1772701754378464300,2.85146435546875,-0.4099658727645874,0.558032751083374,0.15537850558757782
1772701754388513300,2.86151318359375,-0.2718549072742462,0.9657120108604431,0.31413400173187256
1772701754398561300,2.871561279296875,-0.14217841625213623,1.1349090337753296,0.5794546008110046
1772701754408610300,2.8816103515625,-0.14850981533527374,0.5513616800308228,0.8547269105911255
1772701754418658300,2.891658203125,-0.4839799404144287,-0.6972411274909973,0.5802546143531799
1772701754428707300,2.901707275390625,-0.7753912210464478,-1.6301988363265991,0.2870882451534271
1772701754438755300,2.91175537109375,-0.6296167373657227,-1.117427945137024,0.3749866783618927
1772701754448804400,2.921804443359375,-0.5362378358840942,0.12045418471097946,0.5036787390708923
1772701754458852400,2.931852294921875,-0.5553513765335083,0.8938678503036499,0.5095171928405762
1772701754468900400,2.941900390625,-0.5019937753677368,1.1670255661010742,0.38367125391960144
1772701754478949400,2.951949462890625,-0.2881810963153839,1.0059086084365845,0.25084689259529114
1772701754488997000,2.9619970703125,-0.08493528515100479,0.660437822341919,0.143581822514534
1772701754499046400,2.97204638671875,-0.11002146452665329,0.2771652936935425,0.020356304943561554
1772701754509094100,2.98209423828125,-0.17338868975639343,0.060948751866817474,-0.06643237173557281
1772701754519143400,2.992143310546875,-0.19960378110408783,-0.0019306140020489693,-0.06340435892343521
1772701754529191200,3.002191162109375,-0.2135460078716278,0.1135946586728096,-0.011448397301137447
1772701754539240400,3.012240478515625,-0.2249392867088318,0.2612248659133911,0.04217967763543129
1772701754549288200,3.0222880859375,-0.24750886857509613,0.26658895611763,0.06086278334259987
1772701754559336400,3.03233642578125,-0.3023308515548706,0.12406004965305328,0.03548738360404968
1772701754569385200,3.04238525390625,-0.3471029996871948,0.10823372006416321,0.07142943888902664
1772701754579433500,3.05243359375,-0.3651145100593567,0.12768998742103577,0.15706631541252136
1772701754589482200,3.062482177734375,-0.3463006615638733,0.13473515212535858,0.26783955097198486
1772701754599530200,3.0725302734375,-0.2979022264480591,0.0797233060002327,0.3896980881690979
1772701754609579300,3.082579345703125,-0.2445647418498993,0.033264368772506714,0.511826753616333
1772701754619627300,3.092627197265625,-0.22049376368522644,-0.052719783037900925,0.5787256360054016
1772701754629676300,3.10267626953125,-0.29378706216812134,-0.22188431024551392,0.5455784797668457
1772701754639724300,3.112724365234375,-0.4068070948123932,-0.3682641386985779,0.48896682262420654
1772701754649773300,3.122773193359375,-0.4896466135978699,-0.42807382345199585,0.4441005289554596
1772701754659821300,3.1328212890625,-0.5661046504974365,-0.4458155333995819,0.37605276703834534
1772701754669869300,3.142869384765625,-0.6424010396003723,-0.5007870197296143,0.2633603811264038
1772701754679918300,3.15291845703125,-0.6539967060089111,-0.7306604385375977,0.13995403051376343
1772701754689966300,3.16296630859375,-0.5703080296516418,-1.1276627779006958,0.07530883699655533
1772701754700015400,3.173015380859375,-0.43522801995277405,-1.473149299621582,0.23221589624881744
1772701754710063000,3.18306298828125,-0.24900542199611664,-1.5122530460357666,0.6690852046012878
1772701754720112400,3.1931123046875,-0.03902796655893326,-1.6317884922027588,1.2488141059875488
1772701754730160000,3.20316015625,0.06771548837423325,-1.9204497337341309,1.7862244844436646
1772701754740209400,3.21320947265625,0.04860065132379532,-2.0618600845336914,1.9975026845932007
1772701754750257200,3.223257080078125,-0.12172798067331314,-2.096522331237793,1.904040813446045
1772701754760306400,3.233306396484375,-0.38948190212249756,-1.9331248998641968,1.6115667819976807
1772701754770354200,3.243354248046875,-0.6765308976173401,-1.665226697921753,1.2350319623947144
1772701754780402400,3.25340234375,-0.9735940098762512,-1.5898417234420776,0.8973618149757385
1772701754790451200,3.263451171875,-1.1237213611602783,-1.294150471687317,0.7827426195144653
1772701754800499500,3.27349951171875,-1.1226038932800293,-0.9266030192375183,0.757960855960846
1772701754810548200,3.28354833984375,-1.0059252977371216,-0.6627240180969238,0.7909411191940308
1772701754820596200,3.29359619140625,-0.8633913397789001,-0.5567379593849182,0.8436123132705688
1772701754830645200,3.303645263671875,-0.7071268558502197,-0.4533653259277344,0.8498479723930359
1772701754840693200,3.313693359375,-0.5531764626502991,-0.34925249218940735,0.7582114934921265
1772701754850742300,3.3237421875,-0.4503328204154968,-0.19018396735191345,0.6379714608192444
1772701754860790300,3.333790283203125,-0.3653939664363861,-0.014281106181442738,0.49613580107688904
1772701754870839300,3.34383935546875,-0.2823614478111267,0.16189992427825928,0.32351043820381165
1772701754880887300,3.35388720703125,-0.2254217267036438,0.3180546462535858,0.1169375330209732
1772701754890935300,3.363935302734375,-0.16875159740447998,0.3906724750995636,-0.08728716522455215
1772701754900984300,3.373984375,-0.11752676963806152,0.4296933710575104,-0.2822084426879883
1772701754911032300,3.3840322265625,-0.06119212135672569,0.4047113060951233,-0.4780586361885071
1772701754921081300,3.394081298828125,0.0002837537322193384,0.3618682622909546,-0.6731829047203064
1772701754931129300,3.40412939453125,0.03922419250011444,0.37091541290283203,-0.888696014881134
1772701754941178400,3.414178466796875,0.0644051805138588,0.42717042565345764,-1.1040605306625366
1772701754951226000,3.42422607421875,0.07740790396928787,0.4557763338088989,-1.2834218740463257
1772701754961275400,3.434275390625,0.06916302442550659,0.42021435499191284,-1.432019829750061
1772701754971323100,3.4443232421875,0.03615035116672516,0.34540891647338867,-1.5192457437515259
1772701754981371400,3.454371337890625,-0.01991664618253708,0.24363994598388672,-1.5609474182128906
1772701754991420200,3.464420166015625,-0.07796136289834976,0.10978024452924728,-1.5458372831344604
1772701755001468400,3.474468505859375,-0.11666428297758102,0.050747282803058624,-1.471062421798706
1772701755011517200,3.48451708984375,-0.11054839938879013,0.05513551086187363,-1.3393608331680298
1772701755021565400,3.4945654296875,-0.09215367585420609,0.091644786298275,-1.1630147695541382
1772701755031614200,3.5046142578125,-0.09104315936565399,0.15623565018177032,-0.9547563195228577
1772701755041662200,3.514662109375,-0.09255076944828033,0.21481160819530487,-0.7550557255744934
1772701755051711200,3.524711181640625,-0.08692511171102524,0.2977062165737152,-0.5532041192054749
1772701755061759200,3.53475927734375,-0.05966205894947052,0.37997180223464966,-0.3403836786746979
1772701755071808300,3.544808349609375,-0.02735685370862484,0.4248400032520294,-0.14950300753116608
1772701755081856300,3.554856201171875,0.013022526167333126,0.43140628933906555,0.005100157577544451
1772701755091904500,3.564904541015625,0.05379698798060417,0.4811646342277527,0.13906531035900116
1772701755101953300,3.574953369140625,0.08714456111192703,0.5529860854148865,0.23370234668254852
1772701755112001500,3.58500146484375,0.1091318279504776,0.5456922650337219,0.2881312668323517
1772701755122050300,3.59505029296875,0.12403833866119385,0.38330206274986267,0.29720544815063477
1772701755132098600,3.6050986328125,0.11322957277297974,0.20862515270709991,0.24742567539215088
1772701755142147300,3.615147216796875,0.007172382436692715,0.16701379418373108,0.1331622153520584
1772701755152195300,3.6251953125,-0.1145477145910263,0.4036716818809509,-0.009257483296096325
1772701755162244400,3.635244384765625,-0.03173486143350601,1.1278427839279175,-0.058030083775520325
1772701755172292400,3.645292236328125,0.26531681418418884,2.2112491130828857,0.06474996358156204
1772701755182341400,3.65534130859375,0.5527328848838806,3.233570098876953,0.4414876699447632
1772701755192389000,3.66538916015625,0.3874748945236206,3.858093023300171,0.6715003252029419
1772701755202436900,3.675436767578125,-0.565963625907898,3.3192050457000732,0.44703736901283264
1772701755212486100,3.685486083984375,-0.9702454805374146,1.2857402563095093,0.20761537551879883
1772701755222534000,3.695533935546875,-0.5233108401298523,-0.5263347029685974,-0.008181099779903889
1772701755232583200,3.705583251953125,-0.36656254529953003,-1.1811285018920898,-0.3846604526042938
1772701755242631000,3.715630859375,-0.18656854331493378,-0.01993700861930847,-0.7322894930839539
1772701755252680000,3.725679931640625,-0.07864357531070709,0.5576906204223633,-0.9251153469085693
1772701755262728000,3.73572802734375,-0.02801714465022087,0.7451867461204529,-0.8850377202033997
1772701755272777000,3.74577685546875,0.07679545879364014,0.8298124074935913,-0.6235076189041138
1772701755282825000,3.755824951171875,0.2371094971895218,0.42119085788726807,-0.49647247791290283
1772701755292874000,3.7658740234375,0.2914755940437317,0.06570377200841904,-0.44174322485923767
1772701755302922000,3.775921875,0.2551229000091553,0.047902144491672516,-0.3876038193702698
1772701755312971000,3.785970947265625,0.23610499501228333,0.09138723462820053,-0.3740676939487457
1772701755323019000,3.79601904296875,0.2384413778781891,0.12091637402772903,-0.3913215100765228
1772701755333067000,3.80606689453125,0.21747474372386932,0.05346935987472534,-0.43550384044647217
1772701755343116000,3.816115966796875,0.16642248630523682,-0.08590424060821533,-0.48139864206314087
1772701755353164000,3.8261640625,0.12743516266345978,-0.22567084431648254,-0.5323171019554138
1772701755363213000,3.836213134765625,0.13848915696144104,-0.43222907185554504,-0.5450217127799988
1772701755373261000,3.846260986328125,0.1504214107990265,-0.5566943883895874,-0.498700350522995
1772701755383310000,3.85631005859375,0.16297607123851776,-0.519964873790741,-0.4653961658477783
1772701755393358000,3.866358154296875,0.18002261221408844,-0.37009021639823914,-0.3627129793167114
1772701755403407000,3.876406982421875,0.26605895161628723,-0.1373099833726883,-0.21461139619350433
1772701755413455000,3.886455078125,0.33391809463500977,0.2308683544397354,-0.04319637641310692
1772701755423504100,3.896504150390625,0.3728010356426239,0.6645081639289856,0.13276587426662445
1772701755433552100,3.90655224609375,0.41934695839881897,1.0750200748443604,0.2881733179092407
1772701755443600000,3.916599853515625,0.45206546783447266,1.4298039674758911,0.4396800398826599
1772701755453649200,3.926649169921875,0.44037070870399475,1.5898656845092773,0.6151595711708069
1772701755463697000,3.93669677734375,0.38065385818481445,1.4088451862335205,0.8171795010566711
1772701755473746200,3.94674609375,0.3018419146537781,0.9025636315345764,1.0247130393981934
1772701755483794000,3.9567939453125,0.17245063185691833,0.10112206637859344,1.1059759855270386
1772701755493843200,3.96684326171875,-0.10062197595834732,-0.45087122917175293,0.976365327835083
1772701755503891000,3.976890869140625,-0.3952924907207489,-0.26527661085128784,0.7381226420402527
1772701755513940000,3.98693994140625,-0.5509121417999268,0.5316705107688904,0.6228327751159668
1772701755523988000,3.996988037109375,-0.6315550804138184,1.2013591527938843,0.5357127785682678
1772701755534037000,4.007037109375,-0.68702232837677,1.1686453819274902,0.39207887649536133
1772701755544085000,4.0170849609375,-0.6765661835670471,0.767042338848114,0.29683730006217957
1772701755554133000,4.027133056640625,-0.6192708611488342,0.443687379360199,0.2753276824951172
1772701755564182000,4.03718212890625,-0.5622163414955139,0.16497264802455902,0.2342337667942047
1772701755574230000,4.04722998046875,-0.49953436851501465,0.06229894980788231,0.22413329780101776
1772701755584279000,4.057279052734375,-0.3639483153820038,-0.09435909986495972,0.15203459560871124
1772701755594327000,4.0673271484375,-0.30716973543167114,-0.26023441553115845,0.10391085594892502
1772701755604376000,4.0773759765625,-0.2645202875137329,-0.24784192442893982,0.08920594304800034
1772701755614424000,4.087424072265625,-0.2442743182182312,-0.19036351144313812,0.07768314331769943
1772701755624473000,4.09747314453125,-0.258512407541275,-0.14518111944198608,0.063471719622612
1772701755634521000,4.10752099609375,-0.2872251272201538,-0.14644894003868103,0.023636583238840103
1772701755644570000,4.117570068359375,-0.30779165029525757,-0.16036981344223022,-0.051260028034448624
1772701755654618000,4.1276181640625,-0.31289705634117126,-0.15016525983810425,-0.1587975025177002
1772701755664667100,4.137667236328125,-0.31753095984458923,-0.13681350648403168,-0.28187498450279236
1772701755674715100,4.147715087890625,-0.32011955976486206,-0.12292757630348206,-0.35749930143356323
1772701755684763000,4.157762939453125,-0.3283143937587738,-0.15861286222934723,-0.38682684302330017
1772701755694812200,4.167812255859375,-0.36414921283721924,-0.25849270820617676,-0.32709282636642456
1772701755704860000,4.17785986328125,-0.4205437898635864,-0.4371868371963501,-0.1988680213689804
1772701755714909200,4.1879091796875,-0.5026783347129822,-0.6423637270927429,-0.045411258935928345
1772701755724957000,4.19795703125,-0.5810503959655762,-0.8107998967170715,0.06965753436088562
1772701755735006200,4.208006103515625,-0.6141037940979004,-0.9160295128822327,0.155000701546669
1772701755745054000,4.218053955078125,-0.6287083029747009,-1.0069935321807861,0.2089211791753769
1772701755755103200,4.228103271484375,-0.6697923541069031,-1.020597219467163,0.23412321507930756
1772701755765151000,4.23815087890625,-0.6955946087837219,-0.9001677632331848,0.24784249067306519
1772701755775200300,4.2482001953125,-0.7094727754592896,-0.708112895488739,0.22709400951862335
1772701755785248000,4.258248046875,-0.7471189498901367,-0.558382511138916,0.21598249673843384
1772701755795297000,4.268297119140625,-0.8112728595733643,-0.5780068039894104,0.24499046802520752
1772701755805345000,4.278344970703125,-0.833784282207489,-0.7277787327766418,0.2541317939758301
1772701755815393000,4.28839306640625,-0.7905343174934387,-0.8221930265426636,0.19604793190956116
1772701755825442000,4.298442138671875,-0.7259529232978821,-0.8473979830741882,0.12008818238973618
1772701755835490000,4.308489990234375,-0.6596961617469788,-0.9019522666931152,0.09208635240793228
1772701755845539000,4.3185390625,-0.5896859169006348,-1.0052852630615234,0.1431703120470047
1772701755855587000,4.328587158203125,-0.5334866046905518,-1.0650219917297363,0.2440463900566101
1772701755865636000,4.338635986328125,-0.49587690830230713,-0.9789606928825378,0.3605804443359375
1772701755875684000,4.34868408203125,-0.4122460186481476,-0.8710110187530518,0.4300169348716736
1772701755885733000,4.358733154296875,-0.30399036407470703,-0.7828584909439087,0.44507497549057007
1772701755895781000,4.368781005859375,-0.18487407267093658,-0.7027470469474792,0.4281725585460663
1772701755905830100,4.378830078125,-0.07268281280994415,-0.6463490128517151,0.3920432925224304
1772701755915878100,4.388878173828125,0.012463968247175217,-0.6316507458686829,0.35427603125572205
1772701755925927000,4.398927001953125,0.04896525293588638,-0.6131747961044312,0.33542004227638245
1772701755935975200,4.40897509765625,0.06531309336423874,-0.5730376243591309,0.3335767388343811
1772701755946023000,4.41902294921875,0.07311376184225082,-0.49744167923927307,0.318901389837265
1772701755956072200,4.429072265625,0.08882282674312592,-0.3768956959247589,0.25531134009361267
1772701755966120000,4.439119873046875,0.11297130584716797,-0.23357714712619781,0.16296115517616272
1772701755976169200,4.449169189453125,0.14231453835964203,-0.1048966720700264,0.044884584844112396
1772701755986217000,4.459217041015625,0.1663932353258133,0.029197486117482185,-0.07383593916893005
1772701755996266200,4.469266357421875,0.20275038480758667,0.11357871443033218,-0.21191272139549255
1772701756006314000,4.47931396484375,0.25041696429252625,0.06686020642518997,-0.3191203773021698
1772701756016363300,4.48936328125,0.2807197868824005,-0.08011338114738464,-0.3663741946220398
1772701756026411000,4.499410888671875,0.3323683440685272,-0.32062798738479614,-0.32164719700813293
1772701756036460000,4.5094599609375,0.3840639591217041,-0.5149666666984558,-0.23391370475292206
1772701756046508000,4.519508056640625,0.43372926115989685,-0.6074039340019226,-0.09209717065095901
1772701756056557000,4.52955712890625,0.4333287477493286,-0.544249415397644,0.052971307188272476
1772701756066605000,4.53960498046875,0.45317116379737854,-0.38876399397850037,0.1898018717765808
1772701756076653000,4.549653076171875,0.5037630796432495,-0.20827296376228333,0.3281269073486328
1772701756086702000,4.5597021484375,0.42632049322128296,0.02502688392996788,0.35778626799583435
1772701756096750000,4.56975,0.3563731014728546,0.14859521389007568,0.33582979440689087
1772701756106799000,4.579799072265625,0.28973761200904846,0.28287869691848755,0.2823849618434906
1772701756116847000,4.58984716796875,0.220355823636055,0.4592437148094177,0.21577376127243042
1772701756126896000,4.599896240234375,0.1545480489730835,0.6039362549781799,0.13336089253425598
1772701756136944000,4.609944091796875,0.10119646042585373,0.712112545967102,0.04151405021548271
1772701756146993000,4.619992919921875,0.06833012402057648,0.8545794486999512,-0.06546539068222046
1772701756157041200,4.630041259765625,0.06066383048892021,0.9921500086784363,-0.154376819729805
1772701756167090000,4.64008984375,0.0563199482858181,0.9938739538192749,-0.21181000769138336
1772701756177138200,4.65013818359375,0.04268692433834076,0.8861169219017029,-0.24313445389270782
1772701756187186000,4.66018603515625,0.009446675889194012,0.7794355154037476,-0.296487957239151
1772701756197234700,4.670234619140625,-0.02423139289021492,0.66619873046875,-0.3751891553401947
1772701756207282700,4.68028271484375,-0.02343856915831566,0.545383870601654,-0.43984299898147583
1772701756217331700,4.690331787109375,0.009988748468458652,0.504661500453949,-0.41016823053359985
1772701756227379500,4.70037939453125,0.060527022927999496,0.5418189764022827,-0.2768394649028778
1772701756237428700,4.7104287109375,0.10604476183652878,0.7525964379310608,-0.032483309507369995
1772701756247476500,4.7204765625,0.10868795216083527,1.1374282836914062,0.3101414144039154
1772701756257525800,4.73052587890625,0.10772684216499329,1.4321603775024414,0.6901043057441711
1772701756267573500,4.740573486328125,0.1310630589723587,1.4502381086349487,0.9615206718444824
1772701756277622800,4.750622802734375,0.17943011224269867,1.21074378490448,0.949682891368866
1772701756287670500,4.76067041015625,0.160276398062706,0.9037705063819885,0.6784636378288269
1772701756297719800,4.7707197265625,-0.06651607155799866,1.2172107696533203,0.30307549238204956
1772701756307767600,4.780767578125,-0.10155581682920456,1.1185638904571533,-0.013303514569997787
1772701756317816800,4.79081689453125,0.10109961032867432,0.5956634879112244,-0.2517922818660736
1772701756327864600,4.800864501953125,0.28961172699928284,0.15698041021823883,-0.35830938816070557
1772701756337912600,4.81091259765625,0.4288250505924225,-0.07468073070049286,-0.42777860164642334
1772701756347961600,4.820961669921875,0.562140703201294,-0.024057500064373016,-0.39212846755981445
1772701756358009600,4.831009521484375,0.6935832500457764,0.27510926127433777,-0.2180580198764801
1772701756368058600,4.84105859375,0.811524510383606,0.6357936859130859,-0.03439151495695114
1772701756378106600,4.851106689453125,0.9321833848953247,0.8626044392585754,0.04892373085021973
1772701756388155600,4.86115576171875,1.030296802520752,0.9869522452354431,0.0611250065267086
1772701756398203600,4.87120361328125,1.0900429487228394,0.9946506023406982,0.007432747166603804
1772701756408252700,4.881252685546875,1.1186435222625732,0.8260418772697449,-0.09530480206012726
1772701756418300700,4.89130078125,1.1566160917282104,0.5062768459320068,-0.23029302060604095
1772701756428349700,4.901349609375,1.1582549810409546,0.2211601287126541,-0.350674569606781
1772701756438397700,4.911397705078125,1.0948368310928345,0.11026611924171448,-0.4430282711982727
1772701756448446700,4.92144677734375,1.007524013519287,0.1411191076040268,-0.5044021606445312
1772701756458494700,4.93149462890625,0.9087731838226318,0.2415122389793396,-0.5164284706115723
1772701756468543700,4.941543701171875,0.8035892248153687,0.2820090651512146,-0.5313951969146729
1772701756478591700,4.951591796875,0.6551321148872375,0.19176937639713287,-0.5952854752540588
1772701756488639500,4.961639404296875,0.4680336117744446,0.2361259162425995,-0.6128812432289124
1772701756498688800,4.971688720703125,0.2777682840824127,0.6004102826118469,-0.5709234476089478
1772701756508736500,4.981736572265625,0.10956650227308273,0.9104360342025757,-0.5704334378242493
1772701756518785800,4.991785888671875,-0.018809562548995018,1.0103355646133423,-0.5193378329277039
1772701756528833500,5.00183349609375,-0.12255859375,0.9277842044830322,-0.3194095492362976
1772701756538882800,5.0118828125,-0.2339603155851364,0.778897225856781,-0.029667016118764877
1772701756548930600,5.0219306640625,-0.3480490744113922,0.5744215846061707,0.2699492573738098
1772701756558979800,5.031979736328125,-0.42891472578048706,0.3219378590583801,0.5844957828521729
1772701756569027600,5.042027587890625,-0.506110668182373,0.11272206902503967,0.8357051014900208
1772701756579076900,5.052076904296875,-0.580327570438385,-0.001083985436707735,0.9433616995811462
1772701756589124600,5.06212451171875,-0.6436359882354736,0.010778799653053284,0.9164214730262756
1772701756599173600,5.072173583984375,-0.6821104884147644,0.1501743644475937,0.7949662208557129
1772701756609221600,5.0822216796875,-0.6793301701545715,0.4071124196052551,0.6398687362670898
1772701756619269600,5.09226953125,-0.6466203331947327,0.5041044354438782,0.44369032979011536
1772701756629318700,5.102318603515625,-0.5875027179718018,0.42165854573249817,0.2775857746601105
1772701756639366700,5.11236669921875,-0.5248722434043884,0.2698166072368622,0.1410224437713623
1772701756649415700,5.122415771484375,-0.46121394634246826,0.08118490129709244,0.009958966635167599
1772701756659463700,5.132463623046875,-0.374985933303833,-0.09920358657836914,-0.14557862281799316
1772701756669512700,5.1425126953125,-0.27132612466812134,-0.26686927676200867,-0.3002725839614868
1772701756679560700,5.152560791015625,-0.182692751288414,-0.42877131700515747,-0.41634419560432434
1772701756689609700,5.162609619140625,-0.12327443063259125,-0.5572989583015442,-0.49389758706092834
1772701756699657700,5.17265771484375,-0.08370227366685867,-0.6583737134933472,-0.5395261645317078
1772701756709706500,5.18270654296875,-0.059460852295160294,-0.7096121311187744,-0.5624821186065674
1772701756719754800,5.192754638671875,-0.035661984235048294,-0.6935976147651672,-0.5487309098243713
1772701756729803500,5.202803466796875,0.0014986982569098473,-0.6363382935523987,-0.5099616646766663
1772701756739851800,5.212851806640625,0.028536587953567505,-0.6255818605422974,-0.4352490305900574
1772701756749900500,5.222900634765625,0.04113200679421425,-0.6789374947547913,-0.3283979296684265
1772701756759948800,5.23294873046875,0.02881910838186741,-0.7263005971908569,-0.17596133053302765
1772701756769996500,5.24299658203125,-0.049559056758880615,-0.8671248555183411,0.04864807426929474
1772701756780045800,5.2530458984375,-0.167307049036026,-1.236647129058838,0.40285733342170715
1772701756790093600,5.263093505859375,-0.22371919453144073,-1.5799983739852905,0.955723226070404
1772701756800142800,5.273142822265625,-0.18730711936950684,-1.788798451423645,1.5440374612808228
1772701756810190600,5.283190673828125,-0.2812328040599823,-2.2575089931488037,2.026149272918701
1772701756820239600,5.293239501953125,-0.298115074634552,-2.824150323867798,2.513414144515991
1772701756830287600,5.30328759765625,-0.23254351317882538,-3.1340503692626953,2.9922728538513184
1772701756840336600,5.313336669921875,-0.2633129060268402,-3.091055393218994,3.197589159011841
1772701756850384600,5.323384521484375,-0.23931409418582916,-2.869450330734253,3.0369791984558105
1772701756860433700,5.33343359375,-0.14435149729251862,-2.6368160247802734,2.6403300762176514
1772701756870481700,5.343481689453125,-0.14649614691734314,-2.1986660957336426,2.067985773086548
1772701756880529700,5.35352978515625,-0.16562801599502563,-1.85689115524292,1.3790111541748047
1772701756890836700,5.363836669921875,-0.160591721534729,-1.7846719026565552,0.7118275165557861
1772701756900626700,5.373626708984375,-0.06790057569742203,-1.9498159885406494,-0.05691078305244446
1772701756910675700,5.38367578125,0.0977080911397934,-2.0691800117492676,-0.597571849822998
1772701756920723700,5.3937236328125,0.3017754554748535,-2.061856985092163,-0.9209423661231995
1772701756930772700,5.403772705078125,0.45482784509658813,-1.936647891998291,-1.051619291305542
1772701756940820700,5.41382080078125,0.523078978061676,-1.6611204147338867,-1.0997090339660645
1772701756950869500,5.423869384765625,0.5321566462516785,-1.2857213020324707,-1.1262178421020508
1772701756960917800,5.433917724609375,0.5233277082443237,-0.8402067422866821,-1.1611409187316895
1772701756970966500,5.443966552734375,0.4731404483318329,-0.31453412771224976,-1.233619213104248
1772701756981014800,5.454014892578125,0.5757611989974976,0.3128441572189331,-1.2421410083770752
1772701756991063600,5.4640634765625,0.40214550495147705,0.803083062171936,-1.1952667236328125
1772701757001111800,5.47411181640625,0.5259208679199219,1.0447421073913574,-1.054329514503479
1772701757011160600,5.48416064453125,0.3789684474468231,1.0067806243896484,-0.8318266272544861
1772701757021208800,5.494208740234375,0.515404999256134,0.9250261187553406,-0.5780328512191772
1772701757031257600,5.504257568359375,0.33480677008628845,0.7546756863594055,-0.3320462107658386
1772701757041305900,5.514305908203125,0.3951137959957123,0.5040959119796753,-0.12279018759727478
1772701757051354600,5.524354736328125,0.24908599257469177,0.39833325147628784,0.05598009005188942
1772701757061402600,5.534402587890625,0.35646358132362366,0.4911201000213623,0.15144652128219604
1772701757071450600,5.54445068359375,0.2547851502895355,0.6155190467834473,0.18745166063308716
1772701757081499600,5.554499755859375,0.4075773060321808,0.8201534748077393,0.18739436566829681
1772701757091547600,5.564547607421875,0.3991124629974365,0.9764150381088257,0.15658052265644073
1772701757101596700,5.5745966796875,0.6067079901695251,1.1011508703231812,0.11037972569465637
1772701757111644700,5.584644775390625,0.6178192496299744,1.2018420696258545,0.05377236753702164
1772701757121693700,5.594693603515625,0.7280704379081726,1.241435170173645,-0.0003084614872932434
1772701757131741700,5.60474169921875,0.6322754621505737,1.1671733856201172,-0.08864817768335342
1772701757141790700,5.614790771484375,0.6424421072006226,1.1122751235961914,-0.21390654146671295
1772701757151838700,5.624838623046875,0.5511574745178223,1.0476559400558472,-0.35506975650787354
1772701757161887700,5.6348876953125,0.5826310515403748,1.0021324157714844,-0.48073631525039673
1772701757171935500,5.644935546875,0.5490941405296326,0.9908698797225952,-0.5937097668647766
1772701757181984800,5.65498486328125,0.5775042772293091,0.998604416847229,-0.7100855708122253
1772701757192032500,5.665032470703125,0.5409654378890991,0.9669640064239502,-0.8397253751754761
1772701757202081800,5.675081787109375,0.5685533881187439,0.9241489768028259,-0.9538788795471191
1772701757212129800,5.6851298828125,0.57459557056427,0.8493461012840271,-1.072800636291504
1772701757222178800,5.6951787109375,0.5763332843780518,0.801749587059021,-1.1777467727661133
1772701757232226800,5.705226806640625,0.5336270332336426,0.7608009576797485,-1.2794454097747803
1772701757242275800,5.71527587890625,0.4471520483493805,0.6831538081169128,-1.3697178363800049
1772701757252323800,5.72532373046875,0.36131003499031067,0.5136566758155823,-1.4377347230911255
1772701757262372900,5.735372802734375,0.26998409628868103,0.3266332149505615,-1.480656623840332
1772701757272420900,5.7454208984375,0.22892315685749054,0.24470756947994232,-1.5724424123764038
1772701757282468900,5.75546875,0.15159986913204193,0.4051760733127594,-1.7278282642364502
1772701757292518000,5.765517822265625,0.14228005707263947,0.6811685562133789,-1.8914154767990112
1772701757302566000,5.77556591796875,0.18783235549926758,0.8431217670440674,-2.0606722831726074
1772701757312615000,5.785614990234375,0.25594884157180786,0.8959237933158875,-2.205204725265503
1772701757322663000,5.795662841796875,0.2208862006664276,1.016764521598816,-2.2012057304382324
1772701757332712000,5.8057119140625,0.22902053594589233,0.9220154285430908,-2.108661651611328
1772701757342760000,5.815760009765625,0.3799722194671631,0.830696165561676,-2.0080008506774902
1772701757352809000,5.82580908203125,0.1633225828409195,1.4093399047851562,-1.9826545715332031
1772701757362857000,5.83585693359375,-0.16755281388759613,1.7178611755371094,-2.0560173988342285
1772701757372906000,5.845906005859375,-0.2444293051958084,1.2806717157363892,-2.0229508876800537
1772701757382954000,5.8559541015625,-0.22569157183170319,0.7092201709747314,-1.9476689100265503
1772701757393003000,5.8660029296875,-0.10952946543693542,0.19871796667575836,-1.7674505710601807
1772701757403051000,5.876051025390625,-0.020127149298787117,-0.1743038147687912,-1.4516816139221191
1772701757413100000,5.88610009765625,0.012928517535328865,-0.5938481688499451,-1.0267865657806396
1772701757423148000,5.89614794921875,-0.03145412355661392,-0.6877003312110901,-0.45771822333335876
1772701757433197000,5.906197021484375,-0.11251360177993774,-0.49120816588401794,0.10062193125486374
1772701757443245000,5.9162451171875,-0.2159004509449005,-0.14293888211250305,0.493882954120636
1772701757453293800,5.9262939453125,-0.3121856153011322,0.1686231791973114,0.73369300365448
1772701757463341800,5.936341796875,-0.3457696735858917,0.331988662481308,0.812143087387085
1772701757473390800,5.946390869140625,-0.35314667224884033,0.35111358761787415,0.7504551410675049
1772701757483438800,5.95643896484375,-0.3681602478027344,0.18878991901874542,0.551627516746521
1772701757493487900,5.96648779296875,-0.34945401549339294,-0.054966192692518234,0.2899053990840912
1772701757503535900,5.976535888671875,-0.2860875427722931,-0.24496382474899292,0.06368612498044968
1772701757513585000,5.9865849609375,-0.24118326604366302,-0.2569509446620941,-0.01760273240506649
1772701757523633000,5.9966328125,-0.25336217880249023,-0.05766978859901428,0.0165866632014513
1772701757533681000,6.006680908203125,-0.3474586308002472,-0.02230982854962349,-0.018419485539197922
1772701757543730000,6.01672998046875,-0.49855655431747437,-0.14992371201515198,-0.1518896520137787
1772701757553778000,6.02677783203125,-0.6371890902519226,-0.05900898948311806,-0.26203587651252747
1772701757563826700,6.03682666015625,-0.7160300612449646,0.11147113144397736,-0.3585115671157837
1772701757573875000,6.046875,-0.7019996643066406,0.20785948634147644,-0.39701732993125916
1772701757583923700,6.056923828125,-0.6199862957000732,0.28034940361976624,-0.33261436223983765
1772701757593972000,6.066971923828125,-0.492007315158844,0.35678941011428833,-0.17060013115406036
1772701757604020700,6.077020751953125,-0.34599870443344116,0.5059365630149841,0.025648485869169235
1772701757614069000,6.087069091796875,-0.24432037770748138,0.6057340502738953,0.14919346570968628
1772701757624117800,6.09711767578125,-0.16179540753364563,0.7625097632408142,0.23235918581485748
1772701757634166000,6.107166015625,-0.07281114906072617,1.0229899883270264,0.27669957280158997
1772701757644214800,6.11721484375,0.007567041553556919,1.1841543912887573,0.22963669896125793
1772701757654263000,6.127262939453125,0.04168381169438362,1.188988208770752,0.06282015144824982
1772701757664311800,6.137311767578125,0.03987179696559906,1.0343014001846313,-0.14950302243232727
1772701757674359800,6.14735986328125,0.09666328132152557,0.7841675281524658,-0.32067447900772095
1772701757684408800,6.157408935546875,0.21776600182056427,0.6128232479095459,-0.3960619568824768
1772701757694456800,6.167456787109375,0.3395935595035553,0.5777227878570557,-0.4114743769168854
1772701757704505900,6.177505859375,0.4413281977176666,0.7823803424835205,-0.40883225202560425
1772701757714553900,6.187553955078125,0.5398499965667725,1.1344746351242065,-0.3835095465183258
1772701757724603000,6.197602783203125,0.6097808480262756,1.1825944185256958,-0.3304692208766937
1772701757734651000,6.20765087890625,0.6925013661384583,0.9664868712425232,-0.15753477811813354
1772701757744700000,6.217699951171875,0.6943427324295044,0.6238701343536377,0.09658165276050568
1772701757754748000,6.227747802734375,0.6230334639549255,0.2274998128414154,0.3998536169528961
1772701757764797000,6.237796875,0.549332857131958,-0.18932244181632996,0.6518392562866211
1772701757774845000,6.247844970703125,0.4840392470359802,-0.5271819233894348,0.7979884147644043
1772701757784892700,6.257892578125,0.4093889594078064,-0.6907010674476624,0.7856616973876953
1772701757794942000,6.26794189453125,0.3317680358886719,-0.6573460698127747,0.6118927001953125
1772701757804989700,6.27798974609375,0.2571268081665039,-0.5035620927810669,0.32556402683258057
1772701757815039000,6.2880390625,0.16525989770889282,-0.3816021978855133,0.01380931492894888
1772701757825086700,6.298086669921875,0.06683985143899918,-0.351620614528656,-0.2148646116256714
1772701757835136000,6.308135986328125,-0.002418238203972578,-0.3826668858528137,-0.33590996265411377
1772701757845183700,6.318183837890625,-0.06714024394750595,-0.5979053974151611,-0.3244019150733948
1772701757855233000,6.32823291015625,-0.1342984437942505,-0.9247380495071411,-0.24016961455345154
1772701757865280800,6.33828076171875,-0.19389493763446808,-1.1999475955963135,-0.2004922479391098
1772701757875330000,6.348330078125,-0.2712332308292389,-1.4165760278701782,-0.2897895574569702
1772701757885377800,6.358377685546875,-0.3771149218082428,-1.4844847917556763,-0.4169325828552246
1772701757895427000,6.368427001953125,-0.5177305340766907,-1.5111719369888306,-0.5083093643188477
1772701757905474800,6.378474853515625,-0.642241358757019,-1.549031376838684,-0.5183398723602295
1772701757915524000,6.388524169921875,-0.7067143321037292,-1.656646728515625,-0.3963458836078644
1772701757925571800,6.39857177734375,-0.7051371932029724,-1.8360573053359985,-0.15568318963050842
1772701757935621000,6.40862109375,-0.6594517230987549,-1.973184585571289,0.15274465084075928
1772701757945668900,6.4186689453125,-0.5948618054389954,-2.0090343952178955,0.44416797161102295
1772701757955718000,6.4287177734375,-0.49859464168548584,-1.8272202014923096,0.5910712480545044
1772701757965766000,6.438765869140625,-0.4253140389919281,-1.4729845523834229,0.5919825434684753
1772701757975815000,6.44881494140625,-0.3867301642894745,-1.1502515077590942,0.4829420745372772
1772701757985863000,6.45886279296875,-0.40143853425979614,-0.8917734622955322,0.3655067980289459
1772701757995912000,6.468911865234375,-0.4196542501449585,-0.7493080496788025,0.34718573093414307
1772701758005960000,6.4789599609375,-0.4654552936553955,-0.7662116289138794,0.4077049791812897
1772701758016009000,6.489009033203125,-0.5342860817909241,-0.8344665765762329,0.4606519639492035
1772701758026057000,6.499056884765625,-0.6182906627655029,-0.8367534279823303,0.4726804196834564
1772701758036105000,6.50910498046875,-0.6659185290336609,-0.7732049822807312,0.4166540205478668
1772701758046154000,6.519154052734375,-0.6672508716583252,-0.6369931101799011,0.33227258920669556
1772701758056202000,6.529201904296875,-0.6033834218978882,-0.4549437463283539,0.20847053825855255
1772701758066250800,6.539250732421875,-0.49420687556266785,-0.26304489374160767,0.05007210001349449
1772701758076299000,6.549299072265625,-0.3880121111869812,-0.06659398227930069,-0.13322210311889648
1772701758086347800,6.55934765625,-0.2950800359249115,0.1258857101202011,-0.3082368075847626
1772701758096396000,6.56939599609375,-0.19234980642795563,0.26607760787010193,-0.4658297002315521
1772701758106444800,6.57944482421875,-0.07470573484897614,0.3530958592891693,-0.595275342464447
1772701758116493000,6.5894931640625,0.04178333654999733,0.4195839762687683,-0.7307572364807129
1772701758126541800,6.599541748046875,0.2136714607477188,0.5018895268440247,-0.8575668334960938
1772701758136590000,6.609590087890625,0.32461753487586975,0.5554857850074768,-0.9565914273262024
1772701758146638800,6.619638916015625,0.4633572995662689,0.434305340051651,-1.044486165046692
1772701758156687000,6.62968701171875,0.456697016954422,0.2533772587776184,-1.0912150144577026
1772701758166736000,6.63973583984375,0.47479984164237976,0.0987519919872284,-1.043000340461731
1772701758176784000,6.649783935546875,0.4964061379432678,-0.000231950543820858,-0.8957366347312927
1772701758186833000,6.6598330078125,0.5025108456611633,0.051748961210250854,-0.6962107419967651
1772701758196881400,6.66988134765625,0.5303341746330261,0.17671218514442444,-0.45773375034332275
1772701758206930700,6.6799306640625,0.5658082962036133,0.28597185015678406,-0.1912090927362442
1772701758216978400,6.689978515625,0.5950650572776794,0.33997803926467896,0.05105718597769737
1772701758227027700,6.70002783203125,0.6297093033790588,0.40447232127189636,0.23286506533622742
1772701758237075500,6.710075439453125,0.6477833986282349,0.39243489503860474,0.3593747019767761
1772701758247124500,6.72012451171875,0.6052031517028809,0.3356586992740631,0.4509781301021576
1772701758257172500,6.73017236328125,0.548064649105072,0.28799110651016235,0.4872874915599823
1772701758267221500,6.740221435546875,0.4907397925853729,0.21025130152702332,0.45752349495887756
1772701758277269500,6.75026953125,0.43290019035339355,0.18337053060531616,0.3619062900543213
1772701758287317500,6.7603173828125,0.37358173727989197,0.18982070684432983,0.20697021484375
1772701758297366500,6.770366455078125,0.3148118853569031,0.2358822524547577,0.033090125769376755
1772701758307414500,6.78041455078125,0.22284865379333496,0.45622795820236206,-0.05913460999727249
1772701758317463600,6.790463623046875,0.2013157457113266,0.7508310079574585,0.006367559544742107
1772701758327511600,6.800511474609375,0.2838412821292877,1.1398022174835205,0.11026600003242493
1772701758337560600,6.810560546875,0.6404316425323486,1.7250407934188843,0.3058086335659027
1772701758347608600,6.820608642578125,0.9158027768135071,2.3834004402160645,0.5449464321136475
1772701758357657300,6.8306572265625,0.5164709091186523,2.9381954669952393,0.1332053244113922
1772701758367705600,6.84070556640625,-0.20789773762226105,3.2184865474700928,-0.09908703714609146
1772701758377754400,6.85075439453125,-0.43521738052368164,2.4040944576263428,-0.27505961060523987
1772701758387802600,6.860802734375,-0.22199620306491852,0.7226883172988892,-0.2550331652164459
1772701758397851400,6.870851318359375,0.189625546336174,0.4360075891017914,-0.14352473616600037
1772701758407899600,6.880899658203125,0.6293986439704895,1.1122233867645264,-0.13354480266571045
1772701758417948400,6.890948486328125,0.8693013787269592,1.020494818687439,-0.09707412123680115
1772701758427996700,6.90099658203125,0.9857262372970581,1.0283676385879517,-0.18341992795467377
1772701758438045400,6.91104541015625,0.9827441573143005,1.1674504280090332,-0.19498324394226074
1772701758448093700,6.92109375,0.9918050169944763,0.934649646282196,-0.14591264724731445
1772701758458142500,6.931142578125,1.0785996913909912,0.8390485644340515,-0.05397471413016319
1772701758468190500,6.9411904296875,1.1309014558792114,0.9360353350639343,0.08972972631454468
1772701758478239500,6.951239501953125,1.1625217199325562,1.2531770467758179,0.19971364736557007
1772701758488287500,6.96128759765625,1.161017894744873,1.5991795063018799,0.21062195301055908
1772701758498336500,6.97133642578125,1.1365245580673218,1.7322686910629272,0.1309020072221756
1772701758508384500,6.981384521484375,1.0267999172210693,1.5528898239135742,-0.09927605837583542
1772701758518433500,6.99143359375,0.8356347680091858,1.1564505100250244,-0.465870201587677
1772701758528481500,7.0014814453125,0.6075435280799866,0.6768903136253357,-0.8770449757575989
1772701758538530600,7.011530517578125,0.43682220578193665,0.21866071224212646,-1.2128459215164185
1772701758548578600,7.02157861328125,0.39311787486076355,-0.07636880874633789,-1.3658802509307861
1772701758558626600,7.03162646484375,0.4073905944824219,-0.22157122194766998,-1.431330680847168
1772701758568675600,7.041675537109375,0.4431954622268677,-0.28589746356010437,-1.4357504844665527
1772701758578723300,7.051723388671875,0.49423637986183167,-0.3413585424423218,-1.3291301727294922
1772701758588772600,7.061772705078125,0.5074704885482788,-0.45358332991600037,-1.1889283657073975
1772701758598820400,7.0718203125,0.46543508768081665,-0.6487491726875305,-1.1322368383407593
1772701758608869600,7.08186962890625,0.43172746896743774,-0.7653234601020813,-1.115138053894043
1772701758618917400,7.09191748046875,0.38966429233551025,-0.6714783906936646,-1.091111421585083
1772701758628966700,7.101966552734375,0.34614717960357666,-0.44037941098213196,-1.0353142023086548
1772701758639014400,7.112014404296875,0.31766393780708313,-0.17902694642543793,-0.9476801753044128
1772701758649063700,7.122063720703125,0.2758070230484009,0.013616538606584072,-0.8471413254737854
1772701758659111400,7.132111328125,0.23321059346199036,0.06924065202474594,-0.7270128130912781
1772701758669160700,7.14216064453125,0.17166386544704437,0.09190335124731064,-0.4740673303604126
1772701758679208400,7.15220849609375,0.15316012501716614,0.15055936574935913,-0.2460126131772995
1772701758689257700,7.1622578125,0.14039000868797302,0.13979539275169373,-0.03260393068194389
1772701758699305500,7.172305419921875,0.06169608607888222,0.05501670762896538,0.13745836913585663
1772701758709354800,7.182354736328125,-0.061979517340660095,-0.07492664456367493,0.2661590874195099
1772701758719402500,7.192402587890625,-0.14750291407108307,-0.17433930933475494,0.32015669345855713
1772701758729451800,7.20245166015625,-0.21572910249233246,-0.15718162059783936,0.334248811006546
1772701758739499500,7.21249951171875,-0.28487661480903625,-0.12554608285427094,0.31535422801971436
1772701758749548500,7.222548583984375,-0.31811684370040894,-0.09188187122344971,0.2687765955924988
1772701758759596500,7.232596435546875,-0.33928748965263367,-0.012707853689789772,0.22798795998096466
1772701758769645600,7.2426455078125,-0.3816344141960144,0.0676461011171341,0.16338473558425903
1772701758779693600,7.252693603515625,-0.4284467101097107,0.23862259089946747,0.08134486526250839
1772701758789742600,7.26274267578125,-0.4364425837993622,0.5477343201637268,0.07076599448919296
1772701758799790600,7.27279052734375,-0.4158702492713928,0.7674118280410767,0.08679991960525513
1772701758809839400,7.28283935546875,-0.3698154091835022,0.8058021068572998,0.12791167199611664
1772701758819887600,7.2928876953125,-0.32590949535369873,0.6970415711402893,0.16160395741462708
1772701758829935600,7.302935546875,-0.30007657408714294,0.41551536321640015,0.12786489725112915
1772701758839984600,7.312984619140625,-0.2900201678276062,0.12831974029541016,0.06993918120861053
1772701758850032600,7.32303271484375,-0.2955518066883087,0.03829237073659897,0.055327482521533966
1772701758860081400,7.333081298828125,-0.310588002204895,0.10320127755403519,0.07661712169647217
1772701758870129700,7.343129638671875,-0.32312777638435364,0.26220184564590454,0.11460631340742111
1772701758880178400,7.353178466796875,-0.350662499666214,0.39431312680244446,0.1587200164794922
1772701758890226700,7.363226806640625,-0.35118529200553894,0.3793056905269623,0.18667255342006683
1772701758900275500,7.373275390625,-0.33178484439849854,0.1755349338054657,0.15303905308246613
1772701758910323700,7.38332373046875,-0.3065090477466583,-0.07331216335296631,0.08791464567184448
1772701758920372500,7.39337255859375,-0.27104148268699646,-0.20229515433311462,0.03356613591313362
1772701758930420700,7.403420654296875,-0.22077780961990356,-0.1562775820493698,0.0002356101176701486
1772701758940469500,7.413469482421875,-0.16438618302345276,0.029878022149205208,-0.012045283801853657
1772701758950517800,7.423517822265625,-0.11849432438611984,0.27758848667144775,-0.027895087376236916
1772701758960566500,7.43356640625,-0.08732093870639801,0.45711755752563477,-0.05684082210063934
1772701758970614500,7.443614501953125,-0.07507412135601044,0.505603551864624,-0.0777205377817154
1772701758980663600,7.45366357421875,-0.052671682089567184,0.43197405338287354,-0.06965740770101547
1772701758990711600,7.463711669921875,-0.026032879948616028,0.22428931295871735,-0.029492415487766266
1772701759000760600,7.473760498046875,-0.005944231525063515,-0.05504992604255676,0.01928575709462166
1772701759010808600,7.48380859375,0.01267232932150364,-0.24171487987041473,0.05979270488023758
1772701759020857600,7.493857666015625,0.04053617641329765,-0.27124232053756714,0.10158872604370117
1772701759030905600,7.503905517578125,0.044273920357227325,-0.19059805572032928,0.13193757832050323
1772701759040954600,7.51395458984375,0.04427095875144005,-0.056231409311294556,0.12878529727458954
1772701759051002600,7.524002685546875,0.05373769626021385,0.09419165551662445,0.1174415573477745
1772701759061051600,7.5340517578125,0.07671234011650085,0.18301892280578613,0.1069411039352417
1772701759071099400,7.544099365234375,0.10535570234060287,0.19138658046722412,0.13131435215473175
1772701759081148700,7.554148681640625,0.13049374520778656,0.1199689731001854,0.1682380586862564
1772701759091196400,7.564196533203125,0.1566382646560669,0.033013567328453064,0.19909104704856873
1772701759101245700,7.57424560546875,0.1744776964187622,-0.026675913482904434,0.23040911555290222
1772701759111293400,7.58429345703125,0.17779120802879333,-0.05717629939317703,0.2583147883415222
1772701759121342500,7.594342529296875,0.15417522192001343,-0.08242496103048325,0.2634457051753998
1772701759131390500,7.604390380859375,0.1304192841053009,-0.07781476527452469,0.24826782941818237
1772701759141439500,7.614439453125,0.11187618225812912,-0.04062667489051819,0.22376199066638947
1772701759151487500,7.624487548828125,0.11322560906410217,0.025480706244707108,0.18354852497577667
1772701759161535500,7.634535400390625,0.11687842011451721,0.09108587354421616,0.13401629030704498
1772701759171584500,7.64458447265625,0.12634383141994476,0.14373496174812317,0.1041627898812294
1772701759181632500,7.654632568359375,0.13465061783790588,0.13364973664283752,0.09600145369768143
1772701759191681500,7.664681640625,0.13495981693267822,0.08345448225736618,0.09565789997577667
1772701759201729300,7.674729248046875,0.11245687305927277,0.036482129245996475,0.09107764065265656
1772701759211778300,7.6847783203125,0.09004716575145721,-0.008990280330181122,0.07697886973619461
1772701759221826300,7.694826416015625,0.07390350103378296,-0.020633790642023087,0.05993364751338959
1772701759231875300,7.704875244140625,0.07100864499807358,-0.001755974255502224,0.04552594572305679
1772701759241923300,7.71492333984375,0.07583283632993698,0.0037956074811518192,0.0313928984105587
1772701759251972400,7.724972412109375,0.08128645271062851,-0.0004910165444016457,0.009014091454446316
1772701759262020400,7.735020263671875,0.08689147979021072,-0.008450443856418133,-0.01863635703921318
1772701759272069000,7.745069091796875,0.08450236171483994,-0.004025069065392017,-0.028590720146894455
1772701759282117400,7.755117431640625,0.08431828767061234,0.011717652902007103,-0.040189288556575775
1772701759292166100,7.765166259765625,0.07952006906270981,0.029737133532762527,-0.050662167370319366
1772701759302214400,7.77521435546875,0.07649228721857071,0.029238635674118996,-0.05922562628984451
1772701759312263200,7.78526318359375,0.10578998923301697,-0.05926752835512161,0.06999468058347702
1772701759322311400,7.7953115234375,0.12007202208042145,-0.35397592186927795,0.09967061132192612
1772701759332360200,7.805360107421875,0.060366615653038025,-0.5019025206565857,0.05998605117201805
1772701759342408400,7.815408447265625,0.03623758256435394,-0.4600616693496704,-0.0519871823489666
1772701759352457200,7.825457275390625,0.02882387302815914,-0.17428559064865112,-0.07172200083732605
1772701759362505500,7.83550537109375,0.03208959475159645,0.06135019659996033,-0.08729502558708191
1772701759372554200,7.84555419921875,0.02438480406999588,0.15616191923618317,-0.079032301902771
1772701759382602200,7.855602294921875,0.014701107516884804,0.12281873822212219,-0.06655696034431458
1772701759392651300,7.8656513671875,0.010910896584391594,0.022061776369810104,-0.041469454765319824
