time,seconds_elapsed,z,y,x
1772701772949518600,0.0505185546875,-0.6739501953125,0.2647552490234375,0.656097412109375
1772701772959566600,0.060566650390625,-0.6593170166015625,0.26470947265625,0.639678955078125
1772701772969615600,0.07061572265625,-0.65679931640625,0.2666168212890625,0.63116455078125
1772701772979663600,0.08066357421875,-0.6681365966796875,0.2682037353515625,0.6333160400390625
1772701772989712600,0.090712646484375,-0.69061279296875,0.2636871337890625,0.6438446044921875
1772701772999761700,0.10076171875,-0.69305419921875,0.2655487060546875,0.6546173095703125
1772701773009809700,0.1108095703125,-0.6876068115234375,0.267547607421875,0.6594696044921875
1772701773019858700,0.120858642578125,-0.68487548828125,0.27777099609375,0.6614990234375
1772701773029906700,0.13090673828125,-0.6952667236328125,0.2913818359375,0.656982421875
1772701773039955700,0.140955810546875,-0.7014617919921875,0.2983245849609375,0.65313720703125
1772701773050004700,0.151004638671875,-0.6857757568359375,0.2994842529296875,0.649078369140625
1772701773060052700,0.161052734375,-0.665374755859375,0.2936859130859375,0.6473846435546875
1772701773070101800,0.171101806640625,-0.6552276611328125,0.284149169921875,0.65020751953125
1772701773080149800,0.181149658203125,-0.6461181640625,0.2733154296875,0.650360107421875
1772701773090198800,0.19119873046875,-0.63336181640625,0.262420654296875,0.649688720703125
1772701773100246800,0.201246826171875,-0.62982177734375,0.25836181640625,0.64691162109375
1772701773110295800,0.2112958984375,-0.6378936767578125,0.25860595703125,0.64215087890625
1772701773120344600,0.221344482421875,-0.6495361328125,0.2608795166015625,0.64373779296875
1772701773130392800,0.231392822265625,-0.6498260498046875,0.2703857421875,0.6363983154296875
1772701773140441600,0.241441650390625,-0.641021728515625,0.27447509765625,0.6277008056640625
1772701773150489600,0.251489501953125,-0.6281585693359375,0.2662811279296875,0.630828857421875
1772701773160538600,0.26153857421875,-0.6132965087890625,0.2604522705078125,0.6324920654296875
1772701773170588000,0.271587890625,-0.6058807373046875,0.2574005126953125,0.631561279296875
1772701773180635600,0.2816357421875,-0.61865234375,0.265228271484375,0.6269073486328125
1772701773190684700,0.2916845703125,-0.6367340087890625,0.278472900390625,0.6212921142578125
1772701773200733200,0.301733154296875,-0.642578125,0.2886199951171875,0.6165008544921875
1772701773210782000,0.311781982421875,-0.6474151611328125,0.2934417724609375,0.6219940185546875
1772701773220831200,0.321831298828125,-0.666351318359375,0.301025390625,0.6216278076171875
1772701773230879000,0.33187890625,-0.679718017578125,0.2932281494140625,0.6452484130859375
1772701773240928300,0.34192822265625,-0.67926025390625,0.28326416015625,0.680633544921875
1772701773250976000,0.35197607421875,-0.682525634765625,0.29681396484375,0.671905517578125
1772701773261025300,0.362025390625,-0.716705322265625,0.3156280517578125,0.657989501953125
1772701773271074000,0.372073974609375,-0.7546234130859375,0.322662353515625,0.6652679443359375
1772701773281122300,0.382122314453125,-0.7732696533203125,0.3221893310546875,0.6807098388671875
1772701773291171000,0.392171142578125,-0.7776031494140625,0.327606201171875,0.6888427734375
1772701773301219300,0.40221923828125,-0.7699127197265625,0.3277740478515625,0.6740875244140625
1772701773311268000,0.41226806640625,-0.745880126953125,0.3232269287109375,0.648956298828125
1772701773321316400,0.42231640625,-0.70941162109375,0.3091278076171875,0.6222686767578125
1772701773331365000,0.432365234375,-0.67706298828125,0.2923431396484375,0.5982818603515625
1772701773341414100,0.4424140625,-0.6607818603515625,0.2813873291015625,0.579620361328125
1772701773351462100,0.452462158203125,-0.642669677734375,0.2692413330078125,0.5619964599609375
1772701773361511200,0.46251123046875,-0.61468505859375,0.2570648193359375,0.54144287109375
1772701773371559200,0.47255908203125,-0.585296630859375,0.2468109130859375,0.5183258056640625
1772701773381608200,0.482608154296875,-0.550201416015625,0.23486328125,0.503265380859375
1772701773391657200,0.4926572265625,-0.5141143798828125,0.2209930419921875,0.4893798828125
1772701773401705000,0.502705078125,-0.4802093505859375,0.2023468017578125,0.4781951904296875
1772701773411754200,0.512754150390625,-0.43585205078125,0.182220458984375,0.464111328125
1772701773421802000,0.522802001953125,-0.3978424072265625,0.166748046875,0.449615478515625
1772701773431851300,0.532851318359375,-0.3659820556640625,0.148284912109375,0.431182861328125
1772701773441900300,0.542900390625,-0.3463592529296875,0.13519287109375,0.4168243408203125
1772701773451948300,0.5529482421875,-0.332366943359375,0.120758056640625,0.4139251708984375
1772701773461997000,0.5629970703125,-0.3260040283203125,0.1049957275390625,0.415374755859375
1772701773472045000,0.573045166015625,-0.3198699951171875,0.1077880859375,0.4204254150390625
1772701773482094000,0.583093994140625,-0.30963134765625,0.1334381103515625,0.44146728515625
1772701773492143000,0.59314306640625,-0.3024749755859375,0.1762847900390625,0.4773712158203125
1772701773502191000,0.603191162109375,-0.3334808349609375,0.211395263671875,0.55242919921875
1772701773512240000,0.613240234375,-0.4143829345703125,0.247100830078125,0.6400604248046875
1772701773522288000,0.6232880859375,-0.5515594482421875,0.3064422607421875,0.7215423583984375
1772701773532337200,0.633337158203125,-0.725555419921875,0.39422607421875,0.8040008544921875
1772701773542386200,0.64338623046875,-0.9438323974609375,0.4952850341796875,0.89215087890625
1772701773552434200,0.65343408203125,-1.1415557861328125,0.5488739013671875,0.9244842529296875
1772701773562483200,0.663483154296875,-1.2844390869140625,0.5500640869140625,0.955291748046875
1772701773572531200,0.67353125,-1.4217681884765625,0.5255126953125,0.995819091796875
1772701773582580000,0.683580078125,-1.6069488525390625,0.545501708984375,1.07781982421875
1772701773592629200,0.693629150390625,-1.81243896484375,0.5892791748046875,1.187652587890625
1772701773602677000,0.703677001953125,-2.0670166015625,0.601318359375,1.2886962890625
1772701773612726300,0.713726318359375,-2.285186767578125,0.58441162109375,1.384857177734375
1772701773622774000,0.72377392578125,-2.354156494140625,0.570220947265625,1.401336669921875
1772701773632823300,0.7338232421875,-2.3040618896484375,0.55224609375,1.3609771728515625
1772701773642872000,0.7438720703125,-2.2406005859375,0.4637451171875,1.302398681640625
1772701773652920300,0.75392041015625,-2.247406005859375,0.3558197021484375,1.222564697265625
1772701773662969000,0.763968994140625,-2.1924896240234375,0.2979736328125,1.1097259521484375
1772701773673017000,0.77401708984375,-2.0831298828125,0.2137908935546875,1.05865478515625
1772701773683066000,0.784066162109375,-1.93695068359375,0.1756439208984375,1.10992431640625
1772701773693114000,0.794114013671875,-1.789703369140625,0.1281280517578125,1.1989898681640625
1772701773703163100,0.8041630859375,-1.7407073974609375,0.095550537109375,1.3252105712890625
1772701773713212200,0.814212158203125,-1.740966796875,0.096527099609375,1.3925323486328125
1772701773723260200,0.82426025390625,-1.6728057861328125,0.1054229736328125,1.350311279296875
1772701773733309000,0.834308837890625,-1.5244140625,0.0946502685546875,1.2255401611328125
1772701773743357200,0.844357177734375,-1.251495361328125,0.05596923828125,1.0363006591796875
1772701773753406000,0.854406005859375,-0.8565826416015625,-0.029388427734375,0.8328399658203125
1772701773763455200,0.864455322265625,-0.445465087890625,-0.092437744140625,0.6200408935546875
1772701773773503000,0.8745029296875,-0.112060546875,-0.0737152099609375,0.4415740966796875
1772701773783552300,0.88455224609375,0.1059722900390625,-0.02850341796875,0.373931884765625
1772701773793600000,0.89460009765625,0.3459320068359375,0.029296875,0.241363525390625
1772701773803649300,0.904649169921875,0.520660400390625,0.096282958984375,0.18695068359375
1772701773813698000,0.914697998046875,0.606353759765625,0.0939483642578125,0.24761962890625
1772701773823746300,0.924746337890625,0.708892822265625,0.0863800048828125,0.1446075439453125
1772701773833795000,0.934795166015625,0.7012176513671875,0.11700439453125,0.060211181640625
1772701773843843300,0.94484326171875,0.722259521484375,0.1016082763671875,-0.0119171142578125
1772701773853892000,0.95489208984375,0.7223663330078125,0.082489013671875,-0.0818939208984375
1772701773863941000,0.964941162109375,0.6982574462890625,0.076385498046875,-0.159027099609375
1772701773873989000,0.974989013671875,0.6343994140625,0.0899658203125,-0.2338714599609375
1772701773884038100,0.9850380859375,0.5347747802734375,0.0932464599609375,-0.2217559814453125
1772701773894086100,0.995086181640625,0.5000762939453125,0.07574462890625,-0.1439361572265625
1772701773904135200,1.00513525390625,0.45086669921875,0.0797576904296875,-0.091156005859375
1772701773914184200,1.01518408203125,0.3419036865234375,0.085205078125,-0.0685882568359375
1772701773924232200,1.025232177734375,0.227752685546875,0.0711517333984375,-0.063873291015625
1772701773934281200,1.03528125,0.1449432373046875,0.0498809814453125,-0.060821533203125
1772701773944329000,1.045328857421875,0.068023681640625,0.039215087890625,-0.0502166748046875
1772701773954378200,1.055378173828125,-0.0141143798828125,0.0443115234375,-0.04107666015625
1772701773964427300,1.06542724609375,-0.08624267578125,0.0600128173828125,-0.0244293212890625
1772701773974475300,1.075475341796875,-0.1276397705078125,0.07080078125,-0.014251708984375
1772701773984524300,1.085524169921875,-0.11590576171875,0.0861968994140625,0.0054779052734375
1772701773994572300,1.095572265625,-0.099212646484375,0.10064697265625,0.038299560546875
1772701774004621000,1.10562109375,-0.0888519287109375,0.1000213623046875,0.0786285400390625
1772701774014669000,1.1156689453125,-0.094573974609375,0.1014251708984375,0.112213134765625
1772701774024718000,1.125718017578125,-0.1404266357421875,0.1040496826171875,0.16326904296875
1772701774034767000,1.13576708984375,-0.2410430908203125,0.0813446044921875,0.23443603515625
1772701774044815000,1.145815185546875,-0.3380584716796875,0.046966552734375,0.2944793701171875
1772701774054864100,1.155864013671875,-0.4173583984375,0.03790283203125,0.361053466796875
1772701774064912100,1.165912109375,-0.52044677734375,0.046966552734375,0.4614105224609375
1772701774074961200,1.175961181640625,-0.64520263671875,0.05792236328125,0.5968475341796875
1772701774085010200,1.18601025390625,-0.8423919677734375,0.0760955810546875,0.8017120361328125
1772701774095058200,1.19605810546875,-1.1918182373046875,0.10418701171875,1.0742950439453125
1772701774105107000,1.20610693359375,-1.7011871337890625,0.1848907470703125,1.4109344482421875
1772701774115156200,1.21615625,-2.337738037109375,0.3622894287109375,1.8417816162109375
1772701774125204000,1.226203857421875,-2.9772796630859375,0.51568603515625,2.4682769775390625
1772701774135253200,1.236253173828125,-3.3520355224609375,0.4082489013671875,3.0491943359375
1772701774145301000,1.246301025390625,-3.4601287841796875,0.2060089111328125,3.3542633056640625
1772701774155350300,1.256350341796875,-3.1011810302734375,0.169830322265625,2.93218994140625
1772701774165398000,1.26639794921875,-2.391693115234375,0.1758880615234375,2.086883544921875
1772701774175447300,1.276447265625,-1.83038330078125,0.2181243896484375,1.5037078857421875
1772701774185496000,1.28649609375,-1.5354461669921875,0.123077392578125,1.1174163818359375
1772701774195544000,1.2965439453125,-1.3816986083984375,-0.000213623046875,0.8171844482421875
1772701774205592800,1.3065927734375,-1.2102508544921875,0.02337646484375,0.6415557861328125
1772701774215640800,1.316640869140625,-0.996185302734375,0.136505126953125,0.578948974609375
1772701774225689900,1.32668994140625,-0.84527587890625,0.1498565673828125,0.593109130859375
1772701774235739000,1.33673876953125,-0.7210845947265625,0.0974273681640625,0.604339599609375
1772701774245787000,1.346786865234375,-0.586517333984375,0.0497589111328125,0.5655517578125
1772701774255835600,1.356835693359375,-0.421661376953125,0.0169677734375,0.4976043701171875
1772701774265884000,1.3668837890625,-0.237060546875,-0.006072998046875,0.4103851318359375
1772701774275932700,1.3769326171875,-0.1099853515625,-0.0037841796875,0.3177032470703125
1772701774285982000,1.38698193359375,-0.0159149169921875,0.0137481689453125,0.265106201171875
1772701774296029700,1.39702978515625,0.0058441162109375,0.0430908203125,0.2509613037109375
1772701774306079000,1.407078857421875,-0.0503387451171875,0.0805816650390625,0.270355224609375
1772701774316126700,1.417126708984375,-0.102294921875,0.091400146484375,0.2653350830078125
1772701774326176000,1.427176025390625,-0.1586456298828125,0.089691162109375,0.2513275146484375
1772701774336224800,1.437224853515625,-0.2258453369140625,0.0615692138671875,0.25054931640625
1772701774346273000,1.44727294921875,-0.2681427001953125,0.0496673583984375,0.2287139892578125
1772701774356321800,1.45732177734375,-0.273193359375,0.093414306640625,0.203643798828125
1772701774366370000,1.4673701171875,-0.28326416015625,0.1437530517578125,0.21148681640625
1772701774376418800,1.477418701171875,-0.2855377197265625,0.160888671875,0.2460784912109375
1772701774386467800,1.4874677734375,-0.26849365234375,0.1685028076171875,0.266693115234375
1772701774396515800,1.497515869140625,-0.244384765625,0.1682891845703125,0.29022216796875
1772701774406564900,1.50756494140625,-0.2235870361328125,0.1697998046875,0.3749237060546875
1772701774416612900,1.51761279296875,-0.2259674072265625,0.186370849609375,0.50238037109375
1772701774426662000,1.527661865234375,-0.2614898681640625,0.23638916015625,0.6311798095703125
1772701774436711000,1.5377109375,-0.3100128173828125,0.2955322265625,0.766998291015625
1772701774446759000,1.547759033203125,-0.384033203125,0.34222412109375,0.9067840576171875
1772701774456808000,1.557807861328125,-0.47723388671875,0.3958587646484375,0.9362945556640625
1772701774466856000,1.56785595703125,-0.6515960693359375,0.330963134765625,0.82244873046875
1772701774476905000,1.577905029296875,-1.15283203125,0.23492431640625,0.7285614013671875
1772701774486954000,1.5879541015625,-1.433868408203125,0.2186737060546875,0.67193603515625
1772701774497002000,1.598001953125,-1.022735595703125,0.2187042236328125,0.53271484375
1772701774507051000,1.608051025390625,-0.741973876953125,0.2689208984375,0.4496307373046875
1772701774517099000,1.61809912109375,-0.7323760986328125,0.2350616455078125,0.50286865234375
1772701774527147800,1.628147705078125,-0.9746246337890625,0.1967315673828125,0.5458984375
1772701774537196800,1.63819677734375,-1.1901092529296875,0.13458251953125,0.556884765625
1772701774547244800,1.648244873046875,-1.199554443359375,0.0789794921875,0.58648681640625
1772701774557293800,1.6582939453125,-1.0495758056640625,0.154571533203125,0.6526336669921875
1772701774567341800,1.668341796875,-0.90032958984375,0.197540283203125,0.67333984375
1772701774577390800,1.678390869140625,-0.8460540771484375,0.155242919921875,0.6640777587890625
1772701774587439900,1.68843994140625,-0.8493194580078125,0.13287353515625,0.6610260009765625
1772701774597487900,1.69848779296875,-0.8778839111328125,0.129150390625,0.6939697265625
1772701774607537000,1.708536865234375,-0.9344635009765625,0.141143798828125,0.779266357421875
1772701774617585000,1.7185849609375,-1.0386199951171875,0.168365478515625,0.862335205078125
1772701774627634000,1.728634033203125,-1.1581878662109375,0.185699462890625,0.9652862548828125
1772701774637683000,1.738682861328125,-1.3260498046875,0.1753387451171875,1.12359619140625
1772701774647731000,1.74873095703125,-1.6220245361328125,0.1895904541015625,1.38043212890625
1772701774657780000,1.758780029296875,-2.1817626953125,0.3608551025390625,1.641845703125
1772701774667828000,1.768827880859375,-2.675750732421875,0.5763397216796875,1.7760467529296875
1772701774677877000,1.778876953125,-2.8369293212890625,0.6943817138671875,1.7399749755859375
1772701774687925800,1.78892578125,-2.764404296875,0.62493896484375,1.69903564453125
1772701774697974000,1.79897412109375,-2.7291107177734375,0.4966888427734375,1.7238006591796875
1772701774708022800,1.809022705078125,-2.753387451171875,0.3649444580078125,1.8084869384765625
1772701774718071000,1.819071044921875,-2.758331298828125,0.1047821044921875,1.840606689453125
1772701774728119800,1.829119873046875,-2.6624908447265625,-0.14007568359375,1.7459564208984375
1772701774738168800,1.8391689453125,-2.37579345703125,-0.1291046142578125,1.596435546875
1772701774748216800,1.849216796875,-1.908233642578125,-0.0889434814453125,1.5542144775390625
1772701774758265900,1.859265869140625,-1.459869384765625,-0.12396240234375,1.5081939697265625
1772701774768313900,1.86931396484375,-1.08172607421875,-0.15130615234375,1.365234375
1772701774778363000,1.87936279296875,-0.741729736328125,-0.1892852783203125,1.1883697509765625
1772701774788412000,1.889411865234375,-0.4694671630859375,-0.1895904541015625,1.07177734375
1772701774798459600,1.899459716796875,-0.15545654296875,-0.1127777099609375,0.9884796142578125
1772701774808509000,1.909509033203125,0.2049407958984375,-0.0121917724609375,0.772979736328125
1772701774818556700,1.919556640625,0.524078369140625,0.077056884765625,0.546417236328125
1772701774828606000,1.92960595703125,0.8096771240234375,0.144927978515625,0.3099822998046875
1772701774838655000,1.939655029296875,0.9368438720703125,0.0946044921875,0.2790985107421875
1772701774848703000,1.949702880859375,0.959014892578125,-0.044464111328125,0.1653900146484375
1772701774858751700,1.959751708984375,0.9185791015625,-0.10137939453125,0.0275726318359375
1772701774868800000,1.969800048828125,0.8254852294921875,-0.05230712890625,-0.084930419921875
1772701774878848800,1.979848876953125,0.706634521484375,0.0107574462890625,-0.1559906005859375
1772701774888897800,1.989897705078125,0.5833892822265625,0.057159423828125,-0.1717376708984375
1772701774898945800,1.99994580078125,0.4759063720703125,0.08099365234375,-0.1319427490234375
1772701774908994800,2.009994873046875,0.4377288818359375,0.109832763671875,-0.1466064453125
1772701774919042800,2.020042724609375,0.3395538330078125,0.102752685546875,-0.2416839599609375
1772701774929091800,2.030091796875,0.2610626220703125,0.09271240234375,-0.14471435546875
1772701774939140900,2.040140869140625,0.1969451904296875,0.0635833740234375,-0.1179046630859375
1772701774949188900,2.05018896484375,0.1055755615234375,0.039520263671875,-0.101348876953125
1772701774959238000,2.06023779296875,0.0159759521484375,0.0588836669921875,-0.0819244384765625
1772701774969286000,2.070285888671875,-0.0665283203125,0.1085662841796875,-0.052734375
1772701774979335000,2.0803349609375,-0.135498046875,0.152557373046875,-0.0453948974609375
1772701774989384000,2.090384033203125,-0.1852264404296875,0.181549072265625,-0.061767578125
1772701774999432000,2.100431884765625,-0.22406005859375,0.184722900390625,-0.0583038330078125
1772701775009481000,2.11048095703125,-0.2388153076171875,0.17266845703125,-0.0330810546875
1772701775019529000,2.120529052734375,-0.2177734375,0.1590728759765625,-0.0090789794921875
1772701775029578000,2.130577880859375,-0.1860198974609375,0.1387939453125,-0.0026702880859375
1772701775039626800,2.140626708984375,-0.1510467529296875,0.0977630615234375,-0.01141357421875
1772701775049675000,2.150675048828125,-0.1277923583984375,0.0408935546875,-0.0243377685546875
1772701775059723800,2.160723876953125,-0.1190338134765625,-0.0157012939453125,-0.030548095703125
1772701775069772000,2.17077197265625,-0.118988037109375,-0.047210693359375,-0.025115966796875
1772701775079820800,2.18082080078125,-0.1293487548828125,-0.0535430908203125,0.025543212890625
1772701775089870000,2.1908701171875,-0.169189453125,-0.0554046630859375,0.084197998046875
1772701775099917800,2.200917724609375,-0.249298095703125,-0.048797607421875,0.13824462890625
1772701775109967000,2.210967041015625,-0.331329345703125,-0.016143798828125,0.206573486328125
1772701775120014800,2.221014892578125,-0.427825927734375,-0.00091552734375,0.3333740234375
1772701775130064000,2.23106396484375,-0.56561279296875,0.002471923828125,0.5142059326171875
1772701775140113000,2.24111279296875,-0.8037872314453125,0.0244140625,0.779083251953125
1772701775150161000,2.251160888671875,-1.2031402587890625,0.0247039794921875,1.0457763671875
1772701775160210000,2.2612099609375,-1.78125,0.0142059326171875,1.3082275390625
1772701775170258000,2.2712578125,-2.3843841552734375,0.052398681640625,1.5916900634765625
1772701775180307000,2.281306884765625,-2.7337493896484375,0.031829833984375,1.886505126953125
1772701775190355700,2.291355712890625,-2.8640899658203125,-0.1550445556640625,2.1907806396484375
1772701775200404200,2.301404296875,-3.0923919677734375,-0.1264801025390625,2.5203857421875
1772701775210453000,2.311452880859375,-3.3607635498046875,0.1532440185546875,2.3483428955078125
1772701775220501200,2.321501220703125,-3.1748199462890625,0.3423309326171875,1.8306884765625
1772701775230550000,2.331550048828125,-2.724151611328125,0.4169921875,1.627166748046875
1772701775240599000,2.34159912109375,-2.293487548828125,0.266571044921875,1.29364013671875
1772701775250647000,2.35164697265625,-1.8855133056640625,0.146087646484375,0.91973876953125
1772701775260696000,2.361696044921875,-1.441619873046875,0.257049560546875,0.494049072265625
1772701775270744000,2.371744140625,-1.087249755859375,0.2549285888671875,0.20904541015625
1772701775280793000,2.38179296875,-0.8931427001953125,0.14483642578125,0.126007080078125
1772701775290842000,2.391842041015625,-0.738006591796875,0.039947509765625,0.1617431640625
1772701775300890000,2.40189013671875,-0.5971832275390625,-0.0224761962890625,0.1311492919921875
1772701775310939100,2.411939208984375,-0.40472412109375,-0.0458831787109375,0.0416412353515625
1772701775320987100,2.421987060546875,-0.157928466796875,-0.0966033935546875,-0.0354766845703125
1772701775331036200,2.4320361328125,-0.0249481201171875,-0.1794586181640625,-0.070587158203125
1772701775341085200,2.442085205078125,0.0957489013671875,-0.2119598388671875,-0.128448486328125
1772701775351133200,2.45213330078125,0.16741943359375,-0.17095947265625,-0.1748504638671875
1772701775361182200,2.46218212890625,0.172210693359375,-0.0924072265625,-0.1718597412109375
1772701775371230200,2.472230224609375,0.1079559326171875,-0.0285797119140625,-0.123077392578125
1772701775381279200,2.482279296875,0.0494384765625,0.016632080078125,-0.070404052734375
1772701775391328000,2.492327880859375,-0.0129241943359375,0.0487213134765625,-0.0195159912109375
1772701775401376300,2.502376220703125,-0.0484466552734375,0.06634521484375,0.045745849609375
1772701775411425000,2.512425048828125,-0.0583953857421875,0.0947418212890625,0.1049652099609375
1772701775421473000,2.52247314453125,-0.0750732421875,0.125823974609375,0.1427001953125
1772701775431522000,2.53252197265625,-0.1417388916015625,0.151519775390625,0.1845703125
1772701775441571300,2.5425712890625,-0.2358856201171875,0.1623687744140625,0.268157958984375
1772701775451619000,2.552619140625,-0.29693603515625,0.1656341552734375,0.3886260986328125
1772701775461668400,2.56266845703125,-0.3091888427734375,0.104736328125,0.5069427490234375
1772701775471716000,2.572716064453125,-0.20703125,-0.2091217041015625,0.6208953857421875
1772701775481765000,2.58276513671875,-0.685150146484375,-0.588409423828125,0.81695556640625
1772701775491814100,2.592814208984375,-1.55035400390625,-0.0478363037109375,0.8385162353515625
1772701775501862100,2.602862060546875,-1.2065277099609375,0.5336456298828125,0.3959808349609375
1772701775511911200,2.6129111328125,-0.8713226318359375,0.31005859375,0.1943817138671875
1772701775521959200,2.622959228515625,-0.7108612060546875,0.0925445556640625,0.481109619140625
1772701775532008200,2.63300830078125,-0.686767578125,0.1460418701171875,0.6526031494140625
1772701775542057000,2.643056884765625,-0.8152313232421875,0.212432861328125,0.5664520263671875
1772701775552105200,2.653105224609375,-0.8812103271484375,0.2121429443359375,0.504150390625
1772701775562154000,2.663154052734375,-0.8361968994140625,0.2034149169921875,0.526947021484375
1772701775572203300,2.673203369140625,-0.8058013916015625,0.1973876953125,0.607391357421875
1772701775582251000,2.6832509765625,-0.82470703125,0.20831298828125,0.7509002685546875
1772701775592300300,2.69330029296875,-0.898223876953125,0.212432861328125,0.8741455078125
1772701775602348000,2.70334814453125,-1.1005401611328125,0.238525390625,1.052398681640625
1772701775612397300,2.713397216796875,-1.4847869873046875,0.288848876953125,1.408203125
1772701775622446000,2.723446044921875,-1.94476318359375,0.2978973388671875,1.688323974609375
1772701775632494300,2.733494384765625,-2.33685302734375,0.225189208984375,1.7098541259765625
1772701775642543000,2.743543212890625,-2.6522216796875,0.1746673583984375,1.7405242919921875
1772701775652591000,2.753591064453125,-2.9658660888671875,0.1773529052734375,1.81524658203125
1772701775662640000,2.76364013671875,-3.1844940185546875,0.160736083984375,1.8121185302734375
1772701775672689200,2.773689208984375,-3.232330322265625,0.151702880859375,1.6911773681640625
1772701775682737200,2.783737060546875,-3.18756103515625,0.1141357421875,1.5723114013671875
1772701775692786200,2.7937861328125,-3.08209228515625,0.03192138671875,1.5250091552734375
1772701775702834200,2.803834228515625,-2.9455413818359375,-0.0406341552734375,1.55157470703125
1772701775712883200,2.81388330078125,-2.786956787109375,-0.09100341796875,1.5129852294921875
1772701775722932200,2.82393212890625,-2.605072021484375,-0.13775634765625,1.4212799072265625
1772701775732980200,2.833980224609375,-2.3318023681640625,-0.1615447998046875,1.2941131591796875
1772701775743029000,2.844029052734375,-1.9130096435546875,-0.2252655029296875,1.1604766845703125
1772701775753077000,2.854076904296875,-1.424285888671875,-0.3201141357421875,0.990966796875
1772701775763126000,2.8641259765625,-0.9541778564453125,-0.3661956787109375,0.80255126953125
1772701775773175300,2.87417529296875,-0.562255859375,-0.3214569091796875,0.5849151611328125
1772701775783223000,2.88422314453125,-0.2124176025390625,-0.201934814453125,0.4107208251953125
1772701775793272000,2.89427197265625,0.118927001953125,-0.0849456787109375,0.311859130859375
1772701775803320000,2.904320068359375,0.4049530029296875,-0.04443359375,0.2668304443359375
1772701775813369000,2.914369140625,0.57769775390625,-0.06005859375,0.2146148681640625
1772701775823418000,2.924418212890625,0.738525390625,-0.036651611328125,0.1764068603515625
1772701775833466000,2.934466064453125,0.9037933349609375,-0.008880615234375,0.151947021484375
1772701775843515100,2.94451513671875,0.9982757568359375,0.0103759765625,0.0717620849609375
1772701775853563100,2.954563232421875,1.0635986328125,0.016357421875,-0.0096435546875
1772701775863612200,2.964612060546875,1.02984619140625,0.01904296875,-0.0543670654296875
1772701775873661000,2.974660888671875,0.93389892578125,0.02740478515625,-0.02362060546875
1772701775883709200,2.984709228515625,0.8285675048828125,0.041351318359375,-0.028900146484375
1772701775893758000,2.994758056640625,0.666961669921875,0.0610809326171875,-0.00726318359375
1772701775903807200,3.00480712890625,0.4869842529296875,0.0685577392578125,0.00262451171875
1772701775913855000,3.01485498046875,0.2998809814453125,0.0573577880859375,0.0019378662109375
1772701775923904300,3.024904296875,0.16595458984375,0.047210693359375,0.0234375
1772701775933952000,3.034951904296875,0.0805511474609375,0.0414581298828125,0.0115509033203125
1772701775944001300,3.045001220703125,0.009796142578125,0.0294036865234375,-0.001922607421875
1772701775954050000,3.055050048828125,-0.053314208984375,0.01239013671875,-0.00665283203125
1772701775964098300,3.065098388671875,-0.1060791015625,-0.0017242431640625,-0.004638671875
1772701775974147000,3.07514697265625,-0.1523895263671875,-0.0155792236328125,0.0047607421875
1772701775984195300,3.0851953125,-0.1808929443359375,-0.0221405029296875,-0.004302978515625
1772701775994244000,3.095244140625,-0.1941986083984375,-0.024139404296875,-0.0098876953125
1772701776004293000,3.105293212890625,-0.192169189453125,-0.020965576171875,-0.014923095703125
1772701776014341000,3.115341064453125,-0.174774169921875,-0.0145721435546875,-0.015960693359375
1772701776024390100,3.12539013671875,-0.162384033203125,-0.0154876708984375,-0.00665283203125
1772701776034438100,3.135438232421875,-0.1439971923828125,-0.013946533203125,0.0007171630859375
1772701776044487200,3.145487060546875,-0.1442718505859375,-0.0118408203125,0.0268096923828125
1772701776054536200,3.1555361328125,-0.1827392578125,-0.0059814453125,0.051788330078125
1772701776064584000,3.165583984375,-0.243194580078125,-0.004241943359375,0.080841064453125
1772701776074633200,3.17563330078125,-0.3157501220703125,-0.0146331787109375,0.1300811767578125
1772701776084681000,3.185680908203125,-0.389923095703125,-0.0257110595703125,0.192352294921875
1772701776094730200,3.195730224609375,-0.455902099609375,-0.0214996337890625,0.26129150390625
1772701776104779300,3.205779296875,-0.515106201171875,-0.0079345703125,0.3396453857421875
1772701776114827300,3.2158271484375,-0.603668212890625,0.0065460205078125,0.45013427734375
1772701776124876000,3.2258759765625,-0.7162628173828125,0.0459442138671875,0.5761260986328125
1772701776134924300,3.23592431640625,-0.8375091552734375,0.0894927978515625,0.703033447265625
1772701776144973000,3.24597314453125,-0.96917724609375,0.110015869140625,0.8226776123046875
1772701776155022000,3.25602197265625,-1.123626708984375,0.128936767578125,0.943145751953125
1772701776165070000,3.266070068359375,-1.3757476806640625,0.1526031494140625,1.1300201416015625
1772701776175119000,3.276119140625,-1.6916656494140625,0.150390625,1.3983612060546875
1772701776185168100,3.286168212890625,-2.1562042236328125,0.1372833251953125,1.82891845703125
1772701776195216100,3.296216064453125,-2.954803466796875,0.2404022216796875,2.7689666748046875
1772701776205265400,3.306265380859375,-3.1976318359375,0.4396514892578125,2.9959564208984375
1772701776215313200,3.316313232421875,-3.038543701171875,0.666778564453125,2.78131103515625
1772701776225362200,3.326362060546875,-2.879638671875,0.787567138671875,2.5611572265625
1772701776235411500,3.336411376953125,-2.6467132568359375,0.61895751953125,2.185577392578125
1772701776245459200,3.346459228515625,-2.0546722412109375,0.3035736083984375,1.6714935302734375
1772701776255508200,3.35650830078125,-1.48333740234375,0.0433502197265625,1.1273193359375
1772701776265556200,3.36655615234375,-1.28875732421875,0.044647216796875,0.868896484375
1772701776275605200,3.376605224609375,-1.1461944580078125,0.14837646484375,0.6179656982421875
1772701776285654300,3.386654296875,-1.0290985107421875,0.2488250732421875,0.33282470703125
1772701776295702300,3.396702392578125,-0.901397705078125,0.243438720703125,0.0730743408203125
1772701776305751300,3.406751220703125,-0.705047607421875,0.131439208984375,-0.1099853515625
1772701776315799300,3.41679931640625,-0.52294921875,0.0247039794921875,-0.1422119140625
1772701776325848300,3.426848388671875,-0.354217529296875,-0.0281524658203125,-0.261627197265625
1772701776335897000,3.43689697265625,-0.1997833251953125,-0.02020263671875,-0.3890380859375
1772701776345945300,3.4469453125,-0.106414794921875,0.000762939453125,-0.210968017578125
1772701776355994000,3.456994140625,-0.029876708984375,-0.020782470703125,0.054443359375
1772701776366043400,3.46704345703125,-0.00640869140625,-0.0829010009765625,0.264617919921875
1772701776376091100,3.477091064453125,-0.015228271484375,-0.142242431640625,0.3227691650390625
1772701776386140400,3.487140380859375,-0.0060882568359375,-0.1713714599609375,0.28466796875
1772701776396188200,3.497188232421875,0.0322113037109375,-0.1644287109375,0.2881011962890625
1772701776406237400,3.507237548828125,0.0790863037109375,-0.0944976806640625,0.2779083251953125
1772701776416286200,3.5172861328125,0.1723480224609375,-0.0400390625,0.2626800537109375
1772701776426334500,3.52733447265625,0.21502685546875,-0.018310546875,0.2751007080078125
1772701776436383200,3.53738330078125,0.1772613525390625,0.013641357421875,0.2879486083984375
1772701776446431500,3.547431396484375,0.14691162109375,0.049591064453125,0.2909698486328125
1772701776456480300,3.557480224609375,0.0962066650390625,0.0631561279296875,0.303863525390625
1772701776466529300,3.567529296875,0.0173797607421875,0.0612945556640625,0.338165283203125
1772701776476577300,3.577577392578125,-0.1043548583984375,0.0461273193359375,0.4140777587890625
1772701776486626300,3.587626220703125,-0.3797149658203125,0.041748046875,0.5032501220703125
1772701776496674300,3.59767431640625,-0.9316864013671875,0.076995849609375,0.6280364990234375
1772701776506723300,3.607723388671875,-1.2381439208984375,0.1297607421875,0.723968505859375
1772701776516772400,3.6177724609375,-1.21722412109375,0.1841583251953125,0.83984375
1772701776526820400,3.6278203125,-1.066009521484375,0.205810546875,0.9021453857421875
1772701776536869400,3.637869384765625,-1.0135955810546875,0.254730224609375,0.8992767333984375
1772701776546917000,3.647917236328125,-1.1338653564453125,0.325439453125,0.846649169921875
1772701776556966400,3.65796630859375,-1.295013427734375,0.3359832763671875,0.7508392333984375
1772701776567015400,3.668015380859375,-1.31866455078125,0.311187744140625,0.7022857666015625
1772701776577063400,3.6780634765625,-1.0357513427734375,0.230010986328125,0.5849761962890625
1772701776587112200,3.6881123046875,-0.77703857421875,0.12261962890625,0.428802490234375
1772701776597161200,3.6981611328125,-0.7730865478515625,0.0425872802734375,0.3804779052734375
1772701776607209200,3.708209228515625,-0.9335479736328125,-0.022491455078125,0.3995819091796875
1772701776617258200,3.71825830078125,-1.1263885498046875,-0.0823516845703125,0.4113922119140625
1772701776627306200,3.72830615234375,-1.1318817138671875,-0.1067962646484375,0.340484619140625
1772701776637355300,3.738355224609375,-1.0598602294921875,0.1418609619140625,0.29931640625
1772701776647404300,3.748404296875,-0.993011474609375,0.4362945556640625,0.3154449462890625
1772701776657452300,3.758452392578125,-1.294769287109375,0.3940277099609375,0.4423980712890625
1772701776667501300,3.768501220703125,-1.8018341064453125,0.3694000244140625,0.652618408203125
1772701776677549300,3.77854931640625,-2.2233734130859375,0.4447784423828125,0.7737579345703125
1772701776687598300,3.788598388671875,-2.512451171875,0.5235595703125,0.8881072998046875
1772701776697647400,3.7986474609375,-2.5471343994140625,0.5486907958984375,1.039642333984375
1772701776707695400,3.8086953125,-2.612823486328125,0.5370330810546875,1.15582275390625
1772701776717744400,3.818744384765625,-2.6320953369140625,0.477569580078125,1.2066802978515625
1772701776727793200,3.828793212890625,-2.5871734619140625,0.349365234375,1.214569091796875
1772701776737841400,3.83884130859375,-2.5517120361328125,0.2949066162109375,1.2576751708984375
1772701776747890200,3.84889013671875,-2.5103912353515625,0.3582000732421875,1.2596588134765625
1772701776757938400,3.8589384765625,-2.4395751953125,0.4098358154296875,1.2110595703125
1772701776767987200,3.8689873046875,-2.38861083984375,0.40570068359375,1.1253814697265625
1772701776778036500,3.879036376953125,-2.3265838623046875,0.381011962890625,1.0353546142578125
1772701776788084200,3.889084228515625,-2.1838226318359375,0.3346710205078125,0.962310791015625
1772701776798133200,3.89913330078125,-1.9583587646484375,0.3141021728515625,0.9477691650390625
1772701776808181200,3.90918115234375,-1.6484375,0.300445556640625,0.9287567138671875
1772701776818230300,3.919230224609375,-1.2592926025390625,0.242584228515625,0.90948486328125
1772701776828279300,3.929279296875,-0.805633544921875,0.1594390869140625,0.8741455078125
1772701776838327300,3.939327392578125,-0.363861083984375,0.1137542724609375,0.80401611328125
1772701776848376300,3.949376220703125,-0.0377197265625,0.0802001953125,0.7104339599609375
1772701776858424000,3.959424072265625,0.2383880615234375,0.0446929931640625,0.63958740234375
1772701776868473300,3.969473388671875,0.39990234375,0.007110595703125,0.552947998046875
1772701776878522400,3.9795224609375,0.5124359130859375,-0.0260162353515625,0.4481964111328125
1772701776888570400,3.9895703125,0.5592193603515625,-0.05926513671875,0.346771240234375
1772701776898619400,3.999619384765625,0.5790252685546875,-0.1212158203125,0.282073974609375
1772701776908668200,4.009668212890625,0.543670654296875,-0.184326171875,0.233795166015625
1772701776918716200,4.019716064453125,0.4739227294921875,-0.2004852294921875,0.1881561279296875
1772701776928765200,4.02976513671875,0.4832611083984375,-0.1895599365234375,0.1376190185546875
1772701776938813200,4.039813232421875,0.503387451171875,-0.1634521484375,0.0722808837890625
1772701776948862200,4.0498623046875,0.4749908447265625,-0.145751953125,-0.004119873046875
1772701776958911500,4.059911376953125,0.4472808837890625,-0.1410980224609375,-0.0817108154296875
1772701776968959200,4.069959228515625,0.420257568359375,-0.1398773193359375,-0.1456146240234375
1772701776979008300,4.08000830078125,0.3939056396484375,-0.1195220947265625,-0.2054290771484375
1772701776989056300,4.09005615234375,0.3707275390625,-0.08685302734375,-0.245941162109375
1772701776999105300,4.100105224609375,0.336090087890625,-0.0461883544921875,-0.2527618408203125
1772701777009154300,4.110154296875,0.2965087890625,-0.0091094970703125,-0.233154296875
1772701777019202300,4.120202392578125,0.2489166259765625,0.0263519287109375,-0.192047119140625
1772701777029251300,4.130251220703125,0.168243408203125,0.0738067626953125,-0.112060546875
1772701777039299300,4.14029931640625,0.1083526611328125,0.098968505859375,-0.07135009765625
1772701777049348400,4.150348388671875,0.0845794677734375,0.096710205078125,-0.0759735107421875
1772701777059397000,4.160397216796875,0.052398681640625,0.081268310546875,-0.06396484375
1772701777069445400,4.1704453125,0.0236968994140625,0.0638580322265625,-0.0354461669921875
1772701777079494100,4.180494140625,0.0041656494140625,0.050933837890625,-0.022186279296875
1772701777089543400,4.19054345703125,-0.009674072265625,0.051239013671875,-0.008636474609375
1772701777099591200,4.200591064453125,-0.0121612548828125,0.054779052734375,-0.001708984375
1772701777109640400,4.210640380859375,-0.0027618408203125,0.0564727783203125,-0.0069580078125
1772701777119688200,4.220688232421875,0.0088348388671875,0.0448455810546875,0.0039825439453125
1772701777129737500,4.230737548828125,0.035064697265625,0.03472900390625,0.0380096435546875
1772701777139786200,4.2407861328125,0.0613555908203125,0.0362396240234375,0.107757568359375
1772701777149834500,4.25083447265625,0.0740203857421875,0.051055908203125,0.250213623046875
1772701777159883300,4.26088330078125,0.0615081787109375,0.0718841552734375,0.4893951416015625
1772701777169931500,4.270931640625,-0.0334930419921875,0.1054229736328125,0.8726959228515625
1772701777179980300,4.280980224609375,-0.2729339599609375,0.264801025390625,1.532684326171875
1772701777190029300,4.291029296875,-0.9431915283203125,0.7252655029296875,2.791900634765625
1772701777200077000,4.3010771484375,-2.5259552001953125,1.3330535888671875,3.2293548583984375
1772701777210126000,4.3111259765625,-4.544158935546875,1.579010009765625,2.7740631103515625
1772701777220175000,4.321175048828125,-5.3656768798828125,1.3382720947265625,3.197052001953125
1772701777230222800,4.331222900390625,-5.305908203125,0.660308837890625,2.5439300537109375
1772701777240272100,4.341272216796875,-4.2387542724609375,0.0875701904296875,1.6619415283203125
1772701777250320000,4.35131982421875,-2.8873748779296875,-0.0635528564453125,1.18170166015625
1772701777260369200,4.361369140625,-2.3999786376953125,-0.0597686767578125,1.031219482421875
1772701777270418200,4.371418212890625,-2.102508544921875,-0.03533935546875,0.8715362548828125
1772701777280466200,4.381466064453125,-1.6976776123046875,-0.005340576171875,0.570098876953125
1772701777290515000,4.391514892578125,-1.2194976806640625,-0.0268707275390625,0.316070556640625
1772701777300563200,4.401563232421875,-0.7812652587890625,-0.01068115234375,0.2158660888671875
1772701777310612000,4.411612060546875,-0.4779510498046875,0.061492919921875,0.188629150390625
1772701777320661000,4.421660888671875,-0.31158447265625,0.1142120361328125,0.2387237548828125
1772701777330709000,4.431708984375,-0.2339935302734375,0.1391448974609375,0.2931060791015625
1772701777340758000,4.441758056640625,-0.2011566162109375,0.1266021728515625,0.3127899169921875
1772701777350807000,4.45180712890625,-0.18743896484375,0.11260986328125,0.2981109619140625
1772701777360855000,4.46185498046875,-0.15863037109375,0.120147705078125,0.2437286376953125
1772701777370904000,4.471904052734375,-0.108642578125,0.1180267333984375,0.1352386474609375
1772701777380952000,4.4819521484375,-0.066131591796875,0.0803070068359375,0.02972412109375
1772701777391001000,4.4920009765625,-0.0121307373046875,0.018707275390625,-0.040985107421875
1772701777401050000,4.502050048828125,0.0629119873046875,-0.0521240234375,-0.15283203125
1772701777411098000,4.51209814453125,0.159576416015625,-0.117919921875,-0.307830810546875
1772701777421147100,4.522147216796875,0.23382568359375,-0.139312744140625,-0.312286376953125
1772701777431195100,4.532195068359375,0.17498779296875,-0.1324310302734375,-0.123321533203125
1772701777441244200,4.542244140625,-0.0314788818359375,-0.0635528564453125,0.1673583984375
1772701777451293000,4.55229296875,-0.1320953369140625,0.021453857421875,0.32098388671875
1772701777461341200,4.562341064453125,-0.2409210205078125,0.1090545654296875,0.3565521240234375
1772701777471390000,4.572389892578125,-0.2391815185546875,0.153472900390625,0.412841796875
1772701777481439200,4.582439208984375,-0.16949462890625,0.1705169677734375,0.3888397216796875
1772701777491487000,4.592487060546875,-0.2138824462890625,0.164093017578125,0.321014404296875
1772701777501536300,4.602536376953125,-0.4206695556640625,0.1421356201171875,0.3591156005859375
1772701777511584000,4.612583984375,-0.6247406005859375,0.0822906494140625,0.5127105712890625
1772701777521633000,4.622633056640625,-0.76416015625,-0.0006256103515625,0.7014007568359375
1772701777531682000,4.63268212890625,-0.8494873046875,-0.0129852294921875,0.8002471923828125
1772701777541730000,4.64272998046875,-1.029510498046875,0.0452880859375,0.8094329833984375
1772701777551779000,4.652779052734375,-1.3690643310546875,0.123291015625,0.9562835693359375
1772701777561827000,4.6628271484375,-1.5507659912109375,0.2239837646484375,1.14031982421875
1772701777571876000,4.6728759765625,-1.6706390380859375,0.384765625,1.14825439453125
1772701777581925000,4.682925048828125,-1.438934326171875,0.4565277099609375,0.8997955322265625
1772701777591973000,4.69297314453125,-0.9966888427734375,0.4514923095703125,0.5218353271484375
1772701777602022100,4.703022216796875,-0.7631072998046875,0.3098907470703125,0.3309478759765625
1772701777612071000,4.71307080078125,-0.6555023193359375,0.125244140625,0.2431793212890625
1772701777622119000,4.723118896484375,-0.6061248779296875,0.051513671875,0.1693115234375
1772701777632168000,4.73316796875,-0.6230010986328125,0.1317596435546875,0.045867919921875
1772701777642216000,4.7432158203125,-0.713897705078125,0.2556610107421875,0.0225982666015625
1772701777652265000,4.753264892578125,-0.7975921630859375,0.218719482421875,0.3489532470703125
1772701777662314000,4.76331396484375,-0.886474609375,0.192352294921875,0.5583343505859375
1772701777672362000,4.773362060546875,-0.9887847900390625,0.1871490478515625,0.6757354736328125
1772701777682411000,4.783410888671875,-1.1353302001953125,0.1526336669921875,0.772491455078125
1772701777692460000,4.7934599609375,-1.3662261962890625,0.125640869140625,0.8130950927734375
1772701777702508000,4.803508056640625,-1.6696014404296875,0.146881103515625,0.8394927978515625
1772701777712557000,4.81355712890625,-1.97283935546875,0.1555328369140625,0.978240966796875
1772701777722605000,4.82360498046875,-2.2476806640625,0.093414306640625,1.1745147705078125
1772701777732654000,4.833654052734375,-2.5064849853515625,-0.0357208251953125,1.2996826171875
1772701777742702800,4.843702880859375,-2.7436065673828125,-0.2227935791015625,1.3531036376953125
1772701777752751000,4.853751220703125,-2.9663238525390625,-0.3766632080078125,1.2784423828125
1772701777762799900,4.8637998046875,-3.3155975341796875,-0.375396728515625,1.2581329345703125
1772701777772848000,4.87384814453125,-3.7182464599609375,-0.237030029296875,1.276397705078125
1772701777782897000,4.88389697265625,-3.878936767578125,-0.1356048583984375,1.22161865234375
1772701777792946200,4.8939462890625,-3.6399993896484375,-0.0990447998046875,1.1513824462890625
1772701777802994000,4.903993896484375,-3.206878662109375,-0.0907745361328125,1.10028076171875
1772701777813043200,4.914043212890625,-2.72967529296875,-0.085357666015625,1.042510986328125
1772701777823092000,4.924092041015625,-2.105865478515625,-0.0665283203125,1.009185791015625
1772701777833140200,4.93414013671875,-1.48822021484375,-0.015960693359375,0.99163818359375
1772701777843189000,4.94418896484375,-1.0306549072265625,0.04986572265625,0.9405364990234375
1772701777853237200,4.9542373046875,-0.670074462890625,0.1037139892578125,0.8571624755859375
1772701777863286000,4.9642861328125,-0.329742431640625,0.1414642333984375,0.710662841796875
1772701777873335000,4.9743349609375,-0.00830078125,0.183380126953125,0.5257568359375
1772701777883383000,4.984383056640625,0.277862548828125,0.2019805908203125,0.363525390625
1772701777893432000,4.99443212890625,0.5474700927734375,0.210845947265625,0.186981201171875
1772701777903481000,5.004481201171875,0.73590087890625,0.20001220703125,0.0478973388671875
1772701777913529000,5.014529052734375,0.864593505859375,0.1760711669921875,-0.01092529296875
1772701777923578000,5.024578125,0.9971466064453125,0.16754150390625,-0.069976806640625
1772701777933625900,5.0346259765625,1.0577545166015625,0.1798095703125,-0.1385498046875
1772701777943675100,5.044675048828125,1.0597991943359375,0.18536376953125,-0.1917724609375
1772701777953724200,5.05472412109375,1.018402099609375,0.140167236328125,-0.174346923828125
1772701777963772200,5.064772216796875,0.944549560546875,0.1121673583984375,-0.1619873046875
1772701777973821200,5.0748212890625,0.808807373046875,0.1296844482421875,-0.1309051513671875
1772701777983869200,5.084869140625,0.6647491455078125,0.1680755615234375,-0.0651702880859375
1772701777993918000,5.09491796875,0.56280517578125,0.1650848388671875,-0.0121612548828125
1772701778003967000,5.104967041015625,0.4318695068359375,0.1610260009765625,0.0340423583984375
1772701778014015000,5.115014892578125,0.3035736083984375,0.1620941162109375,0.0762481689453125
1772701778024064000,5.12506396484375,0.17919921875,0.1566314697265625,0.11468505859375
1772701778034113300,5.13511328125,0.070465087890625,0.121551513671875,0.125579833984375
1772701778044161000,5.1451611328125,-0.003204345703125,0.082427978515625,0.1155548095703125
1772701778054210000,5.1552099609375,-0.078826904296875,0.0613861083984375,0.1033782958984375
1772701778064258000,5.165258056640625,-0.1734161376953125,0.0513763427734375,0.09222412109375
1772701778074307000,5.17530712890625,-0.256256103515625,0.06396484375,0.0802154541015625
1772701778084356000,5.185356201171875,-0.2681884765625,0.0688629150390625,0.0641021728515625
1772701778094404000,5.195404052734375,-0.20953369140625,0.0595855712890625,0.0515899658203125
1772701778104453000,5.205453125,-0.132781982421875,0.0475311279296875,0.037200927734375
1772701778114501000,5.215501220703125,-0.1065521240234375,0.0452728271484375,0.030853271484375
1772701778124550100,5.225550048828125,-0.0894012451171875,0.038055419921875,0.022369384765625
1772701778134599000,5.235598876953125,-0.07733154296875,0.030242919921875,0.0189208984375
1772701778144647200,5.245647216796875,-0.078216552734375,0.027984619140625,0.029205322265625
1772701778154696000,5.255696044921875,-0.0922393798828125,0.0399322509765625,0.0235443115234375
1772701778164745200,5.2657451171875,-0.120819091796875,0.0558319091796875,0.0350341796875
1772701778174793000,5.27579296875,-0.1571807861328125,0.0623016357421875,0.1049652099609375
1772701778184842000,5.285842041015625,-0.198883056640625,0.0496063232421875,0.194610595703125
1772701778194890000,5.295889892578125,-0.2522430419921875,0.0321807861328125,0.278564453125
1772701778204938500,5.3059384765625,-0.31390380859375,0.0085601806640625,0.3742523193359375
1772701778214986500,5.315986572265625,-0.4002532958984375,-0.0299072265625,0.4951934814453125
1772701778225035500,5.326035400390625,-0.5113525390625,-0.0548248291015625,0.6385955810546875
1772701778235084500,5.33608447265625,-0.647705078125,-0.065216064453125,0.81396484375
1772701778245132500,5.346132568359375,-0.8380584716796875,-0.06005859375,0.9925384521484375
1772701778255181600,5.356181640625,-1.1395263671875,-0.059234619140625,1.2041778564453125
1772701778265230300,5.366230224609375,-1.52874755859375,-0.08587646484375,1.370025634765625
1772701778275278600,5.376278564453125,-2.5064849853515625,-0.1323089599609375,1.4056396484375
1772701778285327400,5.386327392578125,-4.0967254638671875,-0.10699462890625,1.368927001953125
1772701778295375600,5.396375732421875,-5.178985595703125,0.0968780517578125,1.532623291015625
1772701778305424400,5.40642431640625,-4.7025146484375,0.145050048828125,1.5545806884765625
1772701778315473700,5.4164736328125,-3.6091461181640625,0.070220947265625,1.11907958984375
1772701778325521400,5.426521484375,-3.0500335693359375,0.0019073486328125,0.61328125
1772701778335570700,5.43657080078125,-2.7346343994140625,0.060760498046875,0.2313232421875
1772701778345619500,5.446619384765625,-2.3697509765625,0.0968475341796875,0.1510467529296875
1772701778355667700,5.456667724609375,-2.01654052734375,0.106231689453125,0.195098876953125
1772701778365716500,5.466716552734375,-1.831146240234375,0.1755523681640625,0.2825469970703125
1772701778375764700,5.4767646484375,-1.7525177001953125,0.2275238037109375,0.4150238037109375
1772701778385813500,5.4868134765625,-1.6936798095703125,0.21209716796875,0.523162841796875
1772701778395862500,5.496862548828125,-1.59765625,0.19244384765625,0.521575927734375
1772701778405910500,5.50691064453125,-1.4040679931640625,0.1053314208984375,0.4660491943359375
1772701778415959600,5.51695947265625,-1.197998046875,-0.015106201171875,0.380828857421875
1772701778426007600,5.527007568359375,-0.9960784912109375,-0.0661773681640625,0.2777099609375
1772701778436056600,5.537056640625,-0.7758331298828125,-0.0758056640625,0.1581268310546875
1772701778446105600,5.547105712890625,-0.549713134765625,-0.072723388671875,0.0989837646484375
1772701778456153300,5.5571533203125,-0.351318359375,-0.0534820556640625,0.0846405029296875
1772701778466202600,5.56720263671875,-0.1813507080078125,-0.0223541259765625,0.0628662109375
1772701778476251600,5.577251708984375,0.006683349609375,0.03204345703125,0.0114898681640625
1772701778486299400,5.58729931640625,0.1348724365234375,0.0637359619140625,-0.0860137939453125
1772701778496348700,5.5973486328125,0.19317626953125,0.0867462158203125,-0.1634063720703125
1772701778506397400,5.6073974609375,0.1851043701171875,0.104095458984375,-0.1768035888671875
1772701778516445400,5.617445556640625,0.2032318115234375,0.1210784912109375,-0.190826416015625
1772701778526494500,5.627494384765625,0.2598724365234375,0.1543731689453125,-0.1723175048828125
1772701778536542500,5.63754248046875,0.2110595703125,0.1979522705078125,-0.103607177734375
1772701778546591500,5.647591552734375,0.065948486328125,0.21331787109375,0.0032501220703125
1772701778556640500,5.657640625,-0.0464935302734375,0.1903228759765625,0.0597381591796875
1772701778566688500,5.6676884765625,-0.10675048828125,0.175079345703125,0.0827789306640625
1772701778576737300,5.6777373046875,-0.134979248046875,0.1769256591796875,0.0999603271484375
1772701778586786600,5.68778662109375,-0.138885498046875,0.18475341796875,0.1366424560546875
1772701778596834300,5.697834228515625,-0.1729583740234375,0.21685791015625,0.187286376953125
1772701778606883600,5.707883544921875,-0.3257904052734375,0.2933349609375,0.2726898193359375
1772701778616931300,5.717931396484375,-0.4503021240234375,0.371826171875,0.377471923828125
1772701778626980600,5.727980712890625,-0.4713897705078125,0.339874267578125,0.486663818359375
1772701778637029400,5.738029296875,-0.4817657470703125,0.167022705078125,0.647216796875
1772701778647077600,5.74807763671875,-0.6838531494140625,0.1376495361328125,0.76739501953125
1772701778657126400,5.75812646484375,-0.97393798828125,0.30023193359375,0.7932281494140625
1772701778667175400,5.768175537109375,-1.118499755859375,0.31695556640625,0.7428741455078125
1772701778677223400,5.778223388671875,-1.4462432861328125,0.034881591796875,0.727935791015625
1772701778687272400,5.7882724609375,-1.751861572265625,-0.22802734375,0.7772369384765625
1772701778697320400,5.798320556640625,-1.4808197021484375,-0.0576934814453125,0.6548919677734375
1772701778707369500,5.808369384765625,-1.077392578125,0.1648406982421875,0.445770263671875
1772701778717418500,5.81841845703125,-1.180419921875,0.1844940185546875,0.3203887939453125
1772701778727466500,5.828466552734375,-1.4900665283203125,0.1368560791015625,0.222808837890625
1772701778737515500,5.838515625,-1.6686553955078125,0.0345306396484375,0.3394775390625
1772701778747564500,5.848564453125,-1.8022613525390625,-0.0060272216796875,0.574005126953125
1772701778757612500,5.858612548828125,-1.9765472412109375,-0.0034027099609375,0.758880615234375
1772701778767661600,5.86866162109375,-2.2322235107421875,-0.0030975341796875,0.83612060546875
1772701778777709600,5.87870947265625,-2.58062744140625,0.0006103515625,0.8503265380859375
1772701778787758600,5.888758544921875,-2.8903045654296875,0.017181396484375,0.80267333984375
1772701778797807400,5.898807373046875,-3.1547698974609375,0.0129241943359375,0.7841644287109375
1772701778807855600,5.908855712890625,-3.2684173583984375,-0.0077667236328125,0.8076171875
1772701778817904400,5.918904296875,-3.3248443603515625,-0.0166473388671875,0.8391571044921875
1772701778827953700,5.92895361328125,-3.4008026123046875,0.0392913818359375,0.966583251953125
1772701778838001400,5.93900146484375,-3.382659912109375,0.192596435546875,1.02838134765625
1772701778848050700,5.94905078125,-3.086944580078125,0.2310791015625,1.01434326171875
1772701778858098400,5.959098388671875,-2.730682373046875,0.17950439453125,0.9729156494140625
1772701778868147700,5.969147705078125,-2.259490966796875,0.2193145751953125,0.9370574951171875
1772701778878196500,5.979196533203125,-1.617279052734375,0.1164703369140625,0.9901275634765625
1772701778888244700,5.98924462890625,-1.035919189453125,0.13397216796875,0.8753509521484375
1772701778898293500,5.99929345703125,-0.5711822509765625,0.0967864990234375,0.860748291015625
1772701778908342500,6.009342529296875,-0.28082275390625,-0.0626373291015625,0.8143768310546875
1772701778918390500,6.019390625,-0.0011444091796875,-0.2437896728515625,0.7946319580078125
1772701778928439600,6.029439453125,0.271453857421875,-0.3460845947265625,0.7376251220703125
1772701778938487600,6.039487548828125,0.50909423828125,-0.41448974609375,0.657684326171875
1772701778948536300,6.049536376953125,0.728424072265625,-0.4114532470703125,0.58941650390625
1772701778958585600,6.059585693359375,0.8727264404296875,-0.298614501953125,0.4254913330078125
1772701778968633300,6.06963330078125,0.965484619140625,-0.1742095947265625,0.20001220703125
1772701778978682600,6.0796826171875,1.070770263671875,-0.0623931884765625,0.0010223388671875
1772701778988731600,6.089731689453125,1.1125335693359375,0.031036376953125,-0.1347503662109375
1772701778998779600,6.099779541015625,1.1157989501953125,0.1453857421875,-0.228485107421875
1772701779008828400,6.109828369140625,1.1017913818359375,0.125152587890625,-0.21942138671875
1772701779018876700,6.119876708984375,0.9757080078125,0.0482940673828125,-0.0554656982421875
1772701779028925400,6.129925537109375,0.784942626953125,-0.029876708984375,0.111724853515625
1772701779038974500,6.139974365234375,0.572052001953125,-0.0347137451171875,0.15582275390625
1772701779049022500,6.1500224609375,0.3623046875,-0.002105712890625,0.160980224609375
1772701779059071500,6.160071533203125,0.1721954345703125,0.0367584228515625,0.1829833984375
1772701779069120500,6.17012060546875,-0.007598876953125,0.0555419921875,0.1834869384765625
1772701779079168500,6.18016845703125,-0.1749420166015625,0.05780029296875,0.1427459716796875
1772701779089217500,6.190217529296875,-0.2577362060546875,0.0871124267578125,0.08612060546875
1772701779099265500,6.200265625,-0.2598114013671875,0.1242218017578125,0.0554046630859375
1772701779109314600,6.210314453125,-0.24871826171875,0.1368408203125,0.04315185546875
1772701779119363600,6.220363525390625,-0.247528076171875,0.13970947265625,0.02825927734375
1772701779129411600,6.23041162109375,-0.2416839599609375,0.1271209716796875,0.009307861328125
1772701779139460600,6.240460693359375,-0.2299652099609375,0.1065521240234375,-0.015869140625
1772701779149509400,6.25050927734375,-0.224578857421875,0.093231201171875,-0.039764404296875
1772701779159557600,6.2605576171875,-0.218994140625,0.0741729736328125,-0.05926513671875
1772701779169606400,6.2706064453125,-0.2022247314453125,0.0486602783203125,-0.05926513671875
1772701779179654700,6.280654541015625,-0.1713104248046875,0.0274505615234375,-0.058868408203125
1772701779189703400,6.290703369140625,-0.1279449462890625,0.0184173583984375,-0.0425262451171875
1772701779199752400,6.30075244140625,-0.098358154296875,0.016937255859375,-0.0144805908203125
1772701779209801200,6.31080126953125,-0.0819854736328125,0.0134124755859375,0.01971435546875
1772701779219850000,6.32085009765625,-0.0917510986328125,0.0231170654296875,0.0897064208984375
1772701779229899300,6.330899169921875,-0.1697540283203125,0.051239013671875,0.1895294189453125
1772701779239947000,6.340947021484375,-0.2781524658203125,0.05645751953125,0.2935943603515625
1772701779249996300,6.350996337890625,-0.3902740478515625,0.0308837890625,0.385162353515625
1772701779260045000,6.361045166015625,-0.488616943359375,-0.0182952880859375,0.49005126953125
1772701779270093300,6.37109326171875,-0.556884765625,-0.0467071533203125,0.5956268310546875
1772701779280142000,6.38114208984375,-0.6141357421875,-0.0435638427734375,0.7042694091796875
1772701779290190300,6.3911904296875,-0.9037933349609375,-0.002655029296875,1.0208282470703125
1772701779300239000,6.401239013671875,-1.8644866943359375,0.1507568359375,1.6050567626953125
1772701779310288100,6.4112880859375,-3.4800567626953125,0.52093505859375,2.28704833984375
1772701779320336100,6.421336181640625,-5.0769500732421875,0.94244384765625,3.095794677734375
1772701779330385200,6.43138525390625,-4.447784423828125,0.8756561279296875,3.0115509033203125
1772701779340434200,6.44143408203125,-3.868316650390625,0.5047607421875,2.2746734619140625
1772701779350482200,6.451482177734375,-3.5130462646484375,0.1868438720703125,1.3895416259765625
1772701779360531200,6.46153125,-3.0679779052734375,0.3726806640625,0.7121734619140625
1772701779370579200,6.4715791015625,-2.3291473388671875,0.5689544677734375,0.73760986328125
1772701779380628200,6.481628173828125,-1.6775360107421875,0.3703460693359375,0.8406829833984375
1772701779390677200,6.49167724609375,-1.37115478515625,0.1254119873046875,0.9730682373046875
1772701779400725200,6.501725341796875,-1.0816802978515625,-0.03692626953125,1.03643798828125
1772701779410774300,6.511774169921875,-0.8173370361328125,-0.1285858154296875,0.943084716796875
1772701779420823000,6.521822998046875,-0.653533935546875,-0.1300506591796875,0.8240509033203125
1772701779430871300,6.531871337890625,-0.6584320068359375,-0.147003173828125,0.7755126953125
1772701779440920000,6.541920166015625,-0.6644134521484375,-0.157501220703125,0.7542266845703125
1772701779450968000,6.551968017578125,-0.6604766845703125,-0.0601348876953125,0.666656494140625
1772701779461017000,6.56201708984375,-0.725494384765625,0.082763671875,0.5825042724609375
1772701779471066000,6.572066162109375,-0.712371826171875,0.152099609375,0.5256805419921875
1772701779481114000,6.582114013671875,-0.6096649169921875,0.153289794921875,0.481414794921875
1772701779491163100,6.5921630859375,-0.4747467041015625,0.116455078125,0.439117431640625
1772701779501212200,6.602212158203125,-0.353302001953125,0.10833740234375,0.4119415283203125
1772701779511260200,6.61226025390625,-0.266082763671875,0.1261138916015625,0.3712921142578125
1772701779521309200,6.62230908203125,-0.2011566162109375,0.1627960205078125,0.2883758544921875
1772701779531357000,6.63235693359375,-0.16156005859375,0.1903228759765625,0.200714111328125
1772701779541406200,6.64240625,-0.1394195556640625,0.2187652587890625,0.172393798828125
1772701779551455000,6.652455078125,-0.1252288818359375,0.2556915283203125,0.1545867919921875
1772701779561503200,6.662503173828125,-0.132415771484375,0.2829437255859375,0.1353759765625
1772701779571552000,6.672552001953125,-0.1986541748046875,0.24444580078125,0.12042236328125
1772701779581601000,6.68260107421875,-0.2514495849609375,0.1412506103515625,0.1412200927734375
1772701779591649000,6.69264892578125,-0.2428741455078125,0.025543212890625,0.195037841796875
1772701779601698000,6.702697998046875,-0.17547607421875,-0.0296783447265625,0.219390869140625
1772701779611747000,6.7127470703125,-0.124237060546875,-0.015228271484375,0.2076873779296875
1772701779621795000,6.722795166015625,-0.1031494140625,0.0469207763671875,0.1822052001953125
1772701779631844000,6.732843994140625,-0.171234130859375,0.1356353759765625,0.2052001953125
1772701779641892000,6.74289208984375,-0.312713623046875,0.2195281982421875,0.2574310302734375
1772701779651941000,6.752941162109375,-0.3966064453125,0.2723846435546875,0.2696075439453125
1772701779661990100,6.762990234375,-0.4240875244140625,0.2962646484375,0.27069091796875
1772701779672038100,6.7730380859375,-0.4617462158203125,0.2990264892578125,0.2916107177734375
1772701779682087200,6.783087158203125,-0.5023193359375,0.28857421875,0.3593597412109375
1772701779692136000,6.793135986328125,-0.5546875,0.2034912109375,0.462646484375
1772701779702184200,6.80318408203125,-0.688446044921875,0.04132080078125,0.5325775146484375
1772701779712233000,6.81323291015625,-0.90167236328125,-0.0621185302734375,0.59881591796875
1772701779722281200,6.82328125,-1.12310791015625,-0.096771240234375,0.670745849609375
1772701779732330000,6.833330078125,-1.3582916259765625,-0.095672607421875,0.6791534423828125
1772701779742379300,6.843379150390625,-1.58441162109375,-0.0308074951171875,0.685699462890625
1772701779752427000,6.853427001953125,-1.618072509765625,0.175384521484375,0.6749267578125
1772701779762476300,6.863476318359375,-1.4096221923828125,0.2806396484375,0.665283203125
1772701779772525000,6.873525146484375,-1.42425537109375,0.1927947998046875,0.790313720703125
1772701779782573300,6.8835732421875,-1.5436859130859375,0.0842437744140625,0.9337005615234375
1772701779792622000,6.8936220703125,-1.763702392578125,0.038330078125,1.0211029052734375
1772701779802671000,6.903671142578125,-1.9489593505859375,0.0815582275390625,1.07586669921875
1772701779812719000,6.913718994140625,-1.9893646240234375,0.1813507080078125,1.2066497802734375
1772701779822768000,6.92376806640625,-2.1306304931640625,0.1762847900390625,1.3737030029296875
1772701779832816000,6.933816162109375,-2.29119873046875,0.0941314697265625,1.510650634765625
1772701779842865200,6.943865234375,-2.346405029296875,0.1240081787109375,1.7559661865234375
1772701779852914200,6.9539140625,-2.4002532958984375,0.261749267578125,1.9626922607421875
1772701779862962200,6.963962158203125,-2.3848876953125,0.323577880859375,1.944091796875
1772701779873011200,6.97401123046875,-2.3044281005859375,0.2082061767578125,1.79351806640625
1772701779883060200,6.984060302734375,-2.164459228515625,0.0583953857421875,1.5622711181640625
1772701779893108200,6.994108154296875,-1.977142333984375,0.021575927734375,1.287200927734375
1772701779903157200,7.0041572265625,-1.821868896484375,0.0631866455078125,1.0695953369140625
1772701779913205200,7.014205322265625,-1.6999664306640625,0.060302734375,0.9465179443359375
1772701779923254300,7.024254150390625,-1.538421630859375,0.0755462646484375,0.8353118896484375
1772701779933303000,7.034302978515625,-1.315399169921875,0.1216583251953125,0.8181915283203125
1772701779943351000,7.04435107421875,-0.909820556640625,0.1529083251953125,0.7864227294921875
1772701779953400000,7.054400146484375,-0.529144287109375,0.1667938232421875,0.662689208984375
1772701779963449300,7.064449462890625,-0.2542877197265625,0.148468017578125,0.4818267822265625
1772701779973497000,7.0744970703125,-0.0949249267578125,0.1153411865234375,0.3554840087890625
1772701779983546000,7.084546142578125,0.0188751220703125,0.1149749755859375,0.24822998046875
1772701779993595100,7.09459521484375,0.108245849609375,0.1178436279296875,0.173797607421875
1772701780003643100,7.10464306640625,0.2095947265625,0.1057281494140625,0.119049072265625
1772701780013692200,7.114692138671875,0.28704833984375,0.02557373046875,0.08209228515625
1772701780023740200,7.124740234375,0.411529541015625,-0.06170654296875,0.075836181640625
1772701780033789200,7.1347890625,0.5506744384765625,-0.1034393310546875,0.0296173095703125
1772701780043838000,7.144837890625,0.5966644287109375,-0.1568145751953125,0.04156494140625
1772701780053886200,7.15488623046875,0.7238006591796875,-0.0769805908203125,-0.1584014892578125
1772701780063935000,7.16493505859375,0.777679443359375,-0.0127105712890625,-0.1816558837890625
1772701780073984300,7.174984375,0.749298095703125,-0.030242919921875,-0.0929412841796875
1772701780084032000,7.185031982421875,0.75689697265625,-0.072021484375,-0.0775299072265625
1772701780094081300,7.195081298828125,0.75360107421875,-0.1005096435546875,-0.069549560546875
1772701780104130000,7.205130126953125,0.7298583984375,-0.0948333740234375,-0.075225830078125
1772701780114178300,7.21517822265625,0.6913299560546875,-0.078338623046875,-0.08306884765625
1772701780124227000,7.22522705078125,0.5528106689453125,-0.076385498046875,-0.0453643798828125
1772701780134275000,7.235275146484375,0.41455078125,-0.0601043701171875,-0.021270751953125
1772701780144324000,7.245323974609375,0.35198974609375,-0.0489654541015625,0.0298309326171875
1772701780154373000,7.255373046875,0.262481689453125,-0.029144287109375,0.0845489501953125
1772701780164421000,7.265421142578125,0.18109130859375,-0.0042266845703125,0.09075927734375
1772701780174470100,7.27547021484375,0.1247100830078125,-0.0059661865234375,0.126922607421875
1772701780184519200,7.285519287109375,0.050933837890625,-0.0198974609375,0.1744537353515625
1772701780194567200,7.295567138671875,-0.01934814453125,0.0057525634765625,0.1901702880859375
1772701780204615700,7.30561572265625,-0.128997802734375,0.0544586181640625,0.2381439208984375
1772701780214663700,7.31566357421875,-0.3157806396484375,0.05181884765625,0.2939300537109375
1772701780224712700,7.325712646484375,-0.6173248291015625,-0.02288818359375,0.3045501708984375
1772701780234761700,7.33576171875,-0.894805908203125,-0.00994873046875,0.3546295166015625
1772701780244809700,7.345809814453125,-1.0581512451171875,0.0821075439453125,0.4697418212890625
1772701780254858800,7.355858642578125,-1.1316986083984375,0.18463134765625,0.58282470703125
1772701780264907500,7.365907470703125,-1.1759033203125,0.221038818359375,0.656341552734375
1772701780274955800,7.375955810546875,-1.3186492919921875,0.2428131103515625,0.7123870849609375
1772701780285004500,7.386004638671875,-1.52130126953125,0.233917236328125,0.7365570068359375
1772701780295053800,7.3960537109375,-1.812591552734375,0.1881256103515625,0.8368072509765625
1772701780305101600,7.4061015625,-2.284759521484375,0.188690185546875,1.055816650390625
1772701780315150800,7.41615087890625,-2.90716552734375,0.3311767578125,1.3105926513671875
1772701780325199600,7.42619970703125,-3.0724334716796875,0.6167755126953125,1.5859222412109375
1772701780335248000,7.436247802734375,-2.6127471923828125,0.6495208740234375,1.837890625
1772701780345296600,7.446296630859375,-2.3809967041015625,0.4061431884765625,1.956451416015625
1772701780355344600,7.4563447265625,-2.2919158935546875,0.2044219970703125,1.6904296875
1772701780365393700,7.4663935546875,-2.250518798828125,0.1126708984375,1.333984375
1772701780375442700,7.476442626953125,-2.3183746337890625,0.115478515625,1.043121337890625
1772701780385490700,7.48649072265625,-2.24481201171875,0.183197021484375,0.8470001220703125
1772701780395539500,7.49653955078125,-2.06927490234375,0.2799224853515625,0.6331329345703125
1772701780405588700,7.506588623046875,-1.7264862060546875,0.4130096435546875,0.5057830810546875
1772701780415636500,7.516636474609375,-1.315277099609375,0.39959716796875,0.498870849609375
1772701780425685800,7.526685791015625,-1.0863800048828125,0.3033599853515625,0.5012664794921875
1772701780435734800,7.53673486328125,-0.840576171875,0.250335693359375,0.51922607421875
1772701780445782800,7.54678271484375,-0.56695556640625,0.1729278564453125,0.5040435791015625
1772701780455831600,7.55683154296875,-0.36431884765625,0.0937042236328125,0.4337005615234375
1772701780465879600,7.566879638671875,-0.2302703857421875,0.0388031005859375,0.3418426513671875
1772701780475928600,7.576928466796875,-0.0862884521484375,0.0060577392578125,0.262237548828125
1772701780485977600,7.5869775390625,0.0210418701171875,-0.0058441162109375,0.205535888671875
1772701780496025600,7.597025634765625,0.0592803955078125,0.0028228759765625,0.219482421875
1772701780506074600,7.60707470703125,0.0798797607421875,0.0487823486328125,0.30438232421875
1772701780516123600,7.61712353515625,0.096588134765625,0.101776123046875,0.39910888671875
1772701780526171600,7.627171630859375,0.0639190673828125,0.121795654296875,0.45867919921875
1772701780536220700,7.637220703125,-0.01495361328125,0.109649658203125,0.4739990234375
1772701780546269700,7.647269775390625,-0.0989532470703125,0.0917205810546875,0.482391357421875
1772701780556317400,7.6573173828125,-0.176971435546875,0.064208984375,0.4997406005859375
1772701780566366700,7.66736669921875,-0.264984130859375,0.04278564453125,0.5307159423828125
1772701780576414500,7.67741455078125,-0.368621826171875,0.0954742431640625,0.6001739501953125
1772701780586463700,7.687463623046875,-0.4485015869140625,0.215057373046875,0.7110595703125
1772701780596512500,7.697512451171875,-0.4989013671875,0.3017730712890625,0.786224365234375
1772701780606560800,7.707560791015625,-0.5757598876953125,0.348297119140625,0.8230438232421875
1772701780616609500,7.717609619140625,-0.700531005859375,0.4032745361328125,0.8453521728515625
1772701780626658600,7.727658447265625,-0.8318023681640625,0.4296875,0.8904571533203125
1772701780636706600,7.73770654296875,-0.9736175537109375,0.4067230224609375,0.9605865478515625
1772701780646755600,7.747755615234375,-1.022705078125,0.358062744140625,0.95635986328125
1772701780656804600,7.7578046875,-0.9523773193359375,0.3599700927734375,0.825164794921875
1772701780666852600,7.7678525390625,-0.919647216796875,0.388458251953125,0.655364990234375
1772701780676901600,7.777901611328125,-0.96710205078125,0.3508148193359375,0.456512451171875
1772701780686949600,7.78794970703125,-1.031707763671875,0.2721710205078125,0.2939605712890625
1772701780696998700,7.79799853515625,-1.045196533203125,0.2455902099609375,0.1874542236328125
1772701780707047700,7.808047607421875,-0.9542999267578125,0.316436767578125,0.1964263916015625
1772701780717095700,7.818095703125,-0.8568572998046875,0.3764801025390625,0.2897491455078125
1772701780727144700,7.828144775390625,-0.86700439453125,0.3858489990234375,0.417633056640625
1772701780737193500,7.838193359375,-0.8628082275390625,0.388031005859375,0.53192138671875
1772701780747241700,7.84824169921875,-0.79644775390625,0.398681640625,0.5817108154296875
1772701780757290500,7.85829052734375,-0.73760986328125,0.4131317138671875,0.6071929931640625
1772701780767339800,7.86833984375,-0.689208984375,0.404327392578125,0.635894775390625
1772701780777387500,7.878387451171875,-0.6492156982421875,0.3700714111328125,0.652984619140625
1772701780787436800,7.888436767578125,-0.6299285888671875,0.3289947509765625,0.6563262939453125
1772701780797484500,7.898484619140625,-0.6065673828125,0.2930450439453125,0.6563720703125
1772701780807533800,7.908533935546875,-0.5853424072265625,0.279144287109375,0.665924072265625
1772701780817582600,7.91858251953125,-0.6014862060546875,0.2835235595703125,0.6963043212890625
1772701780827630600,7.928630615234375,-0.631683349609375,0.2800140380859375,0.720245361328125
1772701780837679600,7.9386796875,-0.6533660888671875,0.2717742919921875,0.717559814453125
1772701780847728600,7.948728759765625,-0.668914794921875,0.2513885498046875,0.715087890625
1772701780857776600,7.958776611328125,-0.6693267822265625,0.2252655029296875,0.7218170166015625
1772701780867825700,7.96882568359375,-0.6682281494140625,0.2129974365234375,0.7064971923828125
1772701780877874700,7.978874755859375,-0.6761932373046875,0.212310791015625,0.67864990234375
1772701780887922400,7.98892236328125,-0.6891021728515625,0.2210845947265625,0.6687469482421875
1772701780897971700,7.9989716796875,-0.7077484130859375,0.237579345703125,0.676177978515625
1772701780908020700,8.009020751953125,-0.7229766845703125,0.2595367431640625,0.6646575927734375
1772701780918068700,8.01906884765625,-0.73052978515625,0.277008056640625,0.6411590576171875
1772701780928117800,8.02911767578125,-0.7445526123046875,0.2927703857421875,0.6260528564453125
1772701780938165800,8.039165771484376,-0.76092529296875,0.3049774169921875,0.63006591796875
1772701780948214500,8.049214599609375,-0.7643585205078125,0.3034210205078125,0.6490020751953125
1772701780958263600,8.059263671875,-0.746551513671875,0.286376953125,0.6650238037109375
1772701780968311600,8.0693115234375,-0.717315673828125,0.2675323486328125,0.6767120361328125
1772701780978360600,8.079360595703125,-0.709808349609375,0.25946044921875,0.667205810546875
1772701780988409600,8.08940966796875,-0.7113189697265625,0.2640228271484375,0.6533203125
1772701780998457600,8.09945751953125,-0.7195892333984375,0.271484375,0.6407318115234375
1772701781008506600,8.109506591796874,-0.72418212890625,0.30572509765625,0.6242218017578125
1772701781018555600,8.1195556640625,-0.7458953857421875,0.338623046875,0.6202850341796875
1772701781028603600,8.129603759765626,-0.76666259765625,0.346435546875,0.626220703125
1772701781038652700,8.139652587890625,-0.76727294921875,0.3250885009765625,0.64599609375
1772701781048700700,8.14970068359375,-0.7419891357421875,0.296600341796875,0.6732177734375
1772701781058749700,8.159749755859375,-0.6984100341796875,0.2568511962890625,0.686126708984375
1772701781068798500,8.169798583984376,-0.6638946533203125,0.2364959716796875,0.684967041015625
1772701781078846700,8.1798466796875,-0.6539764404296875,0.2238616943359375,0.6788482666015625
1772701781088895500,8.1898955078125,-0.6477203369140625,0.2177886962890625,0.65771484375
1772701781098944800,8.19994482421875,-0.65203857421875,0.216796875,0.638916015625
1772701781108992500,8.209992431640625,-0.6776580810546875,0.224578857421875,0.6390838623046875
1772701781119041800,8.220041748046874,-0.7106170654296875,0.245513916015625,0.6452178955078125
1772701781129090600,8.230090576171875,-0.737396240234375,0.2563629150390625,0.6483001708984375
1772701781139138800,8.240138916015624,-0.7427825927734375,0.249267578125,0.6566619873046875
1772701781149187600,8.2501875,-0.7285003662109375,0.243560791015625,0.659515380859375
1772701781159236600,8.260236572265624,-0.719207763671875,0.251434326171875,0.6606292724609375
1772701781169284600,8.27028466796875,-0.72491455078125,0.2640533447265625,0.6636199951171875
1772701781179333600,8.280333740234376,-0.734100341796875,0.269744873046875,0.649871826171875
1772701781189381600,8.290381591796875,-0.7276763916015625,0.2808990478515625,0.6436309814453125
1772701781199430700,8.3004306640625,-0.717041015625,0.2677459716796875,0.6445770263671875
1772701781209480000,8.31047998046875,-0.7020111083984375,0.2398529052734375,0.6385955810546875
1772701781219528000,8.32052783203125,-0.662628173828125,0.22161865234375,0.6338348388671875
1772701781229577000,8.330576904296874,-0.669525146484375,0.2067413330078125,0.6394500732421875
1772701781239626000,8.3406259765625,-0.7082366943359375,0.2251129150390625,0.6578826904296875
1772701781249674000,8.350674072265624,-0.7208251953125,0.2419891357421875,0.66839599609375
1772701781259723000,8.360722900390625,-0.72406005859375,0.239166259765625,0.6760101318359375
1772701781269772000,8.37077197265625,-0.73895263671875,0.2535400390625,0.67572021484375
1772701781279820000,8.380820068359375,-0.75787353515625,0.2556304931640625,0.6749114990234375
