time,seconds_elapsed,z,y,x
1772701772949518600,0.0505185546875,-0.12707991898059845,0.06408604234457016,-0.14052169024944305
1772701772959566600,0.060566650390625,-0.1375938206911087,-0.006396113894879818,-0.10661965608596802
1772701772969615600,0.07061572265625,-0.14278778433799744,-0.05029379576444626,-0.07293625921010971
1772701772979663600,0.08066357421875,-0.1540881097316742,-0.04292110353708267,-0.04795501008629799
1772701772989712600,0.090712646484375,-0.1763867437839508,-0.040885381400585175,-0.025595374405384064
1772701772999761700,0.10076171875,-0.19480623304843903,-0.05771016702055931,-0.010143714025616646
1772701773009809700,0.1108095703125,-0.20905707776546478,-0.08929339051246643,-0.0014591459184885025
1772701773019858700,0.120858642578125,-0.2139064222574234,-0.1172025203704834,0.007423827890306711
1772701773029906700,0.13090673828125,-0.2088616043329239,-0.08652077615261078,0.03662538900971413
1772701773039955700,0.140955810546875,-0.19362086057662964,-0.034504182636737823,0.068982794880867
1772701773050004700,0.151004638671875,-0.17857986688613892,-0.011503524146974087,0.09129342436790466
1772701773060052700,0.161052734375,-0.16951605677604675,-0.004482632502913475,0.11116433888673782
1772701773070101800,0.171101806640625,-0.17022046446800232,0.00833968911319971,0.11565176397562027
1772701773080149800,0.181149658203125,-0.1784064918756485,0.010670754127204418,0.09759259968996048
1772701773090198800,0.19119873046875,-0.19390688836574554,-0.015452725812792778,0.07687507569789886
1772701773100246800,0.201246826171875,-0.20279891788959503,-0.023007314652204514,0.062838613986969
1772701773110295800,0.2112958984375,-0.20894522964954376,0.031864456832408905,0.051714591681957245
1772701773120344600,0.221344482421875,-0.19245147705078125,0.11935781687498093,0.044430848211050034
1772701773130392800,0.231392822265625,-0.17523440718650818,0.18636135756969452,0.045697182416915894
1772701773140441600,0.241441650390625,-0.1601923406124115,0.20802083611488342,0.05696874484419823
1772701773150489600,0.251489501953125,-0.14642539620399475,0.1862068921327591,0.0666823610663414
1772701773160538600,0.26153857421875,-0.1390518993139267,0.14159388840198517,0.06693749129772186
1772701773170588000,0.271587890625,-0.1291705071926117,0.10152982175350189,0.06402159482240677
1772701773180635600,0.2816357421875,-0.10100677609443665,0.10827746987342834,0.06163113936781883
1772701773190684700,0.2916845703125,-0.07640582323074341,0.1445867419242859,0.06186869367957115
1772701773200733200,0.301733154296875,-0.05434020236134529,0.1702023595571518,0.07238711416721344
1772701773210782000,0.311781982421875,-0.034753188490867615,0.23158103227615356,0.10138707607984543
1772701773220831200,0.321831298828125,-0.04068857431411743,0.3507838547229767,0.11773009598255157
1772701773230879000,0.33187890625,-0.05806756392121315,0.3123461902141571,0.0713982805609703
1772701773240928300,0.34192822265625,-0.078182153403759,0.1594865918159485,-0.011238273233175278
1772701773250976000,0.35197607421875,-0.0757371038198471,0.07260895520448685,-0.08776633441448212
1772701773261025300,0.362025390625,-0.0819164365530014,0.07274530827999115,-0.14456996321678162
1772701773271074000,0.372073974609375,-0.09668979048728943,0.10868865996599197,-0.17123593389987946
1772701773281122300,0.382122314453125,-0.10514133423566818,0.13281530141830444,-0.1862841248512268
1772701773291171000,0.392171142578125,-0.11794554442167282,0.17819982767105103,-0.18170082569122314
1772701773301219300,0.40221923828125,-0.12107156217098236,0.20584078133106232,-0.17728875577449799
1772701773311268000,0.41226806640625,-0.12282152473926544,0.16758713126182556,-0.17846162617206573
1772701773321316400,0.42231640625,-0.13406965136528015,0.06469004601240158,-0.18255968391895294
1772701773331365000,0.432365234375,-0.14815084636211395,-0.025533588603138924,-0.1795676350593567
1772701773341414100,0.4424140625,-0.14703285694122314,-0.05943669378757477,-0.15018603205680847
1772701773351462100,0.452462158203125,-0.14054806530475616,-0.05675222724676132,-0.10805483162403107
1772701773361511200,0.46251123046875,-0.12397201359272003,-0.050696734338998795,-0.04547853395342827
1772701773371559200,0.47255908203125,-0.10809717327356339,-0.03273797407746315,0.018262626603245735
1772701773381608200,0.482608154296875,-0.09732335805892944,0.020422717556357384,0.08006953448057175
1772701773391657200,0.4926572265625,-0.08367758244276047,0.0896364077925682,0.14222265779972076
1772701773401705000,0.502705078125,-0.08004610240459442,0.1359218806028366,0.18576107919216156
1772701773411754200,0.512754150390625,-0.09001404792070389,0.1346701979637146,0.22370153665542603
1772701773421802000,0.522802001953125,-0.10824791342020035,0.11762862652540207,0.2521773874759674
1772701773431851300,0.532851318359375,-0.12936730682849884,0.11961081624031067,0.27869901061058044
1772701773441900300,0.542900390625,-0.15430249273777008,0.14383120834827423,0.303240567445755
1772701773451948300,0.5529482421875,-0.18481431901454926,0.1946488469839096,0.32487794756889343
1772701773461997000,0.5629970703125,-0.2159421443939209,0.25722888112068176,0.34251314401626587
1772701773472045000,0.573045166015625,-0.21966631710529327,0.3271411061286926,0.35651522874832153
1772701773482094000,0.583093994140625,-0.20292355120182037,0.3810269832611084,0.3412228524684906
1772701773492143000,0.59314306640625,-0.14328259229660034,0.38276761770248413,0.3080901801586151
1772701773502191000,0.603191162109375,-0.047802943736314774,0.3089003264904022,0.3130636513233185
1772701773512240000,0.613240234375,0.07588198035955429,0.16036809980869293,0.3945707380771637
1772701773522288000,0.6232880859375,0.231566920876503,-0.07631740719079971,0.5741418600082397
1772701773532337200,0.633337158203125,0.44381260871887207,-0.41602277755737305,0.8637899160385132
1772701773542386200,0.64338623046875,0.650941014289856,-0.8200836777687073,1.1678073406219482
1772701773552434200,0.65343408203125,0.8379034399986267,-1.015702724456787,1.3674352169036865
1772701773562483200,0.663483154296875,0.9731177091598511,-1.0738755464553833,1.3800926208496094
1772701773572531200,0.67353125,0.9837908744812012,-1.2746636867523193,1.2881497144699097
1772701773582580000,0.683580078125,0.8827210068702698,-1.5997155904769897,1.0613447427749634
1772701773592629200,0.693629150390625,0.6703421473503113,-1.9917640686035156,0.7141463756561279
1772701773602677000,0.703677001953125,0.4173482358455658,-2.1907992362976074,0.43786948919296265
1772701773612726300,0.713726318359375,0.2316311001777649,-2.0458335876464844,0.35211116075515747
1772701773622774000,0.72377392578125,0.11185329407453537,-1.8458542823791504,0.41201844811439514
1772701773632823300,0.7338232421875,0.03117709420621395,-1.9428516626358032,0.5476623177528381
1772701773642872000,0.7438720703125,-0.10617410391569138,-2.1621317863464355,0.7545126676559448
1772701773652920300,0.75392041015625,-0.19228395819664001,-2.2291250228881836,1.0317597389221191
1772701773662969000,0.763968994140625,-0.3042576313018799,-2.0842175483703613,1.2532607316970825
1772701773673017000,0.77401708984375,-0.4373248815536499,-2.0509817600250244,1.3580611944198608
1772701773683066000,0.784066162109375,-0.5365806221961975,-2.286663293838501,1.3800671100616455
1772701773693114000,0.794114013671875,-0.5754542350769043,-2.5092642307281494,1.3955949544906616
1772701773703163100,0.8041630859375,-0.5197286605834961,-2.511336088180542,1.4781467914581299
1772701773713212200,0.814212158203125,-0.44078031182289124,-2.3728866577148438,1.5984306335449219
1772701773723260200,0.82426025390625,-0.3647151291370392,-1.9526987075805664,1.7256224155426025
1772701773733309000,0.834308837890625,-0.2450483739376068,-1.3117573261260986,1.840975046157837
1772701773743357200,0.844357177734375,-0.10453146696090698,-0.8408534526824951,1.8916795253753662
1772701773753406000,0.854406005859375,-0.046242862939834595,-0.7403537034988403,1.8148092031478882
1772701773763455200,0.864455322265625,-0.07535520941019058,-0.8949134945869446,1.594102382659912
1772701773773503000,0.8745029296875,-0.07978937029838562,-1.0913034677505493,1.3069156408309937
1772701773783552300,0.88455224609375,-0.11113983392715454,-1.2504273653030396,0.9438503980636597
1772701773793600000,0.89460009765625,-0.1298123300075531,-1.3038455247879028,0.5439866185188293
1772701773803649300,0.904649169921875,-0.025549035519361496,-1.3166985511779785,0.22083890438079834
1772701773813698000,0.914697998046875,0.08653569221496582,-1.2386915683746338,-0.11217261105775833
1772701773823746300,0.924746337890625,0.1354702115058899,-0.9982089400291443,-0.3654504120349884
1772701773833795000,0.934795166015625,0.13255883753299713,-0.7661142349243164,-0.5593583583831787
1772701773843843300,0.94484326171875,0.12657152116298676,-0.6509511470794678,-0.6660405993461609
1772701773853892000,0.95489208984375,0.08911922574043274,-0.5695862174034119,-0.6758620738983154
1772701773863941000,0.964941162109375,-0.021032048389315605,-0.3095213770866394,-0.6049085259437561
1772701773873989000,0.974989013671875,-0.17449457943439484,0.18229150772094727,-0.46467819809913635
1772701773884038100,0.9850380859375,-0.2442089468240738,0.49801909923553467,-0.28449591994285583
1772701773894086100,0.995086181640625,-0.31486713886260986,0.6629449725151062,-0.1352957785129547
1772701773904135200,1.00513525390625,-0.3836941421031952,0.9016144871711731,0.0040972731076180935
1772701773914184200,1.01518408203125,-0.4222548305988312,1.2282391786575317,0.13903911411762238
1772701773924232200,1.025232177734375,-0.44801241159439087,1.5380489826202393,0.25243330001831055
1772701773934281200,1.03528125,-0.4815485179424286,1.7474727630615234,0.30949074029922485
1772701773944329000,1.045328857421875,-0.525118887424469,1.8471487760543823,0.32497143745422363
1772701773954378200,1.055378173828125,-0.556649923324585,1.8832820653915405,0.35471415519714355
1772701773964427300,1.06542724609375,-0.5696743726730347,1.9137544631958008,0.3944767415523529
1772701773974475300,1.075475341796875,-0.5435456037521362,1.9163289070129395,0.4168824553489685
1772701773984524300,1.085524169921875,-0.4972726106643677,1.880766749382019,0.39950451254844666
1772701773994572300,1.095572265625,-0.44615378975868225,1.831637978553772,0.34731560945510864
1772701774004621000,1.10562109375,-0.38322168588638306,1.8044090270996094,0.243636354804039
1772701774014669000,1.1156689453125,-0.34168437123298645,1.8078088760375977,0.08466748148202896
1772701774024718000,1.125718017578125,-0.29418715834617615,1.8070647716522217,-0.0770186185836792
1772701774034767000,1.13576708984375,-0.26707723736763,1.7773665189743042,-0.23387640714645386
1772701774044815000,1.145815185546875,-0.28176936507225037,1.61635422706604,-0.42176535725593567
1772701774054864100,1.155864013671875,-0.2868424355983734,1.341943383216858,-0.6255584359169006
1772701774064912100,1.165912109375,-0.2705071270465851,1.129515290260315,-0.8276111483573914
1772701774074961200,1.175961181640625,-0.22490368783473969,1.0978617668151855,-0.9920136332511902
1772701774085010200,1.18601025390625,-0.15183240175247192,1.3342175483703613,-1.0707346200942993
1772701774095058200,1.19605810546875,-0.014869493432343006,1.9262521266937256,-0.9626072645187378
1772701774105107000,1.20610693359375,0.06722457706928253,2.864560604095459,-0.877708911895752
1772701774115156200,1.21615625,0.07718373090028763,3.6370480060577393,-1.0321576595306396
1772701774125204000,1.226203857421875,0.137909397482872,3.6170809268951416,-1.3914673328399658
1772701774135253200,1.236253173828125,0.48016953468322754,2.9918627738952637,-1.4899768829345703
1772701774145301000,1.246301025390625,0.9478352665901184,2.592660903930664,-1.3336633443832397
1772701774155350300,1.256350341796875,0.8032575845718384,1.973651647567749,-1.260693073272705
1772701774165398000,1.26639794921875,0.6151508092880249,1.071366310119629,-1.1686736345291138
1772701774175447300,1.276447265625,0.549242377281189,-0.0012567456578835845,-0.9228761196136475
1772701774185496000,1.28649609375,0.5005158185958862,-0.4931449890136719,-0.49518871307373047
1772701774195544000,1.2965439453125,0.4657365381717682,-0.46549391746520996,0.018340392038226128
1772701774205592800,1.3065927734375,0.44562381505966187,-0.1461191326379776,0.4122503995895386
1772701774215640800,1.316640869140625,0.4601753354072571,0.2650716006755829,0.6777257323265076
1772701774225689900,1.32668994140625,0.5016926527023315,0.649300217628479,0.8481302261352539
1772701774235739000,1.33673876953125,0.49909767508506775,0.9690399169921875,0.9469409584999084
1772701774245787000,1.346786865234375,0.4692378044128418,1.1908921003341675,0.9674609303474426
1772701774255835600,1.356835693359375,0.4421830177307129,1.1512978076934814,0.8343337178230286
1772701774265884000,1.3668837890625,0.36053982377052307,0.9112447500228882,0.5946705341339111
1772701774275932700,1.3769326171875,0.24395354092121124,0.5769429802894592,0.26510703563690186
1772701774285982000,1.38698193359375,0.11630477011203766,0.26266518235206604,-0.09635929018259048
1772701774296029700,1.39702978515625,0.014011955820024014,0.07798188179731369,-0.3773083984851837
1772701774306079000,1.407078857421875,-0.08285254240036011,-0.01667618192732334,-0.5708709359169006
1772701774316126700,1.417126708984375,-0.21972143650054932,-0.08304828405380249,-0.7210860252380371
1772701774326176000,1.427176025390625,-0.346722811460495,-0.04715978726744652,-0.8005576729774475
1772701774336224800,1.437224853515625,-0.447744220495224,0.13451573252677917,-0.7906935811042786
1772701774346273000,1.44727294921875,-0.5429242849349976,0.4697669744491577,-0.7258546948432922
1772701774356321800,1.45732177734375,-0.5724406242370605,0.8594156503677368,-0.6004200577735901
1772701774366370000,1.4673701171875,-0.5093282461166382,1.1987135410308838,-0.42603012919425964
1772701774376418800,1.477418701171875,-0.411995530128479,1.4586963653564453,-0.24774588644504547
1772701774386467800,1.4874677734375,-0.3562593162059784,1.6057002544403076,-0.07696136087179184
1772701774396515800,1.497515869140625,-0.3166320025920868,1.62345552444458,0.06108439341187477
1772701774406564900,1.50756494140625,-0.2613660991191864,1.507189393043518,0.17501388490200043
1772701774416612900,1.51761279296875,-0.23058581352233887,1.1189388036727905,0.26224812865257263
1772701774426662000,1.527661865234375,-0.2787613272666931,0.3656429648399353,0.28886908292770386
1772701774436711000,1.5377109375,-0.3344424366950989,-0.6329071521759033,0.25733593106269836
1772701774446759000,1.547759033203125,-0.34220555424690247,-1.7649271488189697,0.20057810842990875
1772701774456808000,1.557807861328125,-0.3977212607860565,-2.7368059158325195,0.02479189820587635
1772701774466856000,1.56785595703125,-0.5466479063034058,-2.271965265274048,-0.3708132207393646
1772701774476905000,1.577905029296875,-0.499226838350296,-0.11248473078012466,-0.48875051736831665
1772701774486954000,1.5879541015625,-0.3659135401248932,1.480399250984192,-0.5741961598396301
1772701774497002000,1.598001953125,-0.338991641998291,1.6141277551651,-0.7342082262039185
1772701774507051000,1.608051025390625,-0.3255341649055481,0.7429335117340088,-0.724458634853363
1772701774517099000,1.61809912109375,-0.32891717553138733,-0.04633048176765442,-0.4544718861579895
1772701774527147800,1.628147705078125,-0.30231085419654846,-0.3846733868122101,-0.02599618025124073
1772701774537196800,1.63819677734375,-0.27117452025413513,-0.4935266375541687,0.41780123114585876
1772701774547244800,1.648244873046875,-0.21111996471881866,-0.6471585035324097,0.7061702013015747
1772701774557293800,1.6582939453125,-0.12600506842136383,-1.083388090133667,0.8447568416595459
1772701774567341800,1.668341796875,-0.06409270316362381,-1.5656942129135132,0.9117395877838135
1772701774577390800,1.678390869140625,-0.01587536931037903,-1.889215350151062,0.9321364760398865
1772701774587439900,1.68843994140625,0.027064373716711998,-2.0784988403320312,0.9505605101585388
1772701774597487900,1.69848779296875,0.06781526654958725,-2.2260637283325195,0.9490427374839783
1772701774607537000,1.708536865234375,0.10901276767253876,-2.3242313861846924,0.9276589155197144
1772701774617585000,1.7185849609375,0.04826260358095169,-2.3522579669952393,0.9042896628379822
1772701774627634000,1.728634033203125,-0.19168208539485931,-2.375171661376953,0.8021070957183838
1772701774637683000,1.738682861328125,-0.5733197331428528,-2.4695589542388916,0.5770801305770874
1772701774647731000,1.74873095703125,-0.8402702212333679,-2.487623453140259,0.4234902858734131
1772701774657780000,1.758780029296875,-0.8015115857124329,-1.8970683813095093,0.4545488655567169
1772701774667828000,1.768827880859375,-0.6473324298858643,-1.1753571033477783,0.5370043516159058
1772701774677877000,1.778876953125,-0.5399726629257202,-1.1243935823440552,0.6225873827934265
1772701774687925800,1.78892578125,-0.5044400095939636,-1.6211875677108765,0.7654502987861633
1772701774697974000,1.79897412109375,-0.48158395290374756,-2.1095592975616455,1.00949227809906
1772701774708022800,1.809022705078125,-0.44433191418647766,-2.4646458625793457,1.2645738124847412
1772701774718071000,1.819071044921875,-0.4866221249103546,-2.507932662963867,1.494046688079834
1772701774728119800,1.829119873046875,-0.5746837854385376,-2.358842134475708,1.7517427206039429
1772701774738168800,1.8391689453125,-0.5417883992195129,-2.2351443767547607,1.9397588968276978
1772701774748216800,1.849216796875,-0.419988214969635,-2.1123907566070557,1.94632089138031
1772701774758265900,1.859265869140625,-0.2747220993041992,-1.9116705656051636,1.8305325508117676
1772701774768313900,1.86931396484375,-0.140635684132576,-1.5711169242858887,1.659645438194275
1772701774778363000,1.87936279296875,0.010749849490821362,-1.0846327543258667,1.5221848487854004
1772701774788412000,1.889411865234375,0.18526466190814972,-0.6604072451591492,1.4365460872650146
1772701774798459600,1.899459716796875,0.29184091091156006,-0.47179415822029114,1.282952070236206
1772701774808509000,1.909509033203125,0.35295379161834717,-0.36513030529022217,1.0134598016738892
1772701774818556700,1.919556640625,0.23557017743587494,-0.2794015407562256,0.6341505646705627
1772701774828606000,1.92960595703125,0.2175070196390152,-0.29896727204322815,0.2474508136510849
1772701774838655000,1.939655029296875,0.18983997404575348,-0.3854518234729767,-0.0947938859462738
1772701774848703000,1.949702880859375,0.11549969762563705,-0.4453369975090027,-0.3862057626247406
1772701774858751700,1.959751708984375,0.018704446032643318,-0.4046066105365753,-0.616642415523529
1772701774868800000,1.969800048828125,-0.08200858533382416,-0.31051844358444214,-0.7626973986625671
1772701774878848800,1.979848876953125,-0.16849952936172485,-0.16344352066516876,-0.8307416439056396
1772701774888897800,1.989897705078125,-0.2207598090171814,0.021033646538853645,-0.8220592141151428
1772701774898945800,1.99994580078125,-0.13202008605003357,0.06067080423235893,-0.7608305215835571
1772701774908994800,2.009994873046875,-0.22925183176994324,0.28174886107444763,-0.7308587431907654
1772701774919042800,2.020042724609375,-0.18260443210601807,0.4567824602127075,-0.6863658428192139
1772701774929091800,2.030091796875,-0.16293752193450928,0.5269309282302856,-0.6005124449729919
1772701774939140900,2.040140869140625,-0.11242534220218658,0.6046296954154968,-0.5030482411384583
1772701774949188900,2.05018896484375,-0.07882130891084671,0.7167086005210876,-0.41181498765945435
1772701774959238000,2.06023779296875,-0.04364281892776489,0.7543374300003052,-0.3232153356075287
1772701774969286000,2.070285888671875,0.0165568720549345,0.7224698066711426,-0.2336878627538681
1772701774979335000,2.0803349609375,0.07801437377929688,0.6403235197067261,-0.14404532313346863
1772701774989384000,2.090384033203125,0.13539670407772064,0.506729781627655,-0.04745966196060181
1772701774999432000,2.100431884765625,0.1913537085056305,0.3875589072704315,0.051060255616903305
1772701775009481000,2.11048095703125,0.26217490434646606,0.27827635407447815,0.14786802232265472
1772701775019529000,2.120529052734375,0.33116912841796875,0.16723692417144775,0.23107317090034485
1772701775029578000,2.130577880859375,0.38745585083961487,0.048766206949949265,0.298235148191452
1772701775039626800,2.140626708984375,0.42665597796440125,-0.03356914594769478,0.3312743306159973
1772701775049675000,2.150675048828125,0.44412046670913696,-0.026884078979492188,0.33465680480003357
1772701775059723800,2.160723876953125,0.43407127261161804,0.08991950005292892,0.3104758560657501
1772701775069772000,2.17077197265625,0.37320953607559204,0.24442492425441742,0.2439945489168167
1772701775079820800,2.18082080078125,0.26913079619407654,0.33324721455574036,0.13082246482372284
1772701775089870000,2.1908701171875,0.1527988612651825,0.3256974220275879,0.0013440974289551377
1772701775099917800,2.200917724609375,0.08118247240781784,0.3396928608417511,-0.10914992541074753
1772701775109967000,2.210967041015625,0.10537276417016983,0.2906712591648102,-0.1489330232143402
1772701775120014800,2.221014892578125,0.2045622020959854,0.3078971207141876,-0.07505107671022415
1772701775130064000,2.23106396484375,0.38405391573905945,0.47128817439079285,0.07287127524614334
1772701775140113000,2.24111279296875,0.53609699010849,0.623894453048706,0.19231991469860077
1772701775150161000,2.251160888671875,0.5059049725532532,0.7501181960105896,0.15915822982788086
1772701775160210000,2.2612099609375,0.392005056142807,1.03724205493927,0.03176591917872429
1772701775170258000,2.2712578125,0.2981560528278351,1.409190058708191,-0.22244851291179657
1772701775180307000,2.281306884765625,-0.009095227345824242,1.212275743484497,-0.8157720565795898
1772701775190355700,2.291355712890625,-0.018878616392612457,0.9097850918769836,-1.3671129941940308
1772701775200404200,2.301404296875,0.4478209316730499,1.548902153968811,-1.4572687149047852
1772701775210453000,2.311452880859375,0.4032292068004608,2.5050106048583984,-1.2445976734161377
1772701775220501200,2.321501220703125,0.3714742064476013,2.1986656188964844,-1.3631086349487305
1772701775230550000,2.331550048828125,0.27677807211875916,0.7591553926467896,-1.6207633018493652
1772701775240599000,2.34159912109375,0.2445889711380005,-0.32034313678741455,-1.6508983373641968
1772701775250647000,2.35164697265625,0.2678391635417938,-0.762269139289856,-1.5177557468414307
1772701775260696000,2.361696044921875,0.25834259390830994,-0.6195258498191833,-1.2898701429367065
1772701775270744000,2.371744140625,0.17283941805362701,-0.21226884424686432,-0.9425827264785767
1772701775280793000,2.38179296875,0.11536227911710739,0.19730214774608612,-0.5299615859985352
1772701775290842000,2.391842041015625,0.09173817932605743,0.6777207255363464,-0.09340398013591766
1772701775300890000,2.40189013671875,0.09082897007465363,1.2376407384872437,0.29698267579078674
1772701775310939100,2.411939208984375,0.07651101797819138,1.3433847427368164,0.43479299545288086
1772701775320987100,2.421987060546875,0.0595829039812088,1.1363903284072876,0.46866655349731445
1772701775331036200,2.4320361328125,0.04105209559202194,0.7988330125808716,0.42006412148475647
1772701775341085200,2.442085205078125,-0.08177874982357025,0.46424010396003723,0.259459525346756
1772701775351133200,2.45213330078125,-0.2921293377876282,0.4261515736579895,0.0652591660618782
1772701775361182200,2.46218212890625,-0.5212914347648621,0.7758336663246155,-0.08276624977588654
1772701775371230200,2.472230224609375,-0.7297463417053223,1.2215576171875,-0.13105762004852295
1772701775381279200,2.482279296875,-0.846926748752594,1.555701732635498,-0.0755152627825737
1772701775391328000,2.492327880859375,-0.8208664059638977,1.7930091619491577,0.05339238420128822
1772701775401376300,2.502376220703125,-0.6946616172790527,1.8504178524017334,0.18858695030212402
1772701775411425000,2.512425048828125,-0.5043965578079224,1.7825897932052612,0.3036128878593445
1772701775421473000,2.52247314453125,-0.2709769010543823,1.609850287437439,0.4343107044696808
1772701775431522000,2.53252197265625,0.021694643422961235,1.295130968093872,0.6949308514595032
1772701775441571300,2.5425712890625,0.40483030676841736,0.7476508021354675,1.0474982261657715
1772701775451619000,2.552619140625,0.7848500609397888,-0.15799230337142944,1.3728296756744385
1772701775461668400,2.56266845703125,0.7225291728973389,-1.9310439825057983,1.1016820669174194
1772701775471716000,2.572716064453125,-0.3774847090244293,-4.007262229919434,-0.6541948914527893
1772701775481765000,2.58276513671875,-1.0605026483535767,-2.9738025665283203,-0.6608945727348328
1772701775491814100,2.592814208984375,-0.7927833795547485,-0.5737373232841492,-0.24009010195732117
1772701775501862100,2.602862060546875,-0.4798835217952728,1.2317492961883545,-0.24237562716007233
1772701775511911200,2.6129111328125,-0.4345485270023346,1.5470683574676514,-0.1872686892747879
1772701775521959200,2.622959228515625,-0.40447157621383667,1.0845097303390503,0.057847585529088974
1772701775532008200,2.63300830078125,-0.3144676685333252,0.6279726028442383,0.36408981680870056
1772701775542057000,2.643056884765625,-0.28983473777770996,0.5643230080604553,0.7076101303100586
1772701775552105200,2.653105224609375,-0.24712537229061127,0.5007805228233337,0.9547914266586304
1772701775562154000,2.663154052734375,-0.2154124528169632,0.2816213071346283,1.119720220565796
1772701775572203300,2.673203369140625,-0.16030311584472656,-0.05765317752957344,1.2321261167526245
1772701775582251000,2.6832509765625,-0.09197679162025452,-0.43591180443763733,1.238816261291504
1772701775592300300,2.69330029296875,-0.08722677826881409,-0.8150404691696167,1.1335678100585938
1772701775602348000,2.70334814453125,0.0107120331376791,-1.144605040550232,1.0118848085403442
1772701775612397300,2.713397216796875,0.15278048813343048,-1.2799303531646729,0.8705924153327942
1772701775622446000,2.723446044921875,0.16212205588817596,-1.302380084991455,0.722061276435852
1772701775632494300,2.733494384765625,0.15609639883041382,-1.4655945301055908,0.6690046787261963
1772701775642543000,2.743543212890625,0.2508663237094879,-1.8412631750106812,0.7777493000030518
1772701775652591000,2.753591064453125,0.33390581607818604,-2.201976776123047,1.0387353897094727
1772701775662640000,2.76364013671875,0.3241429328918457,-2.3926172256469727,1.2932789325714111
1772701775672689200,2.773689208984375,0.2627336084842682,-2.3269200325012207,1.4428242444992065
1772701775682737200,2.783737060546875,0.19815516471862793,-2.048795461654663,1.4629074335098267
1772701775692786200,2.7937861328125,0.17489084601402283,-1.7898602485656738,1.3876008987426758
1772701775702834200,2.803834228515625,0.12723784148693085,-1.6384971141815186,1.2690529823303223
1772701775712883200,2.81388330078125,0.08074837177991867,-1.554667353630066,1.1742888689041138
1772701775722932200,2.82393212890625,0.05263471603393555,-1.4811700582504272,1.153727412223816
1772701775732980200,2.833980224609375,0.016599217429757118,-1.3944114446640015,1.151041865348816
1772701775743029000,2.844029052734375,-0.026158899068832397,-1.314145565032959,1.108436107635498
1772701775753077000,2.854076904296875,-0.09552092850208282,-1.3431769609451294,1.0011956691741943
1772701775763126000,2.8641259765625,-0.19204001128673553,-1.341486930847168,0.8052490949630737
1772701775773175300,2.87417529296875,-0.28725573420524597,-1.2089009284973145,0.5196868777275085
1772701775783223000,2.88422314453125,-0.36703845858573914,-0.9960379600524902,0.20443090796470642
1772701775793272000,2.89427197265625,-0.44242987036705017,-0.8379617929458618,-0.10439164936542511
1772701775803320000,2.904320068359375,-0.4912980794906616,-0.7111223340034485,-0.38340145349502563
1772701775813369000,2.914369140625,-0.49703532457351685,-0.45349106192588806,-0.5942884087562561
1772701775823418000,2.924418212890625,-0.4638715386390686,-0.2940446734428406,-0.796477735042572
1772701775833466000,2.934466064453125,-0.40873849391937256,-0.27841565012931824,-0.9519059062004089
1772701775843515100,2.94451513671875,-0.3689141273498535,-0.318856805562973,-1.1171308755874634
1772701775853563100,2.954563232421875,-0.34987810254096985,-0.24092313647270203,-1.2617626190185547
1772701775863612200,2.964612060546875,-0.2320774495601654,-0.10082940757274628,-1.3303560018539429
1772701775873661000,2.974660888671875,-0.11568265408277512,0.032452214509248734,-1.3442091941833496
1772701775883709200,2.984709228515625,0.005400624126195908,0.16104774177074432,-1.2508563995361328
1772701775893758000,2.994758056640625,0.15705406665802002,0.33940789103507996,-1.0431567430496216
1772701775903807200,3.00480712890625,0.2862458825111389,0.6896032094955444,-0.7485474944114685
1772701775913855000,3.01485498046875,0.417597234249115,1.0731348991394043,-0.41291913390159607
1772701775923904300,3.024904296875,0.5253588557243347,1.3904918432235718,-0.12276160717010498
1772701775933952000,3.034951904296875,0.6193165183067322,1.5836894512176514,0.08205598592758179
1772701775944001300,3.045001220703125,0.6858715415000916,1.6232962608337402,0.1958552598953247
1772701775954050000,3.055050048828125,0.7129119634628296,1.514317274093628,0.21981652081012726
1772701775964098300,3.065098388671875,0.7076290845870972,1.327653408050537,0.17962941527366638
1772701775974147000,3.07514697265625,0.6721006035804749,1.0887879133224487,0.09775345772504807
1772701775984195300,3.0851953125,0.6228300333023071,0.882328450679779,0.017599234357476234
1772701775994244000,3.095244140625,0.5759133696556091,0.7456611394882202,-0.048631452023983
1772701776004293000,3.105293212890625,0.5301131010055542,0.672378659248352,-0.09097171574831009
1772701776014341000,3.115341064453125,0.4978175163269043,0.6864122152328491,-0.13067226111888885
1772701776024390100,3.12539013671875,0.4628070592880249,0.7641128301620483,-0.18986447155475616
1772701776034438100,3.135438232421875,0.43998003005981445,0.859695553779602,-0.2797064781188965
1772701776044487200,3.145487060546875,0.39922142028808594,0.8921288847923279,-0.3906923830509186
1772701776054536200,3.1555361328125,0.3433810770511627,0.7793921828269958,-0.5108046531677246
1772701776064584000,3.165583984375,0.29485800862312317,0.5827688574790955,-0.627625048160553
1772701776074633200,3.17563330078125,0.27098169922828674,0.4026835262775421,-0.726701021194458
1772701776084681000,3.185680908203125,0.24599698185920715,0.26026833057403564,-0.8105285167694092
1772701776094730200,3.195730224609375,0.24563905596733093,0.1870386004447937,-0.8989995718002319
1772701776104779300,3.205779296875,0.2548879384994507,0.24816612899303436,-0.9487969279289246
1772701776114827300,3.2158271484375,0.2524181306362152,0.31560882925987244,-0.9392175674438477
1772701776124876000,3.2258759765625,0.21234847605228424,0.32061102986335754,-0.9262365102767944
1772701776134924300,3.23592431640625,0.17054244875907898,0.29501351714134216,-0.9617193937301636
1772701776144973000,3.24597314453125,0.0961289256811142,0.3555469214916229,-1.1458444595336914
1772701776155022000,3.25602197265625,0.036143090575933456,0.7601016163825989,-1.3941267728805542
1772701776165070000,3.266070068359375,0.08970032632350922,1.5420656204223633,-1.7160097360610962
1772701776175119000,3.276119140625,0.38883429765701294,2.448925256729126,-2.044276714324951
1772701776185168100,3.286168212890625,0.8142625689506531,2.99334979057312,-1.9476679563522339
1772701776195216100,3.296216064453125,0.9642707109451294,2.169297456741333,-1.5002890825271606
1772701776205265400,3.306265380859375,0.46273621916770935,1.5206676721572876,-1.275818943977356
1772701776215313200,3.316313232421875,0.028392493724822998,0.8985130190849304,-1.0600494146347046
1772701776225362200,3.326362060546875,-0.07357488572597504,0.8031837940216064,-0.8119978308677673
1772701776235411500,3.336411376953125,0.27618658542633057,0.9007226228713989,-0.5753769874572754
1772701776245459200,3.346459228515625,0.3115685284137726,0.5240944027900696,-0.5949943661689758
1772701776255508200,3.35650830078125,0.2768270671367645,-0.08883053809404373,-0.5266227722167969
1772701776265556200,3.36655615234375,0.2882251441478729,-0.7178366780281067,-0.2643357813358307
1772701776275605200,3.376605224609375,0.2525874972343445,-1.234427571296692,0.10505104809999466
1772701776285654300,3.386654296875,0.11294759064912796,-1.5412226915359497,0.5574758052825928
1772701776295702300,3.396702392578125,-0.0787411481142044,-1.633191466331482,0.9518337249755859
1772701776305751300,3.406751220703125,-0.22348742187023163,-1.5275793075561523,1.2500537633895874
1772701776315799300,3.41679931640625,-0.32881757616996765,-1.4014801979064941,1.4826856851577759
1772701776325848300,3.426848388671875,-0.5141469240188599,-1.5151517391204834,1.6100382804870605
1772701776335897000,3.43689697265625,-0.59900963306427,-1.6655234098434448,1.6511707305908203
1772701776345945300,3.4469453125,-0.46966949105262756,-1.6981449127197266,1.6216070652008057
1772701776355994000,3.456994140625,-0.1466304510831833,-1.5994726419448853,1.5482861995697021
1772701776366043400,3.46704345703125,0.2563159465789795,-1.299933671951294,1.4830245971679688
1772701776376091100,3.477091064453125,0.5442273616790771,-0.8401085138320923,1.4072505235671997
1772701776386140400,3.487140380859375,0.6838582158088684,-0.2839811146259308,1.2459896802902222
1772701776396188200,3.497188232421875,0.6791694760322571,0.31456857919692993,0.9819748401641846
1772701776406237400,3.507237548828125,0.5270699262619019,0.7875680923461914,0.5519585013389587
1772701776416286200,3.5172861328125,0.3141462206840515,1.0587029457092285,-0.049551039934158325
1772701776426334500,3.52733447265625,0.09599523991346359,1.1923097372055054,-0.6445510387420654
1772701776436383200,3.53738330078125,-0.12268383800983429,1.1434756517410278,-1.1885008811950684
1772701776446431500,3.547431396484375,-0.3343380391597748,0.9485889673233032,-1.63804030418396
1772701776456480300,3.557480224609375,-0.5019528865814209,0.6596226692199707,-1.9559682607650757
1772701776466529300,3.567529296875,-0.5932721495628357,0.30697140097618103,-2.1010873317718506
1772701776476577300,3.577577392578125,-0.5862317681312561,-0.05931871756911278,-1.9939483404159546
1772701776486626300,3.587626220703125,-0.4932131767272949,0.4432442784309387,-1.3697004318237305
1772701776496674300,3.59767431640625,-0.32020676136016846,1.5261117219924927,-0.41984841227531433
1772701776506723300,3.607723388671875,-0.19567549228668213,2.0094008445739746,0.3846811056137085
1772701776516772400,3.6177724609375,-0.2618497312068939,1.4723552465438843,0.7408512234687805
1772701776526820400,3.6278203125,-0.4641468822956085,0.7471421360969543,0.6739227771759033
1772701776536869400,3.637869384765625,-0.6733355522155762,0.35201501846313477,0.2951112687587738
1772701776546917000,3.647917236328125,-0.8375758528709412,0.7092799544334412,-0.18596693873405457
1772701776556966400,3.65796630859375,-0.7913529872894287,1.127788782119751,-0.3108779788017273
1772701776567015400,3.668015380859375,-0.5457535982131958,0.9162675142288208,-0.23843707144260406
1772701776577063400,3.6780634765625,-0.24776984751224518,0.447891503572464,-0.3780341148376465
1772701776587112200,3.6881123046875,0.04459383338689804,0.017122527584433556,-0.6590825915336609
1772701776597161200,3.6981611328125,0.22817857563495636,-0.341011643409729,-0.8966525197029114
1772701776607209200,3.708209228515625,0.21502628922462463,-0.6467545032501221,-0.8476394414901733
1772701776617258200,3.71825830078125,0.007900266908109188,-1.0206594467163086,-0.6067125797271729
1772701776627306200,3.72830615234375,-0.1932421624660492,-1.5823999643325806,-0.4017793834209442
1772701776637355300,3.738355224609375,-0.31298133730888367,-1.9293829202651978,-0.3801289498806
1772701776647404300,3.748404296875,-0.4651778042316437,-1.970901608467102,-0.38770803809165955
1772701776657452300,3.758452392578125,-0.571588933467865,-2.1433470249176025,-0.18682794272899628
1772701776667501300,3.768501220703125,-0.7088969945907593,-2.555523633956909,0.14959481358528137
1772701776677549300,3.77854931640625,-0.801942765712738,-2.8147659301757812,0.5764063000679016
1772701776687598300,3.788598388671875,-0.7157919406890869,-2.431835651397705,0.770935595035553
1772701776697647400,3.7986474609375,-0.528850257396698,-1.6994019746780396,0.7510620355606079
1772701776707695400,3.8086953125,-0.4005359709262848,-1.039253830909729,0.5798007845878601
1772701776717744400,3.818744384765625,-0.4385280907154083,-0.6021479368209839,0.22214172780513763
1772701776727793200,3.828793212890625,-0.5005661845207214,-0.4730197489261627,-0.11200536042451859
1772701776737841400,3.83884130859375,-0.4709848165512085,-0.4113076627254486,-0.2843252122402191
1772701776747890200,3.84889013671875,-0.4243110716342926,-0.3909038305282593,-0.4182784855365753
1772701776757938400,3.8589384765625,-0.44398757815361023,-0.41247251629829407,-0.5165400505065918
1772701776767987200,3.8689873046875,-0.5060759782791138,-0.4338345229625702,-0.5121578574180603
1772701776778036500,3.879036376953125,-0.5936441421508789,-0.47995463013648987,-0.3815326988697052
1772701776788084200,3.889084228515625,-0.6556577086448669,-0.4231797456741333,-0.21343638002872467
1772701776798133200,3.89913330078125,-0.6871671676635742,-0.12254641950130463,-0.06364475935697556
1772701776808181200,3.90918115234375,-0.7051190137863159,0.46667903661727905,-0.01465697307139635
1772701776818230300,3.919230224609375,-0.7276118397712708,1.058082103729248,-0.05916371941566467
1772701776828279300,3.929279296875,-0.7271665334701538,1.3011488914489746,-0.22914184629917145
1772701776838327300,3.939327392578125,-0.6780107021331787,1.3201707601547241,-0.38362088799476624
1772701776848376300,3.949376220703125,-0.5411436557769775,1.134586215019226,-0.5251790881156921
1772701776858424000,3.959424072265625,-0.3514578938484192,0.7701103091239929,-0.5472441911697388
1772701776868473300,3.969473388671875,-0.1532404124736786,0.2818748354911804,-0.42955830693244934
1772701776878522400,3.9795224609375,-0.007751662749797106,-0.23693051934242249,-0.18181000649929047
1772701776888570400,3.9895703125,0.12792707979679108,-0.7113918662071228,0.11055074632167816
1772701776898619400,3.999619384765625,0.22887977957725525,-0.941964328289032,0.34423327445983887
1772701776908668200,4.009668212890625,0.3007949888706207,-0.6592317223548889,0.4846356511116028
1772701776918716200,4.019716064453125,0.4003165066242218,-0.10454265773296356,0.5823137760162354
1772701776928765200,4.02976513671875,0.49585822224617004,0.3458671271800995,0.6454072594642639
1772701776938813200,4.039813232421875,0.5539771914482117,0.7353943586349487,0.6972978711128235
1772701776948862200,4.0498623046875,0.5601413249969482,1.0395660400390625,0.7360471487045288
1772701776958911500,4.059911376953125,0.5467144846916199,1.239784836769104,0.7598046660423279
1772701776968959200,4.069959228515625,0.5018199682235718,1.3151315450668335,0.7702319622039795
1772701776979008300,4.08000830078125,0.3974642753601074,1.227705478668213,0.7432852983474731
1772701776989056300,4.09005615234375,0.2631285786628723,0.9886511564254761,0.705639660358429
1772701776999105300,4.100105224609375,0.14078880846500397,0.7048018574714661,0.6755451560020447
1772701777009154300,4.110154296875,0.018821891397237778,0.38941165804862976,0.6283526420593262
1772701777019202300,4.120202392578125,-0.06909944117069244,0.17024150490760803,0.5774433612823486
1772701777029251300,4.130251220703125,-0.08759616315364838,0.12691746652126312,0.5455203056335449
1772701777039299300,4.14029931640625,-0.08254174888134003,0.1666259914636612,0.46744948625564575
1772701777049348400,4.150348388671875,-0.09802643209695816,0.25067242980003357,0.34660348296165466
1772701777059397000,4.160397216796875,-0.09932472556829453,0.3845735192298889,0.22891680896282196
1772701777069445400,4.1704453125,-0.11385892331600189,0.512561023235321,0.11849282681941986
1772701777079494100,4.180494140625,-0.15225665271282196,0.6141161322593689,0.00726457079872489
1772701777089543400,4.19054345703125,-0.20833216607570648,0.7206553816795349,-0.08650080114603043
1772701777099591200,4.200591064453125,-0.27367573976516724,0.7867534160614014,-0.1884671151638031
1772701777109640400,4.210640380859375,-0.3498232364654541,0.8606129884719849,-0.27187439799308777
1772701777119688200,4.220688232421875,-0.3913283348083496,1.0008236169815063,-0.33558571338653564
1772701777129737500,4.230737548828125,-0.3855474293231964,1.1571173667907715,-0.43534401059150696
1772701777139786200,4.2407861328125,-0.3016330897808075,1.3062856197357178,-0.5727319717407227
1772701777149834500,4.25083447265625,-0.182215616106987,1.606485366821289,-0.7573830485343933
1772701777159883300,4.26088330078125,0.06190677732229233,2.0453028678894043,-0.947330892086029
1772701777169931500,4.270931640625,0.5005147457122803,2.2677597999572754,-1.0615178346633911
1772701777179980300,4.280980224609375,0.938752293586731,0.4948028028011322,-0.8756721019744873
1772701777190029300,4.291029296875,0.920221745967865,-5.702880382537842,-0.013225258328020573
1772701777200077000,4.3010771484375,-0.11413030326366425,-6.6028618812561035,0.2662721574306488
1772701777210126000,4.3111259765625,-0.16997572779655457,-2.0750114917755127,-0.35555917024612427
1772701777220175000,4.321175048828125,0.13871553540229797,1.9094305038452148,-0.6156290769577026
1772701777230222800,4.331222900390625,0.09470067918300629,1.8739346265792847,-0.10490191727876663
1772701777240272100,4.341272216796875,-0.03606665879487991,-0.506873607635498,0.13791047036647797
1772701777250320000,4.35131982421875,-0.08177715539932251,-1.061354160308838,0.2485051453113556
1772701777260369200,4.361369140625,-0.11020799726247787,-0.5038013458251953,0.4571387767791748
1772701777270418200,4.371418212890625,-0.1674065738916397,0.19516390562057495,0.8821625113487244
1772701777280466200,4.381466064453125,-0.28707757592201233,0.8263916373252869,1.3022516965866089
1772701777290515000,4.391514892578125,-0.32997071743011475,1.0379979610443115,1.445326566696167
1772701777300563200,4.401563232421875,-0.32962530851364136,0.8982338905334473,1.2705992460250854
1772701777310612000,4.411612060546875,-0.25821131467819214,0.519136905670166,0.8925608396530151
1772701777320661000,4.421660888671875,-0.09724798798561096,0.07273519039154053,0.47148042917251587
1772701777330709000,4.431708984375,0.1177053302526474,-0.32283928990364075,0.10565531998872757
1772701777340758000,4.441758056640625,0.3496544063091278,-0.5805619359016418,-0.18058468401432037
1772701777350807000,4.45180712890625,0.5542400479316711,-0.6542348265647888,-0.3624389171600342
1772701777360855000,4.46185498046875,0.6777119040489197,-0.5723836421966553,-0.48669642210006714
1772701777370904000,4.471904052734375,0.71848064661026,-0.49918878078460693,-0.5549436211585999
1772701777380952000,4.4819521484375,0.6996997594833374,-0.46212688088417053,-0.5550107359886169
1772701777391001000,4.4920009765625,0.5869351625442505,-0.4195570647716522,-0.5342903137207031
1772701777401050000,4.502050048828125,0.33864089846611023,-0.543857991695404,-0.5311078429222107
1772701777411098000,4.51209814453125,0.04707616567611694,-0.8463110327720642,-0.581963837146759
1772701777421147100,4.522147216796875,-0.11248340457677841,-1.09123957157135,-0.6614195108413696
1772701777431195100,4.532195068359375,-0.020244019106030464,-0.5138894319534302,-0.6052348017692566
1772701777441244200,4.542244140625,0.23606525361537933,0.48539280891418457,-0.5406584739685059
1772701777451293000,4.55229296875,0.4028441309928894,1.4098478555679321,-0.4707030653953552
1772701777461341200,4.562341064453125,0.3947390615940094,1.8892898559570312,-0.41731229424476624
1772701777471390000,4.572389892578125,0.2292795330286026,1.748304843902588,-0.39858493208885193
1772701777481439200,4.582439208984375,0.03520379215478897,1.5031496286392212,-0.32831236720085144
1772701777491487000,4.592487060546875,-0.11083011329174042,1.6657058000564575,-0.10746307671070099
1772701777501536300,4.602536376953125,-0.12120898067951202,2.1698081493377686,0.27947506308555603
1772701777511584000,4.612583984375,-0.08274254947900772,2.3019275665283203,0.6914636492729187
1772701777521633000,4.622633056640625,-0.1362992525100708,1.6321581602096558,0.9622893333435059
1772701777531682000,4.63268212890625,-0.36093875765800476,0.7758454084396362,1.0700184106826782
1772701777541730000,4.64272998046875,-0.7273250222206116,0.25252360105514526,1.0537174940109253
1772701777551779000,4.652779052734375,-1.0787162780761719,-0.10521430522203445,0.7544831037521362
1772701777561827000,4.6628271484375,-1.1116503477096558,0.21869638562202454,0.6130127906799316
1772701777571876000,4.6728759765625,-0.6877768039703369,1.4547789096832275,0.906984269618988
1772701777581925000,4.682925048828125,-0.3609267771244049,1.7660428285598755,1.0950276851654053
1772701777591973000,4.69297314453125,-0.10297778248786926,1.4216747283935547,1.0933727025985718
1772701777602022100,4.703022216796875,0.15501461923122406,0.7326452136039734,0.9198939204216003
1772701777612071000,4.71307080078125,0.4325554072856903,-0.13682256639003754,0.6309172511100769
1772701777622119000,4.723118896484375,0.6410244703292847,-0.9586887359619141,0.3319654166698456
1772701777632168000,4.73316796875,0.35807159543037415,-1.4262561798095703,0.2633890211582184
1772701777642216000,4.7432158203125,0.13400094211101532,-1.7784792184829712,0.26822319626808167
1772701777652265000,4.753264892578125,0.0712675228714943,-2.1023712158203125,0.2754691243171692
1772701777662314000,4.76331396484375,0.09562372416257858,-2.4158761501312256,0.21794484555721283
1772701777672362000,4.773362060546875,0.24418550729751587,-2.721332550048828,0.14738412201404572
1772701777682411000,4.783410888671875,0.4570959210395813,-3.017174243927002,0.1592482477426529
1772701777692460000,4.7934599609375,0.545591413974762,-3.340451717376709,0.3084228038787842
1772701777702508000,4.803508056640625,0.5018343329429626,-3.5280561447143555,0.5218722224235535
1772701777712557000,4.81355712890625,0.3720739483833313,-3.4314582347869873,0.6988925337791443
1772701777722605000,4.82360498046875,0.06375420838594437,-2.988969087600708,0.7162529230117798
1772701777732654000,4.833654052734375,-0.3144969642162323,-2.4698874950408936,0.5162479281425476
1772701777742702800,4.843702880859375,-0.6888018250465393,-1.9296410083770752,0.08373590558767319
1772701777752751000,4.853751220703125,-1.0164132118225098,-1.3628593683242798,-0.2993486225605011
1772701777762799900,4.8637998046875,-1.2217494249343872,-1.2277002334594727,-0.1713525801897049
1772701777772848000,4.87384814453125,-1.3349539041519165,-1.4409855604171753,0.34440159797668457
1772701777782897000,4.88389697265625,-1.3300974369049072,-1.4731680154800415,0.8309792280197144
1772701777792946200,4.8939462890625,-1.169924020767212,-1.3132319450378418,1.2114323377609253
1772701777802994000,4.903993896484375,-0.9237973093986511,-0.8984818458557129,1.6403412818908691
1772701777813043200,4.914043212890625,-0.6720516085624695,-0.4679411053657532,1.975218653678894
1772701777823092000,4.924092041015625,-0.4162299633026123,-0.3604103922843933,2.00395131111145
1772701777833140200,4.93414013671875,-0.1822262704372406,-0.24654719233512878,1.8889719247817993
1772701777843189000,4.94418896484375,0.05618790537118912,-0.018216554075479507,1.6975833177566528
1772701777853237200,4.9542373046875,0.27013668417930603,0.3217921555042267,1.4943242073059082
1772701777863286000,4.9642861328125,0.4817109704017639,0.729243814945221,1.282226800918579
1772701777873335000,4.9743349609375,0.6905605792999268,1.0920209884643555,1.0882941484451294
1772701777883383000,4.984383056640625,0.7928012013435364,1.3143419027328491,0.8591930270195007
1772701777893432000,4.99443212890625,0.7636063098907471,1.3754334449768066,0.6232132315635681
1772701777903481000,5.004481201171875,0.7153101563453674,1.1653926372528076,0.41954267024993896
1772701777913529000,5.014529052734375,0.6756535768508911,0.8223223686218262,0.19288823008537292
1772701777923578000,5.024578125,0.6062012314796448,0.3985002338886261,-0.057078734040260315
1772701777933625900,5.0346259765625,0.4653424024581909,0.07552485167980194,-0.27643293142318726
1772701777943675100,5.044675048828125,0.3062424957752228,-0.031012244522571564,-0.4447662830352783
1772701777953724200,5.05472412109375,0.16156066954135895,0.066414974629879,-0.5610827803611755
1772701777963772200,5.064772216796875,0.005931925028562546,0.3633230924606323,-0.5682714581489563
1772701777973821200,5.0748212890625,-0.06918039917945862,0.7217179536819458,-0.45527032017707825
1772701777983869200,5.084869140625,-0.07394932210445404,0.8630378246307373,-0.3309726119041443
1772701777993918000,5.09491796875,-0.04442419111728668,0.8683928847312927,-0.24069996178150177
1772701778003967000,5.104967041015625,0.009641707874834538,0.8108651638031006,-0.1818627417087555
1772701778014015000,5.115014892578125,0.08070389926433563,0.6559435129165649,-0.1354835331439972
1772701778024064000,5.12506396484375,0.15210138261318207,0.42086413502693176,-0.0881706029176712
1772701778034113300,5.13511328125,0.18509875237941742,0.15654459595680237,-0.07471685111522675
1772701778044161000,5.1451611328125,0.19223229587078094,-0.02738182246685028,-0.11550822108983994
1772701778054210000,5.1552099609375,0.1626131534576416,0.010603642091155052,-0.17841660976409912
1772701778064258000,5.165258056640625,0.12128381431102753,0.2961392402648926,-0.19851629436016083
1772701778074307000,5.17530712890625,0.09961740672588348,0.6571493744850159,-0.1958981305360794
1772701778084356000,5.185356201171875,0.09421838074922562,0.9462450742721558,-0.2009192556142807
1772701778094404000,5.195404052734375,0.07935713976621628,1.0144414901733398,-0.2638731896877289
1772701778104453000,5.205453125,0.06057626008987427,0.9314600229263306,-0.32802900671958923
1772701778114501000,5.215501220703125,0.027269437909126282,0.8189347982406616,-0.4347016513347626
1772701778124550100,5.225550048828125,0.005654157139360905,0.6830959916114807,-0.5745484828948975
1772701778134599000,5.235598876953125,-0.0014535533264279366,0.5106757879257202,-0.7044116854667664
1772701778144647200,5.245647216796875,0.015530756674706936,0.30570054054260254,-0.8028205633163452
1772701778154696000,5.255696044921875,0.003564641112461686,0.15060921013355255,-0.8488120436668396
1772701778164745200,5.2657451171875,0.02455993741750717,0.02725053019821644,-0.8466375470161438
1772701778174793000,5.27579296875,0.07460712641477585,-0.10223103314638138,-0.8149906992912292
1772701778184842000,5.285842041015625,0.11817856878042221,-0.27132871747016907,-0.7571033835411072
1772701778194890000,5.295889892578125,0.14642752707004547,-0.4630957543849945,-0.6813458204269409
1772701778204938500,5.3059384765625,0.17263062298297882,-0.7234594225883484,-0.5836165547370911
1772701778214986500,5.315986572265625,0.20795106887817383,-1.104305624961853,-0.4927825331687927
1772701778225035500,5.326035400390625,0.2569960951805115,-1.6780955791473389,-0.42929622530937195
1772701778235084500,5.33608447265625,0.33822011947631836,-2.435558557510376,-0.4660654366016388
1772701778245132500,5.346132568359375,0.49397245049476624,-3.489661455154419,-0.54902583360672
1772701778255181600,5.356181640625,0.7240431904792786,-4.549595355987549,-0.8047095537185669
1772701778265230300,5.366230224609375,0.8775853514671326,-4.450564861297607,-1.4854334592819214
1772701778275278600,5.376278564453125,0.7527337074279785,-2.7148401737213135,-1.8368802070617676
1772701778285327400,5.386327392578125,0.6672224998474121,-0.699200451374054,-1.3223241567611694
1772701778295375600,5.396375732421875,0.6978230476379395,0.1612277776002884,-0.9228883981704712
1772701778305424400,5.40642431640625,0.7157375812530518,0.10720554739236832,-1.143845796585083
1772701778315473700,5.4164736328125,0.7069272994995117,-0.043595414608716965,-1.3047505617141724
1772701778325521400,5.426521484375,0.43451231718063354,0.39487355947494507,-1.0695127248764038
1772701778335570700,5.43657080078125,0.16098329424858093,1.1348975896835327,-0.6421751976013184
1772701778345619500,5.446619384765625,0.024574318900704384,1.7340435981750488,-0.25159281492233276
1772701778355667700,5.456667724609375,-0.06027772277593613,2.081660270690918,0.12584927678108215
1772701778365716500,5.466716552734375,-0.0437362939119339,2.1595489978790283,0.44739001989364624
1772701778375764700,5.4767646484375,0.05362860858440399,2.0097968578338623,0.6030291318893433
1772701778385813500,5.4868134765625,0.1803910732269287,1.7833833694458008,0.6548982262611389
1772701778395862500,5.496862548828125,0.2527262568473816,1.3881239891052246,0.5922271013259888
1772701778405910500,5.50691064453125,0.21705268323421478,0.8464865684509277,0.48699840903282166
1772701778415959600,5.51695947265625,0.15426386892795563,0.4561590254306793,0.471353679895401
1772701778426007600,5.527007568359375,0.12811721861362457,0.24627262353897095,0.4973661005496979
1772701778436056600,5.537056640625,0.13646569848060608,0.1798911988735199,0.4871182441711426
1772701778446105600,5.547105712890625,0.2353227734565735,0.3194024860858917,0.4185466468334198
1772701778456153300,5.5571533203125,0.37129151821136475,0.6780895590782166,0.289343923330307
1772701778466202600,5.56720263671875,0.4452650845050812,1.1160085201263428,0.02905908226966858
1772701778476251600,5.577251708984375,0.38062724471092224,1.4568039178848267,-0.34802746772766113
1772701778486299400,5.58729931640625,0.18826711177825928,1.666212797164917,-0.7547007203102112
1772701778496348700,5.5973486328125,-0.02708248421549797,1.7667338848114014,-1.1147241592407227
1772701778506397400,5.6073974609375,-0.22413402795791626,1.7350726127624512,-1.42387855052948
1772701778516445400,5.617445556640625,-0.3747009038925171,1.5859475135803223,-1.7622944116592407
1772701778526494500,5.627494384765625,-0.4318486154079437,1.30224609375,-2.044351100921631
1772701778536542500,5.63754248046875,-0.3567506670951843,1.2172768115997314,-2.1369378566741943
1772701778546591500,5.647591552734375,-0.22912639379501343,1.517720103263855,-2.0055317878723145
1772701778556640500,5.657640625,-0.09490307420492172,2.0123112201690674,-1.7319899797439575
1772701778566688500,5.6676884765625,0.030610106885433197,2.5333523750305176,-1.361106514930725
1772701778576737300,5.6777373046875,0.167850524187088,3.021440029144287,-0.9508355855941772
1772701778586786600,5.68778662109375,0.3085258901119232,3.302811622619629,-0.5402464866638184
1772701778596834300,5.697834228515625,0.4454546868801117,2.996952533721924,-0.020854948088526726
1772701778606883600,5.707883544921875,0.608726441860199,2.1152448654174805,0.7193911671638489
1772701778616931300,5.717931396484375,0.7008057832717896,0.9550492167472839,1.4950804710388184
1772701778626980600,5.727980712890625,0.6370100378990173,-0.5139586329460144,2.0457000732421875
1772701778637029400,5.738029296875,0.4605140686035156,-2.001617908477783,2.4206929206848145
1772701778647077600,5.74807763671875,0.3220808207988739,-2.8182365894317627,3.01134991645813
1772701778657126400,5.75812646484375,0.13613253831863403,-2.6347978115081787,3.2564570903778076
1772701778667175400,5.768175537109375,-0.4156036078929901,-1.3997782468795776,2.1395153999328613
1772701778677223400,5.778223388671875,-0.5644567012786865,-0.1397262066602707,1.0364069938659668
1772701778687272400,5.7882724609375,-0.15885862708091736,0.09785518795251846,0.8427027463912964
1772701778697320400,5.798320556640625,-0.02105841413140297,-0.611865222454071,0.6015923619270325
1772701778707369500,5.808369384765625,-0.10622604191303253,-1.464308738708496,0.09524635970592499
1772701778717418500,5.81841845703125,-0.19610905647277832,-2.225672483444214,-0.23920592665672302
1772701778727466500,5.828466552734375,-0.3080880641937256,-2.8280587196350098,-0.37267157435417175
1772701778737515500,5.838515625,-0.32306328415870667,-3.4466497898101807,-0.4080050587654114
1772701778747564500,5.848564453125,-0.29692354798316956,-4.065278053283691,-0.3988586962223053
1772701778757612500,5.858612548828125,-0.299471914768219,-4.418752670288086,-0.3834555149078369
1772701778767661600,5.86866162109375,-0.3966783881187439,-4.304872512817383,-0.34683066606521606
1772701778777709600,5.87870947265625,-0.5073337554931641,-3.676330327987671,-0.33385252952575684
1772701778787758600,5.888758544921875,-0.5790976881980896,-2.7931175231933594,-0.35474345088005066
1772701778797807400,5.898807373046875,-0.5997598767280579,-1.8519537448883057,-0.4836689233779907
1772701778807855600,5.908855712890625,-0.5989704728126526,-1.143932580947876,-0.671046793460846
1772701778817904400,5.918904296875,-0.5530397295951843,-0.9891251921653748,-0.7936009764671326
1772701778827953700,5.92895361328125,-0.5120542049407959,-1.371801495552063,-0.7231931090354919
1772701778838001400,5.93900146484375,-0.4600927531719208,-1.749048113822937,-0.608651876449585
1772701778848050700,5.94905078125,-0.29651394486427307,-1.6364887952804565,-0.6017082333564758
1772701778858098400,5.959098388671875,-0.2272169142961502,-1.4382680654525757,-0.5966159701347351
1772701778868147700,5.969147705078125,-0.005594502668827772,-1.0286606550216675,-0.7725555896759033
1772701778878196500,5.979196533203125,0.03464346379041672,-0.8073782920837402,-0.9814965724945068
1772701778888244700,5.98924462890625,0.05172551050782204,-0.2706490755081177,-1.223293423652649
1772701778898293500,5.99929345703125,0.0916428342461586,0.5010899901390076,-1.3087420463562012
1772701778908342500,6.009342529296875,0.13503319025039673,1.2061493396759033,-1.1674320697784424
1772701778918390500,6.019390625,0.21089573204517365,1.7852803468704224,-0.9486331343650818
1772701778928439600,6.029439453125,0.2442113310098648,2.0755655765533447,-0.7277950644493103
1772701778938487600,6.039487548828125,0.3172250986099243,1.93929922580719,-0.5994892716407776
1772701778948536300,6.049536376953125,0.37411075830459595,1.4957337379455566,-0.5253588557243347
1772701778958585600,6.059585693359375,0.41826915740966797,0.9122439622879028,-0.3322834074497223
1772701778968633300,6.06963330078125,0.47713035345077515,0.30320167541503906,-0.11056192964315414
1772701778978682600,6.0796826171875,0.48925358057022095,-0.11205383390188217,0.05109700560569763
1772701778988731600,6.089731689453125,0.4649927020072937,-0.4060894548892975,0.2486415058374405
1772701778998779600,6.099779541015625,0.44703981280326843,-0.41466882824897766,0.343178391456604
1772701779008828400,6.109828369140625,0.48954254388809204,-0.11770719289779663,0.3482445180416107
1772701779018876700,6.119876708984375,0.6378244161605835,0.10615013539791107,0.4111388027667999
1772701779028925400,6.129925537109375,0.7562338709831238,0.24835574626922607,0.5388941168785095
1772701779038974500,6.139974365234375,0.825631320476532,0.35496023297309875,0.6870079636573792
1772701779049022500,6.1500224609375,0.8475291728973389,0.4214990437030792,0.8296700119972229
1772701779059071500,6.160071533203125,0.8542741537094116,0.4799911081790924,0.9435795545578003
1772701779069120500,6.17012060546875,0.8283384442329407,0.6771981716156006,0.9918623566627502
1772701779079168500,6.18016845703125,0.7862511873245239,0.992408037185669,0.99964439868927
1772701779089217500,6.190217529296875,0.7444230318069458,1.2189693450927734,0.9528571963310242
1772701779099265500,6.200265625,0.7075529098510742,1.300896406173706,0.8756018280982971
1772701779109314600,6.210314453125,0.683882474899292,1.2807797193527222,0.7816508412361145
1772701779119363600,6.220363525390625,0.6667673587799072,1.209150791168213,0.6696015000343323
1772701779129411600,6.23041162109375,0.6544638276100159,1.1189055442810059,0.5228773355484009
1772701779139460600,6.240460693359375,0.6231117844581604,1.0510149002075195,0.3355870544910431
1772701779149509400,6.25050927734375,0.5544094443321228,0.9896290302276611,0.14998416602611542
1772701779159557600,6.2605576171875,0.48546069860458374,0.9299827814102173,-0.01531743723899126
1772701779169606400,6.2706064453125,0.3873181641101837,0.8504661321640015,-0.18181587755680084
1772701779179654700,6.280654541015625,0.2920219898223877,0.6813660264015198,-0.36925020813941956
1772701779189703400,6.290703369140625,0.21646253764629364,0.4449359178543091,-0.5417466163635254
1772701779199752400,6.30075244140625,0.14442908763885498,0.2861042022705078,-0.6695724725723267
1772701779209801200,6.31080126953125,0.10152635723352432,0.27093642950057983,-0.7357118129730225
1772701779219850000,6.32085009765625,0.13593412935733795,0.34619149565696716,-0.7123817205429077
1772701779229899300,6.330899169921875,0.22958765923976898,0.3747493624687195,-0.5938084721565247
1772701779239947000,6.340947021484375,0.33299046754837036,0.2893114387989044,-0.42155948281288147
1772701779249996300,6.350996337890625,0.3339574635028839,0.19097235798835754,-0.32031330466270447
1772701779260045000,6.361045166015625,0.16331489384174347,0.27950647473335266,-0.35614213347435
1772701779270093300,6.37109326171875,-0.21888121962547302,0.5813227891921997,-0.5851337909698486
1772701779280142000,6.38114208984375,-0.7835919857025146,1.0847582817077637,-0.9288970232009888
1772701779290190300,6.3911904296875,-1.2826132774353027,1.9189915657043457,-1.11471688747406
1772701779300239000,6.401239013671875,-1.3532451391220093,3.9894354343414307,-0.8316473960876465
1772701779310288100,6.4112880859375,-0.7698245048522949,5.570437908172607,0.02491626888513565
1772701779320336100,6.421336181640625,-0.2333051562309265,3.525570869445801,0.8016027212142944
1772701779330385200,6.43138525390625,-0.5296965837478638,-0.492534339427948,1.0587761402130127
1772701779340434200,6.44143408203125,-0.9280951023101807,-2.313544511795044,1.5024497509002686
1772701779350482200,6.451482177734375,-1.3862805366516113,-1.96947181224823,2.0632872581481934
1772701779360531200,6.46153125,-1.362383246421814,-1.704986572265625,2.2934815883636475
1772701779370579200,6.4715791015625,-0.9432708621025085,-1.2500486373901367,1.8955999612808228
1772701779380628200,6.481628173828125,-0.6839621067047119,-0.886006772518158,1.4078338146209717
1772701779390677200,6.49167724609375,-0.48306864500045776,-0.6187777519226074,0.9805295467376709
1772701779400725200,6.501725341796875,-0.41685688495635986,-0.2886320650577545,0.583534836769104
1772701779410774300,6.511774169921875,-0.5032783150672913,-0.027308054268360138,0.16946066915988922
1772701779420823000,6.521822998046875,-0.5614145994186401,0.16130580008029938,-0.22855408489704132
1772701779430871300,6.531871337890625,-0.4674223065376282,0.5233252644538879,-0.6347112059593201
1772701779440920000,6.541920166015625,-0.40286222100257874,0.4937945306301117,-1.1537277698516846
1772701779450968000,6.551968017578125,-0.37003105878829956,0.3396097719669342,-1.5398958921432495
1772701779461017000,6.56201708984375,-0.37052133679389954,0.3753214180469513,-1.6474099159240723
1772701779471066000,6.572066162109375,-0.35863006114959717,0.540436327457428,-1.5219204425811768
1772701779481114000,6.582114013671875,-0.2991859018802643,0.7561646103858948,-1.280579924583435
1772701779491163100,6.5921630859375,-0.13230398297309875,0.9514619708061218,-1.0268440246582031
1772701779501212200,6.602212158203125,0.10265740007162094,1.1808408498764038,-0.7982244491577148
1772701779511260200,6.61226025390625,0.3046096861362457,1.391234278678894,-0.6213927268981934
1772701779521309200,6.62230908203125,0.3663739860057831,1.4951047897338867,-0.5138154029846191
1772701779531357000,6.63235693359375,0.32903939485549927,1.4069594144821167,-0.4526870548725128
1772701779541406200,6.64240625,0.2510591149330139,1.0691795349121094,-0.4419720768928528
1772701779551455000,6.652455078125,0.15448305010795593,0.5162622928619385,-0.48734143376350403
1772701779561503200,6.662503173828125,0.05137211084365845,-0.05706088989973068,-0.5161483287811279
1772701779571552000,6.672552001953125,-0.03850238397717476,-0.39651885628700256,-0.47495612502098083
1772701779581601000,6.68260107421875,-0.056901633739471436,-0.2839704751968384,-0.3512384593486786
1772701779591649000,6.69264892578125,-0.004968126770108938,0.1660454273223877,-0.2475711852312088
1772701779601698000,6.702697998046875,0.08549226075410843,0.8599496483802795,-0.20208492875099182
1772701779611747000,6.7127470703125,0.1308717280626297,1.62211275100708,-0.21143262088298798
1772701779621795000,6.722795166015625,0.13607874512672424,2.120014190673828,-0.194132462143898
1772701779631844000,6.732843994140625,0.16238172352313995,2.060360908508301,0.0008934905636124313
1772701779641892000,6.74289208984375,0.18673285841941833,1.6350942850112915,0.3445137143135071
1772701779651941000,6.752941162109375,0.17981849610805511,1.0266618728637695,0.721326470375061
1772701779661990100,6.762990234375,0.14522163569927216,0.43655362725257874,1.0641088485717773
1772701779672038100,6.7730380859375,0.12790895998477936,0.033010948449373245,1.3298630714416504
1772701779682087200,6.783087158203125,0.22565975785255432,-0.1240236759185791,1.3661680221557617
1772701779692136000,6.793135986328125,0.3250342905521393,-0.0014791196445003152,1.0153088569641113
1772701779702184200,6.80318408203125,0.4061073064804077,0.16548217833042145,0.6357311606407166
1772701779712233000,6.81323291015625,0.5192133188247681,0.3041478991508484,0.42817744612693787
1772701779722281200,6.82328125,0.5369819402694702,0.16065305471420288,0.4152944087982178
1772701779732330000,6.833330078125,0.343287855386734,-0.5577276945114136,0.5848722457885742
1772701779742379300,6.843379150390625,0.05210501328110695,-1.9276652336120605,0.8405823111534119
1772701779752427000,6.853427001953125,-0.3284127712249756,-2.6215882301330566,0.7197229862213135
1772701779762476300,6.863476318359375,-0.490517795085907,-2.687453269958496,0.42442452907562256
1772701779772525000,6.873525146484375,-0.3514416515827179,-2.6536993980407715,0.24503318965435028
1772701779782573300,6.8835732421875,-0.09625676274299622,-2.588184356689453,0.3352794647216797
1772701779792622000,6.8936220703125,0.04572727531194687,-1.9883363246917725,0.6440280079841614
1772701779802671000,6.903671142578125,0.07745590806007385,-0.8930508494377136,0.7962260246276855
1772701779812719000,6.913718994140625,0.08255506306886673,-0.13005919754505157,0.7694801688194275
1772701779822768000,6.92376806640625,0.029629264026880264,0.10255353897809982,0.7879201769828796
1772701779832816000,6.933816162109375,-0.03994075953960419,0.10713151097297668,0.6530925631523132
1772701779842865200,6.943865234375,0.11646056920289993,0.11912399530410767,0.3159227967262268
1772701779852914200,6.9539140625,0.3761126399040222,0.30708858370780945,0.023232351988554
1772701779862962200,6.963962158203125,0.5057294964790344,0.38462889194488525,-0.1621452271938324
1772701779873011200,6.97401123046875,0.448452353477478,0.22706910967826843,-0.18218818306922913
1772701779883060200,6.984060302734375,0.263564795255661,-0.29769933223724365,-0.13538925349712372
1772701779893108200,6.994108154296875,-0.03208523243665695,-0.9893296957015991,0.033063676208257675
1772701779903157200,7.0041572265625,-0.36510366201400757,-1.5622215270996094,0.27720895409584045
1772701779913205200,7.014205322265625,-0.6862406730651855,-1.8787254095077515,0.5043718218803406
1772701779923254300,7.024254150390625,-0.8469065427780151,-1.849567174911499,0.7409345507621765
1772701779933303000,7.034302978515625,-0.7812255024909973,-1.353143334388733,0.8554600477218628
1772701779943351000,7.04435107421875,-0.6020776033401489,-0.9085717797279358,0.777202308177948
1772701779953400000,7.054400146484375,-0.469074010848999,-0.7494324445724487,0.5227177739143372
1772701779963449300,7.064449462890625,-0.40740665793418884,-0.7253140211105347,0.18181639909744263
1772701779973497000,7.0744970703125,-0.4086673855781555,-0.6714590787887573,-0.10393732041120529
1772701779983546000,7.084546142578125,-0.43273890018463135,-0.4555547535419464,-0.2605772614479065
1772701779993595100,7.09459521484375,-0.45944854617118835,-0.12897315621376038,-0.2758374512195587
1772701780003643100,7.10464306640625,-0.43116551637649536,0.1830425262451172,-0.13112393021583557
1772701780013692200,7.114692138671875,-0.2987755239009857,0.512341320514679,0.16544541716575623
1772701780023740200,7.124740234375,-0.07328460365533829,0.8710374236106873,0.4024531841278076
1772701780033789200,7.1347890625,0.28151848912239075,1.055287480354309,0.6252396702766418
1772701780043838000,7.144837890625,0.4041290879249573,1.284549355506897,0.6595880389213562
1772701780053886200,7.15488623046875,0.27961885929107666,1.5519707202911377,0.48302099108695984
1772701780063935000,7.16493505859375,0.24553439021110535,1.5453085899353027,0.35849529504776
1772701780073984300,7.174984375,0.24469709396362305,1.3534682989120483,0.28336459398269653
1772701780084032000,7.185031982421875,0.21498340368270874,1.0908467769622803,0.20835188031196594
1772701780094081300,7.195081298828125,0.23230008780956268,0.7441199421882629,0.17658595740795135
1772701780104130000,7.205130126953125,0.2413521707057953,0.31291770935058594,0.17327271401882172
1772701780114178300,7.21517822265625,0.2889902591705322,0.011551727540791035,0.1737009584903717
1772701780124227000,7.22522705078125,0.37967756390571594,-0.08842733502388,0.2216929793357849
1772701780134275000,7.235275146484375,0.3472309410572052,-0.27596980333328247,0.16895519196987152
1772701780144324000,7.245323974609375,0.2961283326148987,-0.4160139858722687,0.07689584791660309
1772701780154373000,7.255373046875,0.2870440185070038,-0.44882866740226746,0.006331132724881172
1772701780164421000,7.265421142578125,0.3133035898208618,-0.5169965028762817,-0.08900843560695648
1772701780174470100,7.27547021484375,0.3904300630092621,-0.6434426307678223,-0.14901530742645264
1772701780184519200,7.285519287109375,0.4610496461391449,-0.9026022553443909,-0.17973008751869202
1772701780194567200,7.295567138671875,0.528918445110321,-1.294466495513916,-0.2418493777513504
1772701780204615700,7.30561572265625,0.6181787848472595,-1.6270955801010132,-0.41026395559310913
1772701780214663700,7.31566357421875,0.6395903825759888,-1.6443421840667725,-0.7458512783050537
1772701780224712700,7.325712646484375,0.6135067939758301,-1.1524832248687744,-0.9806118607521057
1772701780234761700,7.33576171875,0.610131025314331,-0.48556724190711975,-1.1968954801559448
1772701780244809700,7.345809814453125,0.6547940969467163,-0.1766006052494049,-1.4039186239242554
1772701780254858800,7.355858642578125,0.6688819527626038,-0.2695712745189667,-1.64833402633667
1772701780264907500,7.365907470703125,0.6573296785354614,-0.490445077419281,-1.7802259922027588
1772701780274955800,7.375955810546875,0.7737249732017517,-0.4869363605976105,-1.7567435503005981
1772701780285004500,7.386004638671875,0.9759840965270996,-0.18666762113571167,-1.5772629976272583
1772701780295053800,7.3960537109375,1.2843677997589111,0.38803961873054504,-1.28267502784729
1772701780305101600,7.4061015625,1.5517219305038452,1.3278411626815796,-0.914984405040741
1772701780315150800,7.41615087890625,1.6978954076766968,2.322516918182373,-0.6346901655197144
1772701780325199600,7.42619970703125,1.5282014608383179,2.141632556915283,-1.1409459114074707
1772701780335248000,7.436247802734375,1.1441693305969238,1.0312936305999756,-1.9399429559707642
1772701780345296600,7.446296630859375,0.8711420893669128,0.9322469830513,-2.4630179405212402
1772701780355344600,7.4563447265625,0.6698771715164185,1.4097765684127808,-2.8730409145355225
1772701780365393700,7.4663935546875,0.3937704563140869,1.7724511623382568,-2.9686172008514404
1772701780375442700,7.476442626953125,0.08074730634689331,1.450209140777588,-2.5563459396362305
1772701780385490700,7.48649072265625,-0.2675662040710449,0.9431337118148804,-1.7969841957092285
1772701780395539500,7.49653955078125,-0.5800687074661255,0.3337278962135315,-0.983359694480896
1772701780405588700,7.506588623046875,-0.6812826991081238,-0.1824646145105362,-0.36256512999534607
1772701780415636500,7.516636474609375,-0.6457297205924988,-0.2851494550704956,0.052379850298166275
1772701780425685800,7.526685791015625,-0.6616865992546082,-0.1345125436782837,0.22586162388324738
1772701780435734800,7.53673486328125,-0.6956027746200562,0.04496774077415466,0.19311806559562683
1772701780445782800,7.54678271484375,-0.7618406414985657,0.22467918694019318,0.04420767351984978
1772701780455831600,7.55683154296875,-0.8321669697761536,0.49844786524772644,-0.052437908947467804
1772701780465879600,7.566879638671875,-0.8896443843841553,0.7420309782028198,-0.11256889253854752
1772701780475928600,7.576928466796875,-0.9716545939445496,0.7425398826599121,-0.25357234477996826
1772701780485977600,7.5869775390625,-1.067407488822937,0.5501108169555664,-0.42811939120292664
1772701780496025600,7.597025634765625,-1.102014422416687,0.3347007632255554,-0.5765482783317566
1772701780506074600,7.60707470703125,-1.066810965538025,0.0776899978518486,-0.6906746029853821
1772701780516123600,7.61712353515625,-0.9688425660133362,-0.2058548927307129,-0.7750198245048523
1772701780526171600,7.627171630859375,-0.8283898234367371,-0.38627368211746216,-0.7876765131950378
1772701780536220700,7.637220703125,-0.7300326228141785,-0.41170045733451843,-0.7273390889167786
1772701780546269700,7.647269775390625,-0.6504566073417664,-0.40994730591773987,-0.6491782665252686
1772701780556317400,7.6573173828125,-0.5473336577415466,-0.389878511428833,-0.6113182306289673
1772701780566366700,7.66736669921875,-0.4226852059364319,-0.17028038203716278,-0.5482401847839355
1772701780576414500,7.67741455078125,-0.2165355086326599,0.20397630333900452,-0.4521411061286926
1772701780586463700,7.687463623046875,0.06380161643028259,0.4754141867160797,-0.36908748745918274
1772701780596512500,7.697512451171875,0.30754292011260986,0.535495936870575,-0.34069952368736267
1772701780606560800,7.707560791015625,0.48394671082496643,0.4604501724243164,-0.339363157749176
1772701780616609500,7.717609619140625,0.5155930519104004,0.32913288474082947,-0.40292561054229736
1772701780626658600,7.727658447265625,0.3790905773639679,0.375230610370636,-0.49720844626426697
1772701780636706600,7.73770654296875,0.22191321849822998,0.7115020751953125,-0.5524844527244568
1772701780646755600,7.747755615234375,0.18370112776756287,1.1611931324005127,-0.5875018835067749
1772701780656804600,7.7578046875,0.20331929624080658,1.4976052045822144,-0.6056129336357117
1772701780666852600,7.7678525390625,0.1524244248867035,1.7820038795471191,-0.5240381956100464
1772701780676901600,7.777901611328125,0.025071265175938606,1.9832563400268555,-0.2756158709526062
1772701780686949600,7.78794970703125,-0.11760599166154861,2.0209357738494873,0.08399130403995514
1772701780696998700,7.79799853515625,-0.2440403550863266,1.6351436376571655,0.44044050574302673
1772701780707047700,7.808047607421875,-0.348636269569397,0.8140140771865845,0.7074495553970337
1772701780717095700,7.818095703125,-0.43537384271621704,0.07665190100669861,0.896824836730957
1772701780727144700,7.828144775390625,-0.43748918175697327,-0.32203903794288635,1.0497429370880127
1772701780737193500,7.838193359375,-0.4107273519039154,-0.4890442490577698,1.1364799737930298
1772701780747241700,7.84824169921875,-0.38523662090301514,-0.5429450273513794,1.1369473934173584
1772701780757290500,7.85829052734375,-0.3648855686187744,-0.5594289302825928,1.051256775856018
1772701780767339800,7.86833984375,-0.3340006172657013,-0.5253697633743286,0.9005441665649414
1772701780777387500,7.878387451171875,-0.28639793395996094,-0.3682888150215149,0.7310457229614258
1772701780787436800,7.888436767578125,-0.2280329018831253,-0.09674491733312607,0.5664684772491455
1772701780797484500,7.898484619140625,-0.17711858451366425,0.0777677670121193,0.3865005671977997
1772701780807533800,7.908533935546875,-0.1545453667640686,0.14220453798770905,0.22671011090278625
1772701780817582600,7.91858251953125,-0.13008449971675873,0.1902967095375061,0.15558692812919617
1772701780827630600,7.928630615234375,-0.10302279144525528,0.22630131244659424,0.1517336070537567
1772701780837679600,7.9386796875,-0.08306239545345306,0.21275274455547333,0.19071190059185028
1772701780847728600,7.948728759765625,-0.06439709663391113,0.20020632445812225,0.2434731125831604
1772701780857776600,7.958776611328125,-0.04405747354030609,0.16308265924453735,0.3069293200969696
1772701780867825700,7.96882568359375,-0.048344362527132034,0.1051597073674202,0.35982954502105713
1772701780877874700,7.978874755859375,-0.049846384674310684,0.07694857567548752,0.3769723176956177
1772701780887922400,7.98892236328125,-0.03527463227510452,0.08092041313648224,0.37439996004104614
1772701780897971700,7.9989716796875,-0.009857158176600933,0.09698806703090668,0.36488983035087585
1772701780908020700,8.009020751953125,0.0065050371922552586,0.07595442235469818,0.35111141204833984
1772701780918068700,8.01906884765625,0.0144724166020751,0.012315788306295872,0.35280731320381165
1772701780928117800,8.02911767578125,0.008562062866985798,-0.04866953566670418,0.37248995900154114
1772701780938165800,8.039165771484376,-0.020678114145994186,-0.10438978672027588,0.3874633014202118
1772701780948214500,8.049214599609375,-0.059485696256160736,-0.15054556727409363,0.4045056700706482
1772701780958263600,8.059263671875,-0.11176807433366776,-0.18838003277778625,0.40044939517974854
1772701780968311600,8.0693115234375,-0.16240382194519043,-0.2305506467819214,0.37279221415519714
1772701780978360600,8.079360595703125,-0.19498759508132935,-0.25583016872406006,0.3160482347011566
1772701780988409600,8.08940966796875,-0.2062027007341385,-0.20864588022232056,0.2581460475921631
1772701780998457600,8.09945751953125,-0.1912892609834671,-0.18661755323410034,0.1932584047317505
1772701781008506600,8.109506591796874,-0.1438264101743698,-0.2251657396554947,0.1449822187423706
1772701781018555600,8.1195556640625,-0.07807349413633347,-0.26847806572914124,0.10994274914264679
1772701781028603600,8.129603759765626,-0.030826888978481293,-0.26578959822654724,0.11555775254964828
1772701781038652700,8.139652587890625,0.013784521259367466,-0.15792837738990784,0.1550079584121704
1772701781048700700,8.14970068359375,0.04092080146074295,-0.047692153602838516,0.1984313279390335
1772701781058749700,8.159749755859375,0.045697182416915894,0.01894546113908291,0.24417218565940857
1772701781068798500,8.169798583984376,0.03909147530794144,0.06515184044837952,0.2947373688220978
1772701781078846700,8.1798466796875,0.028434038162231445,0.03785257413983345,0.32502761483192444
1772701781088895500,8.1898955078125,0.006431533955037594,-0.03105618618428707,0.3236912488937378
1772701781098944800,8.19994482421875,-0.020124975591897964,-0.09343327581882477,0.2896176874637604
1772701781108992500,8.209992431640625,-0.033178992569446564,-0.13157320022583008,0.2488763928413391
1772701781119041800,8.220041748046874,-0.04814222827553749,-0.12283031642436981,0.20971141755580902
1772701781129090600,8.230090576171875,-0.05531518533825874,-0.07960907369852066,0.1759909987449646
1772701781139138800,8.240138916015624,-0.07479008287191391,-0.07119668275117874,0.15762318670749664
1772701781149187600,8.2501875,-0.09751404076814651,-0.10417193919420242,0.1395975798368454
1772701781159236600,8.260236572265624,-0.09677261859178543,-0.1262708455324173,0.09966453909873962
1772701781169284600,8.27028466796875,-0.07370031625032425,-0.1313854604959488,0.057434529066085815
1772701781179333600,8.280333740234376,-0.050521496683359146,-0.09864562004804611,0.04188380017876625
1772701781189381600,8.290381591796875,-0.006816360633820295,-0.011365040205419064,0.06761898845434189
1772701781199430700,8.3004306640625,0.020846426486968994,0.07964875549077988,0.08498705923557281
1772701781209480000,8.31047998046875,0.026986610144376755,0.14832209050655365,0.14958976209163666
1772701781219528000,8.32052783203125,-0.008588694036006927,0.09309238940477371,0.10606598109006882
1772701781229577000,8.330576904296874,-0.056891776621341705,0.07463828474283218,0.048957157880067825
1772701781239626000,8.3406259765625,-0.08642836660146713,0.0885533019900322,-0.001967543503269553
1772701781249674000,8.350674072265624,-0.1099371537566185,0.07537811249494553,-0.05403074622154236
1772701781259723000,8.360722900390625,-0.13841965794563293,0.039096005260944366,-0.10672058910131454
1772701781269772000,8.37077197265625,-0.17046228051185608,0.08201364427804947,-0.12152110785245895
1772701781279820000,8.380820068359375,-0.18792836368083954,0.13838957250118256,-0.1312618851661682
