time,seconds_elapsed,z,y,x
1772702667513621200,0.069621337890625,-0.02167231810390949,-0.04787643441855907,-0.03485737836956978
1772702667523671300,0.07967138671875,-0.06708294693082571,-0.020856617806851864,-0.03441547982096672
1772702667533721300,0.089721435546875,-0.0851475959315896,0.026350246787071225,0.010789689561724661
1772702667543771400,0.099771484375,-0.025479309171438216,0.024051029933989047,0.027736732709407803
1772702667553821400,0.109821533203125,0.02132686566710472,0.031787469404935834,0.03801847274899482
1772702667563871500,0.11987158203125,0.020310966622829437,0.04706219542622566,0.029499066206812856
1772702667573920500,0.12992041015625,-0.0029760932013392447,0.044428632052242754,0.0010720131456851958
1772702667583970300,0.13997021484375,-0.03212444627434015,0.013935294111073016,-0.012560206365585327
1772702667594020400,0.150020263671875,-0.03401595910936594,0.0017456746235489844,-0.004926350486278533
1772702667604070400,0.1600703125,0.005618716664612293,0.005048223300278186,0.012203063490986822
1772702667614120400,0.170120361328125,0.0113718733638525,0.021926585125923156,0.02121756007373333
1772702667624170200,0.180170166015625,-0.00046790977269411087,-0.0018386136040091513,0.020284078615903853
1772702667634220300,0.19022021484375,-0.03013210341334343,0.0013473229557275771,0.006420388436317443
1772702667644270300,0.200270263671875,-0.026891514056921004,0.03272942643016576,-0.0030190555602312087
1772702667654320400,0.2103203125,0.010315350048243998,0.019119711011648177,0.006306991189718246
1772702667664369400,0.220369384765625,0.0017108955711126327,0.014866437481343746,0.02069032132923603
1772702667674419500,0.23041943359375,0.0026630817294120788,0.008425298517942428,0.024661563047766684
1772702667684469500,0.240469482421875,0.04023848688602447,-0.009526830019056796,0.0047393034815788266
1772702667694519600,0.25051953125,0.015660218207538126,0.008242927688360213,-0.015251929667592048
1772702667704569300,0.2605693359375,-0.03501607606261969,0.023937340426445006,0.03891045315265655
1772702667714619400,0.270619384765625,-0.04237929830700159,0.03614128070026636,0.024130232650041578
1772702667724669400,0.28066943359375,0.004537058907747268,0.0312552622243762,0.0117944826900959
1772702667734719500,0.290719482421875,0.022526889106631278,-0.003087444621324539,0.0001806172639131546
1772702667744768300,0.300768310546875,0.0043690088644623756,-0.00303337634652853,0.007318798580765723
1772702667754818600,0.310818603515625,-0.00933627588301897,0.030583646573126313,0.011771101814508437
1772702667764868600,0.32086865234375,-0.008400456337630749,0.029824060377478596,-0.0022089082211256025
1772702667774918400,0.33091845703125,-0.006997019280493259,0.015773030932247637,-0.012209493231773375
1772702667784968400,0.340968505859375,0.02536795775145292,0.0074389178290963165,0.014274024546146392
1772702667795018500,0.3510185546875,0.030661972506344316,0.009671499186754227,0.01293780750632286
1772702667805068500,0.361068603515625,0.020021628287434576,0.04291384357511997,0.012186112356185913
1772702667815118300,0.371118408203125,-0.016031681868433952,0.025838790133595465,0.017262100446224213
1772702667825168400,0.38116845703125,-0.018178338508307933,0.023126608565449715,0.021423311778903005
1772702667835217400,0.391217529296875,0.0009136077135801315,0.0076750646725296965,0.0023994623571634292
1772702667845267500,0.401267333984375,0.006150631584227084,-0.0076177815273404115,0.0357844300866127
1772702667855317200,0.411317138671875,0.008611176478862762,-0.03445756539702415,0.03216156341433525
1772702667865367300,0.4213671875,0.014492343471944332,-0.03260726135522127,0.01571487100422382
1772702667875417300,0.431417236328125,-0.005156067588925361,-0.021927461908757686,0.05515373194515705
1772702667885467600,0.441467529296875,0.02016951232552528,-0.02113601927012205,0.047107788133621216
1772702667895517400,0.451517333984375,0.04266805212050676,-0.00613689531981945,0.010826514440774917
1772702667905567500,0.4615673828125,0.03288724734038114,-0.01088905828297138,-0.00032733225822448726
1772702667915617500,0.471617431640625,-0.0005991349369287491,0.01667085655480623,-0.020960954964160918
1772702667925666600,0.48166650390625,-0.024379238975048064,0.030673370683193205,-0.021688100194931028
1772702667935716400,0.49171630859375,-0.04773848725259304,0.03961889368295669,-0.021392332118749618
1772702667945766400,0.501766357421875,-0.026464813077449797,0.03359422656595707,0.00008592471778392792
1772702667955816400,0.51181640625,0.003225684048235416,0.013941723851859569,0.02941664862036705
1772702667965866500,0.521866455078125,0.06202098736613988,-0.01408025553971529,0.06205109024345874
1772702667975916300,0.531916259765625,0.06524111845642327,-0.019035247598588465,0.040973815423250196
1772702667985966300,0.54196630859375,0.05088555310666561,-0.0005447744011878967,0.015502105036377906
1772702667996016400,0.552016357421875,0.01459346575886011,0.030065175656974315,0.007899813339114188
1772702668006065400,0.5620654296875,-0.031082828266918657,0.025696459053456782,-0.00001578209102153778
1772702668016115500,0.572115478515625,-0.011397007805109024,0.016341770730912683,-0.006351999375224113
1772702668026165500,0.58216552734375,-0.017322890722751616,0.015628654025495053,0.0011047463715076445
1772702668036215600,0.592215576171875,-0.014433014500141143,0.005765431658923625,-0.024649872609972954
1772702668046265300,0.602265380859375,-0.008390519465506075,-0.012325813087821005,0.003895253872871399
1772702668056315400,0.6123154296875,-0.005499766460061073,-0.025484569868445394,0.02074877351820469
1772702668066365400,0.622365478515625,0.008265139520168304,-0.013363339442014694,0.03560848899781704
1772702668076415500,0.63241552734375,0.022550854504108427,-0.013369476921856402,0.025571663630008696
1772702668086465300,0.64246533203125,0.025068098022043704,-0.01960281835347414,0.026270167288184165
1772702668096515300,0.652515380859375,0.0010097615644335746,-0.008594809865951538,0.02801496512889862
1772702668106564600,0.662564697265625,-0.015870646087825298,-0.015440730237960814,0.054237201622128486
1772702668116614700,0.67261474609375,-0.004186930295825004,-0.003124269500374794,0.04911386725902557
1772702668126664400,0.68266455078125,-0.00026829554736614226,0.023686872796714303,0.024665070179104805
1772702668136714500,0.692714599609375,0.007119768877327442,0.015356559085845947,0.025987843215465545
1772702668146764500,0.7027646484375,0.03232552180439233,0.007844576020538806,0.01170563536286354
1772702668156814600,0.712814697265625,0.027854221609234807,0.020171558152139186,0.025453590208292007
1772702668166864400,0.722864501953125,0.01685030477494001,0.03225917856991291,0.02405307576060295
1772702668176914400,0.73291455078125,-0.006952303355932235,0.020408289517462253,0.005014613291621208
1772702668186963500,0.74296337890625,-0.012362930227816104,0.009795417827367783,-0.007466098096966743
1772702668197013500,0.753013427734375,-0.017084698052704333,-0.00464724128395319,-0.018895839127898214
1772702668207063600,0.7630634765625,0.013393442319333553,0.009011866234242915,0.015575170272588729
1772702668217113600,0.773113525390625,0.03418956211060285,0.026563305015861988,0.013015548917651176
1772702668227163600,0.78316357421875,0.03639174832999706,0.026494623693823813,-0.001104161849617958
1772702668237213400,0.79321337890625,0.029885142914950844,0.015332593688368796,0.022936054429411885
1772702668247263500,0.803263427734375,0.004112696015834808,0.021980653400719165,0.020544190856814384
1772702668257313500,0.8133134765625,0.002336333993077278,0.014395020577311514,0.007962357181310654
1772702668267363600,0.823363525390625,0.007068330951035023,0.017369067952036858,0.012689385703206062
1772702668277412400,0.833412353515625,-0.013660861083865165,0.012286650121212005,0.01838379795253277
1772702668287462400,0.84346240234375,-0.008784779480099678,0.005998655892908573,0.021356676283478735
1772702668297512400,0.853512451171875,-0.0001727262184023857,0.008138590531051159,0.030386370435357093
1772702668307562200,0.863562255859375,0.02278612456470728,0.007742284689843654,0.020972645401954648
1772702668317612300,0.8736123046875,0.025358605401217937,0.0037821488872170446,-0.005650573107600212
1772702668327662600,0.88366259765625,0.02612140646725893,0.01913169371038675,0.000360065484046936
1772702668337712600,0.893712646484375,0.01542261005938053,0.025235855804383752,-0.010943418818712233
1772702668347762400,0.903762451171875,0.006857610809803009,0.0200379949003458,-0.009747487032413482
1772702668357812500,0.9138125,-0.014660101254284382,0.01588584365695715,0.0026847090393304824
1772702668367861500,0.923861572265625,0.016022329518198965,0.02547229490876198,0.027401217144727704
1772702668377911600,0.93391162109375,0.025994565217196938,0.027079730105400084,0.006295300751924514
1772702668387961300,0.94396142578125,0.025887889972329138,0.017025369080901145,0.014250059148669243
1772702668398011400,0.954011474609375,0.047745501515269274,0.037594986639916894,0.0025438392639160153
1772702668408061400,0.9640615234375,0.016490239290893077,0.05075169759392738,-0.019298574709892272
1772702668418111500,0.974111572265625,-0.009937456646561623,0.02424392215758562,0.024639351215958595
1772702668428161300,0.984161376953125,0.029642858591675758,0.0494610732614994,0.0037859482795000073
1772702668438211300,0.99421142578125,-0.013708207356929777,0.03174450704604387,-0.02170505132973194
1772702668448261400,1.004261474609375,-0.006106792442500591,0.013435820156335829,0.014638766205310821
1772702668458310400,1.014310302734375,0.024545243191719055,0.028328268861770627,-0.0112368488073349
1772702668468360400,1.0243603515625,0.05395195493996143,0.01416910286694765,-0.010306874480843543
1772702668478410500,1.034410400390625,0.033842356108129024,-0.000320025734603405,0.012342179700732231
1772702668488460500,1.04446044921875,0.028558862747251987,-0.004899462479352951,0.013044190490245819
1772702668498510300,1.05451025390625,0.0010325579181313515,0.01117021331191063,0.015258943930268287
1772702668508560400,1.064560302734375,-0.0030240239962935444,0.012995090651512145,0.012476619735360146
1772702668518610400,1.0746103515625,0.0035293431699275966,0.010139408959448338,0.008023147457838059
1772702668528660500,1.084660400390625,0.002926116579771042,0.02165799731761217,0.013111410507559776
1772702668538710300,1.094710205078125,0.003562660917639732,0.013858137221634387,0.010565233156085013
1772702668548759600,1.104759521484375,0.008799392527341842,0.0020697920113801954,0.018648001846671102
1772702668558809600,1.1148095703125,0.006390285558998584,0.009768822081387043,0.0120429044932127
1772702668568859600,1.124859619140625,-0.006198270118236542,-0.003978548242151737,0.012564882540702819
1772702668578909400,1.134909423828125,0.021482933011651037,-0.0042991584986448285,0.03181143480241298
1772702668588959500,1.14495947265625,0.04395779967010021,0.002681201907992363,0.01622515861392021
1772702668599009500,1.155009521484375,0.020645897665619847,0.0003054126873612404,0.0056885670304298395
1772702668609059600,1.1650595703125,-0.006994973453879356,0.0026665888607501982,-0.01582826825082302
1772702668619109400,1.175109375,-0.032876433685421945,0.007258300565183162,0.011177812096476555
1772702668629159400,1.185159423828125,-0.004248597355186939,0.02441781741976738,0.018370353949069974
1772702668639208400,1.19520849609375,-0.017260639141499994,0.01414601425230503,0.030665187376737593
1772702668649258500,1.205258544921875,-0.0067453826069831845,0.007171499064564705,0.0447118329077959
1772702668659308500,1.21530859375,0.0318041282787919,-0.0014212649747729301,0.03172726365029812
1772702668669358600,1.225358642578125,0.023495149616897106,0.007970540487766265,0.026159108129143713
1772702668679408600,1.23540869140625,0.041759412842988966,0.012085282330214976,0.006571779605746269
1772702668689458400,1.24545849609375,0.004530629166960716,0.025989596781134605,-0.0028460370808839797
1772702668699508500,1.255508544921875,-0.006843582284450531,0.021262568259239195,-0.022574819901585576
1772702668709558500,1.26555859375,-0.01967325324118137,0.007808627924323082,0.010302782827615738
1772702668719607300,1.275607177734375,-0.03114800245761871,-0.004734627306461334,0.009275777867436408
1772702668729657300,1.2856572265625,-0.014369009353220462,-0.021701544198393822,0.02451484805345535
1772702668739707400,1.295707275390625,0.013781272593140602,-0.0060781508699059485,0.0013005612045526504
1772702668749757400,1.30575732421875,0.007460837399959563,-0.01233136604577303,0.009808277308940887
1772702668759807200,1.31580712890625,0.012593524113297462,-0.017305939587950705,0.03687573245465755
1772702668769857300,1.325857177734375,0.021968378441035746,-0.03026654344797134,0.03308043182492256
1772702668779907600,1.335907470703125,-0.013166063304245471,-0.013114917638897895,0.014065350231528282
1772702668789957600,1.34595751953125,-0.01657850209623575,-0.013386720317602158,0.013049451187252998
1772702668800007400,1.35600732421875,-0.008443710957467555,0.008707038068771362,0.04579787457883358
1772702668810056400,1.366056396484375,-0.019907061997056007,0.02002455089688301,0.04317278677225113
1772702668820106500,1.3761064453125,-0.004083469921350479,0.024834873788058758,0.03946750251352787
1772702668830156500,1.386156494140625,0.011691899098455905,0.014191606959700584,0.018299626800417898
1772702668840206300,1.396206298828125,0.02057224790751934,0.03360971639603376,0.008921557602286339
1772702668850256400,1.40625634765625,0.020569909819960593,0.04661211357116699,0.008777765217423439
1772702668860306400,1.416306396484375,-0.0022325813576579093,0.03263531840592623,0.0025280571728944776
1772702668870356500,1.4263564453125,-0.012688508920371532,0.02607113758474588,-0.024354689055681226
1772702668880406300,1.43640625,-0.023770459426939484,0.002486263857781887,-0.02895487632751465
1772702668890456300,1.446456298828125,-0.012647007866203784,0.0033995793104171753,-0.008674304842948913
1772702668900505600,1.456505615234375,-0.012959727077186107,0.010140870264172553,0.008628712135553359
1772702668910555400,1.466555419921875,-0.0022419337078928947,0.01764467002302408,-0.0008569090902805328
1772702668920605400,1.47660546875,0.025096739594638345,0.006366904683411121,0.004444119927287101
1772702668930655500,1.486655517578125,0.029402327834069725,0.012305354821681975,0.017913257831335065
1772702668940705500,1.49670556640625,0.014313479773700236,0.021604221303761006,0.04038578640222549
1772702668950755300,1.50675537109375,-0.00962386065274477,0.03434796754270792,0.041562428966164584
1772702668960805400,1.516805419921875,-0.006511866112053394,0.042080315360426904,0.02197393139898777
1772702668970855400,1.52685546875,-0.02776128262877464,0.03717033148705959,0.010372925454378127
1772702668980905500,1.536905517578125,-0.04785334580391645,0.017536825734376905,-0.015168343037366866
1772702668990954500,1.54695458984375,-0.04152735765278339,0.014199790266156196,-0.02278641682565212
1772702669001004500,1.557004638671875,0.009615677346289157,0.005990180325508117,-0.003616436931490898
1772702669011054600,1.5670546875,0.03347673766613007,0.004782558101415634,0.0003156418204307556
1772702669021104600,1.577104736328125,0.043861938080191606,0.02718962022066116,0.0022258593559265137
1772702669031154400,1.587154541015625,0.028247312580049037,0.012444763292372226,0.006221066471934318
1772702669041204500,1.59720458984375,0.009266425517201422,0.017231120786070822,0.003011456775665283
1772702669051254500,1.607254638671875,-0.017394786915183067,0.0066594578891992565,0.002220014137029648
1772702669061304600,1.6173046875,-0.029914076748490333,0.019061843344569205,0.03411737365722656
1772702669071354400,1.627354248046875,-0.014658055427670479,0.030138240893185137,0.0355056131452322
1772702669081403400,1.6374033203125,0.0006067337214946747,0.029052491483092305,0.02100479410588741
1772702669091453400,1.647453369140625,0.000893149447441101,0.010906886200606822,0.011438508859276771
1772702669101503500,1.65750341796875,-0.013674305087327957,0.013779226766526698,0.01281271982192993
1772702669111553500,1.667553466796875,0.0101911391466856,0.022080022121965883,0.03275719121992588
1772702669121603600,1.677603515625,0.006195347508788108,-0.006921323695778846,0.03343640565574169
1772702669131653600,1.687653564453125,0.013200842356681824,-0.010863923841714859,0.03129530197381973
1772702669141703400,1.697703369140625,0.008933832561969756,-0.009285130217671394,0.02750117038786411
1772702669151753500,1.70775341796875,-0.000800210466980934,-0.009696341367065906,0.032708675903081894
1772702669161802500,1.717802490234375,-0.0020487492233514783,-0.0062915013596415515,0.015004676908254622
1772702669171852300,1.727852294921875,0.0135395727917552,0.001551028834283352,0.0069517188340425485
1772702669181902300,1.73790234375,0.020947510960698128,-0.002428396190702915,0.02106850699186325
1772702669191952400,1.747952392578125,0.014001637345552443,-0.00016249708533287046,0.01475508606135845
1772702669202002400,1.75800244140625,-0.0016717326045036314,0.020174773022532462,-0.02242342873215675
1772702669212052200,1.76805224609375,-0.016122575022280216,0.010345160664618014,-0.006206453424692154
1772702669222102500,1.7781025390625,-0.0015165420427918433,-0.009356149627268313,-0.007201309680938721
1772702669232152600,1.788152587890625,0.026079320891201494,-0.01068564466536045,0.014732289707660674
1772702669242202600,1.79820263671875,0.034251521430909634,-0.005125964711606502,0.011486439654231071
1772702669252251400,1.80825146484375,0.018175708159804342,-0.009206804284453392,0.0025058453410863875
1772702669262301400,1.818301513671875,0.010640051957964896,-0.01023994672447443,0.03142974200844764
1772702669272351500,1.8283515625,0.0014987141251564026,0.019243045130372047,0.041112931632995606
1772702669282401500,1.838401611328125,-0.0006792144358158111,0.018490765458345413,0.026674071913957594
1772702669292451300,1.848451416015625,-0.01664572211354971,0.020795827530324457,0.01617547425329685
1772702669302501400,1.85850146484375,-0.0004857376903295517,0.015578677403926848,-0.005435469052195548
1772702669312551400,1.868551513671875,-0.0019920506000518797,-0.008337327973544598,0.011360182926058768
1772702669322601500,1.8786015625,-0.021369243504107,-0.018594225832819937,-0.0069826984941959375
1772702669332651300,1.8886513671875,-0.0004971358671784401,-0.01099631804972887,0.01891688191592693
1772702669342700500,1.898700439453125,0.0026657120779156685,0.009837503403425216,0.03553191663026809
1772702669352750600,1.90875048828125,0.0021375965505838392,0.008334113103151321,0.05998831249475479
1772702669362800400,1.91880029296875,0.0054179333955049515,0.010090309120714664,0.031135727497935292
1772702669372850400,1.928850341796875,0.029675591817498206,0.020688275502622127,0.04169043926000595
1772702669382900500,1.938900390625,0.018029577687382697,0.01696545558720827,0.026126374903321266
1772702669392950500,1.948950439453125,0.0051668812438845635,0.017691139513254163,0.0172843122780323
1772702669403000300,1.959000244140625,-0.037836394180357454,0.00516658898293972,0.005220949518680572
1772702669413050400,1.96905029296875,-0.04512421310096979,0.013597440458834171,-0.029867899519205092
1772702669423099400,1.979099365234375,-0.01645224536806345,0.0037111294776201245,-0.009521861582994461
1772702669433149700,1.989149658203125,-0.014057751446962356,-0.018703531426191328,-0.022930209210515022
1772702669443199500,1.999199462890625,-0.005067512522637844,-0.006403145040571689,-0.016693945169448852
1772702669453249500,2.00924951171875,0.0002513444125652313,-0.005860124205052853,-0.016502806511521338
1772702669463299600,2.019299560546875,0.0022147534400224684,-0.007767419131100177,-0.009753332251310348
1772702669473349600,2.029349609375,-0.009981295788288116,0.0038441082075238225,0.02627075181007385
1772702669483399400,2.0393994140625,-0.026230419799685475,-0.010516717839241027,0.05073240837156772
1772702669493449500,2.049449462890625,-0.02185585797727108,-0.00948269861638546,0.04321837947964668
1772702669503499500,2.05949951171875,-0.006803542535007,0.006523556549847126,0.0534650482058525
1772702669513548300,2.06954833984375,0.006485854887962341,0.021892682856321333,0.05941080486774444
1772702669523598300,2.079598388671875,0.00575695609152317,0.028978257203102112,0.037866497057676314
1772702669533648400,2.0896484375,0.001607142935693264,0.014305296467244624,0.021958149307966232
1772702669543698400,2.099698486328125,0.006088380002975464,0.0112368488073349,-0.002824409770965576
1772702669553748500,2.10974853515625,0.017230536264181136,0.00601794511526823,0.004821136546134948
1772702669563798500,2.119798583984375,-0.009022095367312431,0.004639350238442421,0.01733399663865566
1772702669573848600,2.1298486328125,-0.020930559825897217,0.0047553778335452076,-0.014750994408130646
1772702669583898600,2.139898681640625,-0.02690817293077707,0.01351385382860899,-0.02299509114027023
1772702669593948400,2.149948486328125,-0.0064461073994636535,0.01260755263864994,-0.028347558084130284
1772702669603997400,2.15999755859375,0.02525660633146763,0.0030059038177132603,0.003297287979722023
1772702669614047500,2.170047607421875,0.03339432007968426,0.018308979150652886,0.015021043521165846
1772702669624097300,2.18009716796875,0.026336510522663593,0.016856442254781723,0.006170213067531585
1772702669634147300,2.190147216796875,0.0049997079834342,0.02077390795946121,0.03794365394711494
1772702669644197400,2.200197265625,0.020478432144224644,0.019328093065321444,0.03510346208512783
1772702669654247400,2.210247314453125,0.0046969256445765495,0.0385772756755352,0.0036830724269151685
1772702669664297500,2.22029736328125,-0.019316694888472555,0.027929332672059534,-0.005517886638641357
1772702669674347500,2.230347412109375,-0.03274053234606981,0.012085282330214976,-0.007740823385119438
1772702669684397600,2.2403974609375,-0.04511895240396261,-0.002010170778632164,-0.026456629770994184
1772702669694446600,2.250446533203125,-0.01293430037498474,0.003519698558747768,-0.0018535189121961593
1772702669704496400,2.260496337890625,0.002979308071732521,-0.01807429361194372,0.011651274827122688
1772702669714546400,2.27054638671875,0.03823533037006855,-0.011038695886731146,0.03576923251748085
1772702669724596500,2.280596435546875,0.03825403507053852,-0.011221943499147891,0.043864860689640045
1772702669734646500,2.290646484375,0.025130934125185012,-0.003612637539207935,0.05453823039531708
1772702669744696300,2.3006962890625,-0.011475918260216713,0.013617021942138671,0.024361118796467778
1772702669754746400,2.310746337890625,-0.04281505937576294,0.015683891344070434,0.0014127894073724745
1772702669764796400,2.32079638671875,-0.041594285409152505,0.025062837325036523,-0.0056003042250871654
1772702669774846500,2.330846435546875,-0.03828443020880222,0.015859832432866094,-0.006788052704930305
1772702669784895500,2.3408955078125,-0.023931787468492983,0.0076876318931579585,-0.0025192893445491788
1772702669794945500,2.350945556640625,-0.0040618426114320755,0.011129296779632567,-0.009321955096721648
1772702669804995600,2.36099560546875,0.022060440638661385,0.0001695113480091095,-0.00483282698392868
1772702669815045400,2.37104541015625,0.0328586057677865,-0.012924363502860069,0.0005342530071735382
1772702669825095400,2.381095458984375,0.0207373753413558,-0.0032312370061874387,0.009095160603523254
1772702669835145500,2.3911455078125,0.027616321200132368,0.02434358313977718,0.007344517543911934
1772702669845195500,2.401195556640625,0.0054591421887278556,0.013706746052205562,0.005806055930256843
1772702669855245300,2.411245361328125,-0.014185177218914031,0.020339315934479234,-0.00620353081524372
1772702669865294300,2.42129443359375,-0.018250234700739384,0.029351474429666995,-0.00684182871878147
1772702669875344600,2.4313447265625,-0.014991525165736675,0.023215748153626918,0.024259411987662315
1772702669885394200,2.441394287109375,-0.0059451721400022505,0.0015276479586958883,0.00277238732278347
1772702669895444200,2.4514443359375,0.026152093866467475,0.009568623334169387,0.013590133935213088
1772702669905494300,2.461494384765625,0.054146600729227064,0.011522387750446795,0.02087678381204605
1772702669915544300,2.47154443359375,0.025638299125432966,0.012606968116760254,0.011201192972064018
1772702669925594000,2.481593994140625,0.019668284805119035,0.005998363631963729,0.0134545248568058
1772702669935644200,2.49164404296875,0.00855506237745285,0.0011807342171669005,-0.0010801964521408081
1772702669945694200,2.501694091796875,-0.029221710570156573,0.0095288758456707,-0.00725099404156208
1772702669955743000,2.511742919921875,-0.02769815426468849,-0.0019569792866706848,0.00499883120059967
1772702669965793000,2.52179296875,-0.00774812990874052,-0.01412380242049694,0.023443419429659842
1772702669975843000,2.531843017578125,0.0002861234650015831,-0.005707563991844654,0.030179449686408042
1772702669985893400,2.541893310546875,0.04618775067925453,-0.01622515861392021,0.023829788398742675
1772702669995943200,2.551943115234375,0.058788873577117914,-0.006200315944850444,0.02514496265053749
1772702670005993200,2.5619931640625,0.03283727071881294,0.019894494776427744,0.008121347135305405
1772702670016043300,2.572043212890625,-0.002387187397480011,0.01270253744572401,-0.003641571372747421
1772702670026093300,2.58209326171875,-0.0398342899993062,0.03490764725208282,-0.004256488400697708
1772702670036143000,2.59214306640625,-0.03805120597481727,0.024092238727211952,0.012569558715820313
1772702670046192000,2.602192138671875,-0.027517829261720177,0.020231763906776903,0.04124737166762352
1772702670056242200,2.6122421875,0.008772796781361102,0.025318273390829562,0.035815994268655775
1772702670066292200,2.622292236328125,0.04058627741038799,0.023621990866959094,0.03509118712544441
1772702670076342000,2.632342041015625,0.03409516182541847,0.031847090637683866,-0.015034487524628638
1772702670086392000,2.64239208984375,0.026676994523406026,0.0010644143611192702,-0.017907997134327888
1772702670096442000,2.652442138671875,0.005545943689346313,-0.01751402938067913,0.014570377144217491
1772702670106492200,2.6624921875,-0.021258768866956233,-0.017302140195667743,0.02253507241308689
1772702670116542200,2.672542236328125,-0.024274609556794165,-0.003331482510268688,0.00796294170320034
1772702670126591200,2.68259130859375,-0.020862755286693572,0.00793985308855772,0.002970540243387222
1772702670136641300,2.692641357421875,-0.015374387003481387,0.014508417823910713,-0.005918284133076667
1772702670146691000,2.702691162109375,-0.0154305011048913,0.0147398884922266,-0.019696634116768835
1772702670156741000,2.7127412109375,-0.03125613900721073,0.005715162776410579,-0.0016775778234004973
1772702670166791200,2.722791259765625,-0.010583937856554985,-0.0064300330474972725,0.017958266016840935
1772702670176841200,2.73284130859375,0.0008832125753164291,-0.032632688057422636,0.03507715860009193
1772702670186891000,2.74289111328125,-0.012149287477135657,-0.013146481820940971,0.05583236185908317
1772702670196941000,2.752941162109375,-0.01334434248059988,-0.01787263356000185,0.025805472385883328
1772702670206991000,2.7629912109375,0.005526946727931499,0.008044482506811619,0.05065700504779815
1772702670217040100,2.7730400390625,0.008103519217669964,0.02593143685311079,0.05391513006091118
1772702670227090200,2.783090087890625,-0.01922843208312988,0.02086976954936981,0.027281390157341955
1772702670237140200,2.79314013671875,-0.02088409033566713,0.027358254785835742,0.01565875690281391
1772702670247190300,2.803190185546875,-0.0054775546282529826,0.03404986137896776,0.010151391658186912
1772702670257240000,2.813239990234375,-0.009607201778888701,0.02068155350089073,0.013595979154109953
1772702670267290000,2.8232900390625,-0.013176000176370143,0.017787877885997293,0.007477204012870788
1772702670277340200,2.833340087890625,-0.02806640305519104,-0.010526362450420856,-0.027892215532064436
1772702670287390200,2.84339013671875,-0.0029296237111091613,-0.01950081928372383,-0.01234568683207035
1772702670297440000,2.85343994140625,0.016458967369794845,0.006609481267631053,-0.011416881549358368
1772702670307489300,2.8634892578125,0.009356441888213158,0.007401216167211532,0.0034340661019086837
1772702670317539300,2.873539306640625,0.022872049282491206,0.01490501592606306,0.021635493224859238
1772702670327589400,2.88358935546875,0.012511983309686184,0.016649813766777516,0.0332879370957613
1772702670337639200,2.89363916015625,-0.010917407594621181,0.019374270294606685,0.01811784049272537
1772702670347689200,2.903689208984375,-0.018643617932498455,0.003802607153356075,-0.001925415104627609
1772702670357739300,2.9137392578125,-0.02582593065202236,0.01142243450731039,0.01573240666091442
1772702670367789300,2.923789306640625,-0.015800211200118063,0.008126607832312583,0.011436170771718025
1772702670377839000,2.933839111328125,-0.006429448525607585,0.010688275013864039,0.004317278677225113
1772702670387889200,2.94388916015625,0.0024488544568419457,0.007631225530803203,0.008521744629740714
1772702670397938200,2.953938232421875,0.02365530861467123,-0.01455342600941658,0.02529869190752506
1772702670407988000,2.963988037109375,0.019976327840983868,-0.0016188333734869955,0.024683190357685087
1772702670418038000,2.9740380859375,0.0058215457603335375,0.010023089103400707,0.021194179198145865
1772702670428088000,2.984088134765625,0.018848785115778446,0.015594459494948386,0.011714987713098526
1772702670438138400,2.994138427734375,0.02763064198642969,0.011744213807582855,0.02376373742520809
1772702670448188200,3.004188232421875,0.002822363944351673,0.004059504523873329,0.024409634113311766
1772702670458238200,3.01423828125,0.000891103620827198,0.015432546931505203,0.011381810235977173
1772702670468288300,3.024288330078125,0.007411153039336204,0.027355039915442466,0.017877601996064186
1772702670478338300,3.03433837890625,0.021308160966634748,0.023507424576580522,0.01218143618106842
1772702670488387000,3.044386962890625,0.0025426702201366423,0.014350596913695335,0.0083873045951128
1772702670498437000,3.05443701171875,0.009002806144952774,0.02570610366463661,-0.015781506499648094
1772702670508487200,3.064487060546875,0.022113047608733175,0.03512333582937717,-0.0028249942928552626
1772702670518537200,3.074537109375,0.01518558643311262,0.0016860533908009529,0.0028489596903324126
1772702670528587000,3.0845869140625,0.0036038697108626365,-0.007117138528823852,0.002069207489490509
1772702670538637000,3.094636962890625,0.03904547770917415,-0.001056231054663658,-0.004181669598817825
1772702670548687000,3.10468701171875,0.03186170368492603,0.020508827282488346,0.0011035773277282715
1772702670558737200,3.114737060546875,0.010796119302511214,0.008842939408123493,0.02169277637004852
1772702670568786200,3.1247861328125,0.0002902151182293892,0.014226678273081779,0.028613515543937682
1772702670578836200,3.134836181640625,0.013818974255025386,0.022457915523648262,-0.003999298769235611
1772702670588886300,3.14488623046875,-0.002617196761071682,0.029640812765061853,0.00954758054614067
1772702670598936000,3.15493603515625,0.009976619613170623,0.00561491727232933,0.02145370691716671
1772702670608986000,3.164986083984375,0.016006839688122273,0.006475918015837669,0.02419160744845867
1772702670619036200,3.1750361328125,0.02639583949446678,0.002980769376456737,0.018919804525375367
1772702670629086200,3.185086181640625,0.03514759348779917,-0.011261983248591423,0.003477320721745491
1772702670639136000,3.195135986328125,0.02684416778385639,0.003265431536734104,0.010202829584479331
1772702670649186000,3.20518603515625,0.016327449944615362,0.029247137272357938,0.03236731511950493
1772702670659236000,3.215236083984375,-0.0023100305080413818,0.019971067143976687,0.012257424026727675
1772702670669285000,3.22528515625,-0.001262275020778179,0.010965338389575481,0.022919103294610974
1772702670679335200,3.235335205078125,0.02045505126863718,0.017011925077438355,0.019219079732894898
1772702670689385200,3.24538525390625,0.03674187694191933,0.027385142792761323,0.009413140511512756
1772702670699435300,3.255435302734375,0.005080372004210949,0.016090426318347454,0.0048012628018856045
1772702670709485000,3.265485107421875,-0.005417641134560108,0.014944471153616905,-0.00018237082958221434
1772702670719535000,3.27553515625,-0.027603461718559263,-0.005677753375470638,-0.004027940341830253
1772702670729585200,3.285585205078125,-0.003590717968344688,-0.031220190910995003,-0.0033481413841247557
1772702670739635200,3.29563525390625,0.02269289332330227,-0.03639116380810738,0.012923194459080696
1772702670749685200,3.305685302734375,0.008528174370527266,-0.010931436119973659,0.038460955819487566
1772702670759734300,3.315734375,0.012956512206792831,-0.013235329148173332,0.01842763709425926
1772702670769784300,3.325784423828125,0.010541560019552707,-0.0036377719804644585,-0.008784194958209991
1772702670779834400,3.33583447265625,-0.0051668812438845635,0.011876315754652023,-0.008902268379926682
1772702670789884200,3.34588427734375,-0.013851415219902992,0.022078560817241667,0.001986205381155014
1772702670799934200,3.355934326171875,0.0007134089663624763,0.011714695452153681,0.014963760375976562
1772702670809984300,3.365984375,0.019783727878332137,-0.009843056361377238,0.03431903370916843
1772702670820034300,3.376034423828125,0.011599544639885426,0.0043301381587982175,0.010590367597341537
1772702670830084000,3.386083984375,-0.00531213493347168,-0.0013157587736845017,0.004780804535746574
1772702670840134100,3.396134033203125,-0.02388181084692478,-0.005565817433595657,0.020521394503116606
1772702670850183200,3.40618310546875,-0.024737843154370782,-0.022676526710391044,0.005807809495925903
1772702670860233000,3.41623291015625,-0.03202040137797594,-0.011420973202586173,0.02510755324959755
1772702670870283000,3.426282958984375,-0.031956980752944945,-0.014313772034645079,0.01528758550286293
1772702670880332800,3.436332763671875,-0.015331424644589423,-0.01592237627506256,0.021107669958472252
1772702670890382800,3.4463828125,-0.016043372306227682,-0.02122837372869253,0.035521979758143425
1772702670900433000,3.456432861328125,-0.007729425208270549,-0.011635200475156307,0.03467676110565662
1772702670910483000,3.46648291015625,0.005172434201836586,0.00341068522632122,0.03566752570867538
1772702670920532700,3.47653271484375,-0.004079378268122673,0.002387479658424854,0.0483586649775505
1772702670930581800,3.486581787109375,-0.018868366599082944,0.015541268002986906,0.02004325559735298
1772702670940631800,3.4966318359375,-0.011775485728681086,0.002822656205296516,0.000685059654712677
1772702670950681600,3.506681640625,-0.005568447782099246,-0.004311141197383403,-0.0014998831689357758
1772702670960731600,3.516731689453125,-0.04093319115191698,-0.009779635736346244,0.011702128231525421
1772702670970781700,3.52678173828125,-0.032736440692842005,-0.00909662190824747,-0.006627893707156181
1772702670980831700,3.536831787109375,-0.038460663558542725,-0.016479425635933874,-0.015122750329971313
1772702670990881800,3.5468818359375,-0.016776070494949818,-0.020804303097724915,-0.009679097971320152
1772702671000931800,3.556931884765625,0.026899989624321458,0.013518822264671325,-0.01695639549791813
1772702671010982000,3.56698193359375,0.01497603533565998,0.02422171032577753,0.0019610709398984907
1772702671021031000,3.577031005859375,0.007470774272084236,-0.006941197440028191,0.02237082176208496
1772702671031080700,3.587080810546875,0.01134089370369911,0.00022650223225355147,0.031523265510797496
1772702671041130800,3.597130859375,-0.0007552022814750671,0.02193652199804783,0.03775017720162868
1772702671051180800,3.607180908203125,-0.028309271900355815,0.021149463273584843,0.0202080907702446
1772702671061230800,3.61723095703125,-0.007207447160780429,0.002073591403663158,0.023617022430896757
1772702671071280600,3.62728076171875,-0.024437106642127036,0.008043605723977089,0.003450432714819908
1772702671081330700,3.63733056640625,0.004455810365080833,0.024865853448212145,0.00609071809053421
1772702671091380700,3.647380615234375,0.02670008313804865,0.013461831380426883,-0.014249474626779555
1772702671101430800,3.6574306640625,0.013256371936202048,0.006223112298548221,0.002765373060107231
1772702671111479800,3.667479736328125,-0.001888297964632511,0.013648293863236903,0.018866613033413887
1772702671121529900,3.67752978515625,-0.0013137129470705985,0.0031099487140774725,0.010881459498405455
1772702671131580000,3.687579833984375,-0.00701572398096323,0.012301263168454169,0.007446224352717399
1772702671141629700,3.697629638671875,-0.00803396111279726,0.017548223911225794,0.005917699611186981
1772702671151679700,3.7076796875,0.0035962709262967107,0.021105624131858347,0.0022831425011157988
1772702671161729800,3.717729736328125,0.02380202360898256,0.013482581907510756,0.010945172384381294
1772702671171779800,3.72777978515625,0.009227847072482108,0.024904139631986618,0.0036357261538505553
1772702671181829600,3.73782958984375,0.014398527708649635,0.025115152034163472,-0.015942250019311904
1772702671191879700,3.747879638671875,0.0034703064590692516,0.015113397979736327,0.0021130466312170026
1772702671201929000,3.757928955078125,-0.001118190374970436,0.01849690293818712,0.00531213493347168
1772702671211979000,3.76797900390625,0.0061561845421791075,0.03209726600646973,-0.00706102442741394
1772702671222028800,3.77802880859375,-0.0012678279787302017,0.025038579666614533,-0.0026671733826398847
1772702671232078800,3.788078857421875,-0.002554068396985531,0.0018669629156589508,0.031791561058163643
1772702671242129000,3.79812890625,0.008082768690586089,0.01689618974328041,0.008130114963650703
1772702671252179000,3.808178955078125,0.021059154641628264,0.009429214863479137,0.0022638532787561416
1772702671262228700,3.818228759765625,0.017225860089063644,-0.006273965702950954,0.011739537632465363
1772702671272278800,3.82827880859375,0.00518704724907875,0.016342062991857528,0.015334931775927542
1772702671282328800,3.838328857421875,0.005085340440273285,0.03375233973711729,-0.0030120412975549694
1772702671292377600,3.848377685546875,0.009401157812774182,0.03278144887834787,-0.016330372554063798
1772702671302427600,3.858427734375,0.004188976122438908,0.037131753042340274,-0.010111644169688225
1772702671312478000,3.86847802734375,-0.002196341000497341,0.011467150431871414,-0.002963525980710983
1772702671322528000,3.878528076171875,-0.004233107525110244,0.02138736368268728,0.00710544809103012
1772702671332577800,3.888577880859375,0.017288403931260108,0.007222060208022594,0.008362170153856277
1772702671342627800,3.8986279296875,0.026627894684672353,0.006935059960186481,0.011819617131352425
1772702671352678000,3.908677978515625,0.018097674487531183,-0.007807166619598865,0.02097089183628559
1772702671362728000,3.91872802734375,-0.002047287918627262,0.017911504265666008,-0.0027776480197906493
1772702671372777700,3.92877783203125,-0.009477145658433437,0.03262216666340828,-0.009513093754649161
1772702671382826800,3.93882666015625,-0.03644961599707603,0.015727438224852085,0.015061960053443908
1772702671392876800,3.948876708984375,-0.00594341857433319,0.015228841052949428,0.03530161500573158
1772702671402926600,3.958926513671875,0.00490472317636013,0.02528349433839321,0.010495090529322624
1772702671412976600,3.9689765625,0.005485153412818908,0.008321838143467902,0.003177460992336273
1772702671423026700,3.979026611328125,0.00041851767301559446,0.01783434737622738,-0.00861176100075245
1772702671433076700,3.98907666015625,-0.03336860111653805,0.015012567953765392,-0.005489829587936401
1772702671443126800,3.999126708984375,-0.02453267597109079,0.006967500925064087,0.0064221420019865035
1772702671453176800,4.0091767578125,-0.02537584879696369,0.026635785730183124,0.012656067955493927
1772702671463227000,4.019226806640625,0.0062421092599630355,0.02363397356569767,0.04049743008315563
1772702671473276000,4.02927587890625,0.003186228820681572,0.02151975789070129,0.04235737873613834
1772702671483325700,4.03932568359375,0.024556933629512785,0.010437222862243651,0.029449966368079183
1772702671493375700,4.049375732421875,0.012194003401696681,0.006695405985414981,0.017197218516469
1772702671503425800,4.05942578125,0.004932487966120243,0.014799801985919474,0.00697217710018158
1772702671513475800,4.069475830078125,-0.02655833657979965,0.027666590082645416,-0.014171733215451239
1772702671523525600,4.079525634765625,-0.010187924276292323,0.03575082007795572,-0.012917933762073517
1772702671533575700,4.08957568359375,-0.009512509232759475,0.004923427876830101,-0.03277764948606491
1772702671543625700,4.099625732421875,-0.026933599632978436,-0.014709493353962898,-0.04171791178882122
1772702671553675800,4.10967578125,-0.02716360899657011,-0.003684533731639385,-0.023626374781131745
1772702671563724800,4.119724853515625,-0.0006651859104633331,-0.01262275020778179,0.013738017973303793
1772702671573774800,4.12977490234375,-0.0029559271961450573,-0.01153875436335802,0.029099253234267233
1772702671583825000,4.139824951171875,-0.005202244818210602,-0.005411503654718399,0.03588789046108722
1772702671593874700,4.149874755859375,-0.03245703922957182,0.002006079125404358,0.025021044009923932
1772702671603924700,4.1599248046875,-0.03795329855829477,0.012372574838995933,0.04274199413955211
1772702671613974800,4.169974853515625,-0.02358516598790884,0.011967793430387973,0.031039281386137006
1772702671624024800,4.18002490234375,-0.009726444244384765,0.008587503342330455,0.0195849904358387
1772702671634074600,4.19007470703125,-0.015614040978252888,0.012103110247850418,0.040732992404699325
1772702671644124700,4.200124755859375,-0.011740998937189578,0.02305354332923889,0.033784196180105204
1772702671654174000,4.210174072265625,-0.0070811904326081275,0.006984452059864998,0.025038579666614533
1772702671664224000,4.22022412109375,-0.009091068950295447,-0.003512684296071529,-0.005748188263177871
1772702671674273800,4.230273681640625,-0.008822481141984462,-0.008182429672777653,-0.002163315513730049
1772702671684323800,4.24032373046875,0.0036418636336922644,-0.0033463878184556957,0.018749124133586884
1772702671694374000,4.250373779296875,0.004560439783334732,-0.015410335099697112,0.026901450929045674
1772702671704424000,4.260423828125,0.016070844835042952,-0.0036059155374765393,-0.0007470189750194549
1772702671714473700,4.2704736328125,0.014258242455124854,0.004938040924072265,-0.010158990442752838
1772702671724523800,4.280523681640625,0.015761925016343593,0.026114684465527532,0.01929506757855415
1772702671734573800,4.29057373046875,-0.0043301381587982175,0.02048281605839729,0.0030389293044805524
1772702671744622600,4.30062255859375,-0.017948621405661103,0.004790449146926403,0.003296703457832336
1772702671754672600,4.310672607421875,-0.015405951185524463,-0.012994506129622458,0.002804536026716232
1772702671764723000,4.320722900390625,0.006738076083362102,-0.0030231472134590147,0.005346621724963188
1772702671774773000,4.33077294921875,0.023524083450436592,-0.004900047001242637,-0.0012146364867687224
1772702671784822800,4.34082275390625,0.022271160779893398,0.019996786107122896,0.044105099186301226
1772702671794872800,4.350872802734375,0.01438917535841465,0.014349720130860805,0.0346907896310091
1772702671804923000,4.3609228515625,0.0010334347009658812,-0.0006371288597583771,0.02268178740739822
1772702671814973000,4.370972900390625,-0.023988778352737425,-0.008660860839486122,-0.01796586480140686
1772702671825022700,4.381022705078125,-0.013461246858537196,-0.0244037888944149,0.04091185610294342
1772702671835072800,4.39107275390625,-0.0044297991409897805,-0.005998655892908573,0.03568330779969692
1772702671845121800,4.401121826171875,0.007902735948562622,0.010596505077183247,0.03140577661097049
1772702671855171600,4.411171630859375,0.0008218377768993377,0.00492430465966463,0.02348959665894508
1772702671865221600,4.4212216796875,-0.010231763418018817,0.009620645782351493,0.01173135432600975
1772702671875271700,4.431271728515625,0.0022679449319839475,0.013485796777904032,0.01591243940293789
1772702671885322800,4.44132275390625,0.020743220560252667,0.018325053502619267,-0.004423077139258384
1772702671895372800,4.451372802734375,0.013950783941149712,0.022804829265177247,0.02671791105568409
1772702671905422600,4.461422607421875,-0.0017538579300045967,0.031174013681709765,0.028190321695804595
1772702671915472600,4.47147265625,-0.026317805822193622,0.028527883087098596,0.022439795345067976
1772702671925522700,4.481522705078125,-0.02001139915436506,0.034088732084631916,-0.0010094693034887314
1772702671935572000,4.491572021484375,-0.032820904105901716,0.0401543157339096,-0.0014940379500389099
1772702671945621800,4.501621826171875,-0.021458383092284202,0.03329670492410659,-0.01428454594016075
1772702671955671800,4.511671875,-0.0035576924815773963,0.020014321763813493,-0.01735153229534626
1772702671965721900,4.521721923828125,0.018510639202594756,0.003280336844921112,-0.008839724537730216
1772702671975772000,4.53177197265625,0.037300679868459696,0.0009928104296326637,0.004721183302998542
1772702671985821700,4.54182177734375,0.02668079391568899,-0.006816109755635261,0.034648704054951664
1772702671995871700,4.551871826171875,0.00665887336730957,0.010317395874857901,0.0026607436418533323
1772702672005921800,4.561921875,-0.02925327475219965,0.0017094342663884162,0.018481413108110425
1772702672015971800,4.571971923828125,-0.02532265730500221,0.014080840061604975,0.03734393448829651
1772702672026020900,4.582020751953125,-0.025508535265922543,0.023752631509304047,0.03822831610739231
1772702672036071000,4.59207080078125,-0.03098638215512037,0.020135902316868303,0.027329905474185942
1772702672046121000,4.602120849609375,-0.0017968202888965605,0.024273732773959635,0.02239128002822399
1772702672056170800,4.612170654296875,0.01395429107248783,0.030763971576094624,0.004960837277770042
1772702672066220800,4.622220703125,0.003713759826123714,0.02619184135496616,0.0007055179208517074
1772702672076270800,4.632270751953125,0.011932137595117092,0.002952420064806938,0.011514496704936027
1772702672086321000,4.64232080078125,0.010006722490489482,0.014746318233013152,0.01535071386694908
1772702672096370700,4.65237060546875,0.003585457271337509,0.018111995273828504,0.019084055176377294
1772702672106420700,4.662420654296875,0.00625409195870161,0.018112579795718193,0.010216858109831809
1772702672116469800,4.6724697265625,0.013142390167713165,0.0301987389087677,0.029592005187273025
1772702672126519800,4.682519775390625,-0.0013306640818715094,0.02743541167527437,0.021014730978012083
1772702672136569900,4.69256982421875,0.007906535340845584,0.041052141356468196,0.03980301807820797
1772702672146620000,4.702619873046875,0.00533259319961071,0.02167904010564089,0.010927636727690697
1772702672156670000,4.712669921875,0.0027925533279776573,0.026676994523406026,0.004437105664610862
1772702672166720000,4.722719970703125,-0.007810381489992141,0.00602057546377182,-0.014048983618617056
1772702672176769800,4.732769775390625,-0.004196282646059989,-0.005019581727683544,-0.017622750452160833
1772702672186819800,4.74281982421875,-0.0016246785923838614,-0.00867225901633501,0.022927286601066587
1772702672196870000,4.752869873046875,0.01681961737573147,-0.014912030188739298,0.020151976668834684
1772702672206918700,4.762918701171875,0.021710896548628806,-0.0013104980766773223,0.030254268488287925
1772702672216968700,4.77296875,0.021862872239947317,0.015062252314388751,0.0329436537027359
1772702672227018800,4.783018798828125,0.04416735076755285,0.021938275563716886,0.032224691778421403
1772702672237068800,4.79306884765625,0.014421324062347411,0.01183247661292553,0.025672201395034788
1772702672247118600,4.80311865234375,0.020578969909250736,0.0057034723386168475,0.014692542219161987
1772702672257169000,4.8131689453125,0.001685176607966423,0.010685352404415607,0.03482698323130608
1772702672267219000,4.823218994140625,-0.012485387563705444,0.002706044088304043,0.04020809174776077
1772702672277269000,4.83326904296875,-0.00851969880312681,0.007208616204559802,0.02408230185508728
1772702672287318800,4.84331884765625,-0.013213409577310084,0.00447772993594408,-0.020649989318847654
1772702672297367800,4.853367919921875,-0.010930559337139129,0.005858370639383792,-0.03023614830970764
1772702672307417900,4.86341796875,-0.011728431716561316,-0.009443827910721302,-0.03990414036512375
1772702672317467600,4.873467529296875,0.003938800753653049,-0.01549976694881916,-0.02864917137920856
1772702672327517700,4.883517578125,0.0249614227771759,-0.04517477424442768,-0.000026888006925582884
1772702672337567700,4.893567626953125,0.03553074758648872,-0.0429079983562231,0.046557753035426135
1772702672347617800,4.90361767578125,0.04265606942176819,-0.024131693954765797,0.05839958199858665
1772702672357667600,4.91366748046875,0.034441783306002616,-0.013601239851117133,0.0665150839149952
1772702672367717600,4.923717529296875,0.006610358050465583,0.01249298634827137,0.06984452059864997
1772702672377767700,4.933767578125,-0.010014613536000251,0.026105916637182234,0.06717851625978946
1772702672387818000,4.94381787109375,-0.023898469720780847,0.04805179098546505,0.017954758885502815
1772702672397866800,4.95386669921875,-0.03442307860553264,0.049102469082176685,-0.014116203635931013
1772702672407916800,4.963916748046875,-0.04141863658130169,0.03445230470001697,-0.0027028292179107666
1772702672417966800,4.973966796875,-0.004717968432605266,0.017948621405661103,-0.0064963762819767
1772702672428017000,4.984016845703125,0.029487668029963967,-0.0014256488889455795,0.005861000987887382
1772702672438066700,4.994066650390625,0.05016688344329595,0.005990472586452961,0.021072598645091055
1772702672448116700,5.00411669921875,0.049989481049776074,0.00021714988201856613,0.005438976183533668
1772702672458166800,5.014166748046875,0.039895957058668136,0.020253975738584996,-0.005429623833298683
1772702672468216800,5.024216796875,0.00892448021173477,0.024423662638664245,0.01784428424835205
1772702672478266600,5.0342666015625,-0.007344517543911934,0.017870295472443103,0.049480947005748746
1772702672488316000,5.04431591796875,-0.01956044051647186,0.02694265972226858,0.05629179606437683
1772702672498366000,5.054365966796875,0.008185644543170929,0.03083820585608482,0.04586392555236816
1772702672508415700,5.064415771484375,0.009349427625536918,0.033384675468504425,0.014265256717801093
1772702672518465800,5.0744658203125,0.032387481124699115,0.01825344957113266,0.012119476860761641
1772702672528515800,5.084515869140625,0.03245791601240635,-0.007080898171663284,0.009539981761574745
1772702672538566000,5.09456591796875,0.020191139635443688,0.006805880622565746,0.003025485301017761
1772702672548615700,5.10461572265625,0.01355214001238346,0.010449205560982227,0.004985971719026565
1772702672558665700,5.114665771484375,0.014785481199622154,0.007137889055907726,-0.02310848838686943
1772702672568715800,5.1247158203125,0.004106850796937942,0.001672317126393318,-0.014178162956237791
1772702672578764800,5.134764892578125,0.02348141335248947,0.004119125756621361,0.0067272624284029
1772702672588814800,5.14481494140625,0.020453005442023275,0.015504443123936652,0.010623100823163985
1772702672598865000,5.154864990234375,0.00976151555776596,0.01896539723277092,0.021897943553328515
1772702672608915000,5.1649150390625,0.03282967193424702,0.021767887432873247,0.030068975049257277
1772702672618965000,5.174965087890625,0.04462795401662588,0.03779518538713455,0.033062311646342275
1772702672629014800,5.185014892578125,0.03706336398124695,0.03920096053183079,0.02554477562308311
1772702672639064800,5.19506494140625,0.015510288342833517,0.046320144887268544,0.019000468546152113
1772702672649115000,5.205114990234375,0.0011637830823659895,0.047564884251356125,-0.004574468308687209
1772702672659165000,5.2151650390625,-0.006587561696767806,0.038814883823692796,-0.031043373039364813
1772702672669214700,5.225214599609375,-0.005701718772947788,0.03620966976135969,-0.020358897417783735
1772702672679263700,5.235263671875,0.013548340620100498,0.025442192031443118,-0.009006313276290893
1772702672689313800,5.245313720703125,0.04851882397532463,0.004788695581257343,-0.0056873979866504665
1772702672699363600,5.255363525390625,0.07461772634983062,0.006264028830826282,0.00942775355875492
1772702672709414000,5.265413818359375,0.06476210276782512,0.02620148596614599,0.00871931302845478
1772702672719464000,5.2754638671875,0.043567339047789574,0.03396189083456993,0.0024555764585733413
1772702672729514000,5.285513916015625,0.007589432215690612,0.028887364049255845,0.006873392900824547
1772702672739563800,5.295563720703125,-0.01759235531389713,0.04501724559515714,-0.012620412120223044
1772702672749613800,5.30561376953125,-0.03258563404530287,0.04606558560431003,-0.01026478890478611
1772702672759663900,5.315663818359375,-0.012381342667341231,0.031419805136322976,-0.0036140988439321516
1772702672769712600,5.325712646484375,0.01641688179373741,0.01992488991469145,-0.02382394317984581
1772702672779762700,5.3357626953125,0.04775719195306301,0.01816752485334873,0.0208136554479599
1772702672789812700,5.345812744140625,0.050370297060906885,0.010576046811044215,0.05864917284548282
1772702672799862800,5.35586279296875,0.04173749327212572,0.02034691471904516,0.05988134498894214
1772702672809912600,5.36591259765625,0.004730535653233528,0.01132657291740179,0.027411738538742063
1772702672819962600,5.375962646484375,-0.019491174672544,0.01986819129139185,-0.017511106771230696
1772702672830012700,5.3860126953125,-0.0405748792335391,0.0221381820499897,-0.032283728489279746
1772702672840062000,5.39606201171875,-0.026676117740571496,0.02056874077618122,-0.009026187020540238
1772702672850111700,5.40611181640625,0.007148118188977241,-0.003701777127385139,0.005147884282469749
1772702672860161800,5.416161865234375,0.027769758196175096,0.001532324133813381,0.038324177697300905
1772702672870211800,5.4262119140625,0.04690612808167934,-0.01820902590751648,0.024279285731911657
1772702672880262000,5.436261962890625,0.04600421080589294,-0.01376519824117422,0.008428221127390861
1772702672890311400,5.4463115234375,0.009515431842207909,0.009315233094990253,0.018846154767274855
1772702672900361500,5.456361572265625,-0.0357256856366992,0.021440262913703916,0.019885434687137604
1772702672910411300,5.466411376953125,-0.02918956186622381,0.02487871292978525,-0.0005289923101663589
1772702672920461300,5.47646142578125,-0.03666442779153585,0.02414543021917343,0.006340308937430382
1772702672930511400,5.486511474609375,-0.014190730176866053,0.02978606645464897,0.03328501448631287
1772702672940560400,5.496560302734375,0.015646774204075335,0.04132394403517246,0.03822480897605419
1772702672950610400,5.5066103515625,0.024305589216947553,0.0317170345172286,0.0139817636013031
1772702672960660500,5.516660400390625,0.03853226749002933,0.027847499607503413,-0.0004559270739555359
1772702672970710500,5.52671044921875,0.026514789699018,0.01849398032873869,-0.0017108955711126327
1772702672980760300,5.53676025390625,-0.0020969722792506217,0.004214110563695431,0.007107786178588866
1772702672990810400,5.546810302734375,-0.03380143957585096,-0.000929097543656826,0.026711481314897537
1772702673000860400,5.5568603515625,-0.04511690657734871,-0.013911328713595867,0.0325906024813652
1772702673010910500,5.566910400390625,-0.027831132994592188,-0.01117839661836624,-0.015216858354210853
1772702673020960300,5.576960205078125,-0.028725451485812663,0.001846212388575077,-0.019409049347043038
1772702673031009500,5.587009521484375,-0.02388268762975931,0.0036661212921142577,-0.025840543699264525
1772702673041059600,5.5970595703125,-0.0017985738545656202,0.004411678962409496,-0.00718085141479969
1772702673051109400,5.607109375,0.010654957266151904,0.0018915128350257872,-0.0022328736186027526
1772702673061159400,5.617159423828125,0.022201602675020693,0.005159574720263481,-0.0018774843096733091
1772702673071209500,5.62720947265625,0.016805004328489304,-0.004107435318827629,0.028936756148934362
1772702673081259500,5.637259521484375,0.015637714114785192,0.0004980126500129699,0.03739420337080955
1772702673091309300,5.647309326171875,-0.03048573915660381,-0.010176526099443434,0.07979132959544658
1772702673101359400,5.657359375,-0.04888298111259937,0.0003159340813755989,0.08524199621677399
1772702673111409400,5.667409423828125,-0.033434359829127784,0.03968231430798769,0.033543373161554334
1772702673121458400,5.67745849609375,-0.01900631376504898,0.02454319736510515,0.011200608450174331
1772702673131508200,5.68750830078125,0.0016945289582014082,0.017099603360891343,0.009041384589672088
1772702673141559300,5.697559326171875,0.018481997630000115,0.04090571862310171,0.01589490374624729
1772702673151608600,5.707608642578125,0.03017214316278696,0.030190263341367242,0.008437573477625847
1772702673161658600,5.71765869140625,0.014139292250573634,0.015167173993587493,-0.004398527219891548
1772702673171708400,5.72770849609375,-0.022713643850386142,-0.014392390228807925,-0.016062077006697654
1772702673181758500,5.737758544921875,-0.045557343821227544,-0.0007508183673024177,0.0031511575073003765
1772702673191808500,5.74780859375,-0.018148235630989072,0.016883914783596993,0.028752047231793403
1772702673201858600,5.757858642578125,-0.00002221183180809021,0.03080897976160049,0.016747721183300018
1772702673211908400,5.767908447265625,0.020684476110339165,0.015269465324282645,0.011436170771718025
1772702673221958400,5.77795849609375,0.04246200815439224,0.013995207604765891,0.02269756949841976
1772702673232008400,5.788008544921875,0.028962182851135727,0.040571372102200985,0.008117255482077599
1772702673242057200,5.79805712890625,0.004730535653233528,0.022873802848160266,-0.003985854765772819
1772702673252107300,5.808107177734375,-0.008106441827118397,0.013180091829597949,-0.007166822889447212
1772702673262157600,5.818157470703125,-0.027870588222146032,0.015584522622823714,-0.0006143325060606002
1772702673272207600,5.82820751953125,-0.01438303787857294,0.008974749094247817,0.01568506038784981
1772702673282257400,5.83825732421875,0.011309914043545722,-0.0037140520870685575,-0.003362169909477234
1772702673292307500,5.848307373046875,0.04673515542894602,0.028958091197907924,-0.015767477974295615
1772702673302357500,5.858357421875,0.04995090260505676,0.036975685697793956,-0.013150573474168776
1772702673312407600,5.868407470703125,0.012717442753911018,0.021899989379942416,-0.008642740660905838
1772702673322457300,5.878457275390625,0.03698123865574598,0.030398060873150824,0.004729366609454154
1772702673332507400,5.88850732421875,0.0058121934100985526,0.0452782346189022,0.016036358043551444
1772702673342556400,5.898556396484375,0.010108429299294949,0.05834580598473549,-0.00034720600247383117
1772702673352606500,5.9086064453125,0.006452244879305362,0.04713058448731899,0.01146247425675392
1772702673362656300,5.91865625,-0.015230886879563331,0.03151303637772798,-0.007823240971565245
1772702673372706300,5.928706298828125,-0.0010588614031672478,0.025711948883533477,-0.0058043023645877835
1772702673382756400,5.93875634765625,0.02377162847071886,0.02935819643139839,0.011027589970827102
1772702673392806700,5.948806640625,0.0443026675850153,0.016608020451664925,-0.002390110006928444
1772702673402856400,5.9588564453125,0.015410627360641955,0.006528524985909462,-0.005467033234238625
1772702673412906500,5.968906494140625,0.021117022308707236,0.013863397918641567,0.0031517420291900635
1772702673422956500,5.97895654296875,0.004733458262681961,0.01395955176949501,0.012872341054677962
1772702673433005300,5.98900537109375,0.001976560769975185,0.008743862947821616,0.021228665989637373
1772702673443055400,5.999055419921875,-0.009506371752917766,0.009158288967609405,0.022470190483331678
1772702673453105400,6.00910546875,-0.007792261311411857,0.009260580298304557,0.024387422281503677
1772702673463155500,6.019155517578125,0.005322948588430881,0.01507014335989952,0.0019639935493469237
1772702673473205200,6.029205322265625,0.0376969857096672,0.032063071475923056,0.002661328163743019
1772702673483255300,6.03925537109375,0.0483066425293684,0.03744330320954323,0.005555296039581299
1772702673493305300,6.049305419921875,0.023635434870421884,0.019757424393296242,0.028866029000282286
1772702673503355400,6.05935546875,-0.0053033671051263805,0.017076807007193565,0.011661796221137046
1772702673513405400,6.069405517578125,-0.004641396065056324,0.030389293044805525,0.0228004453510046
1772702673523455500,6.07945556640625,0.01111702181994915,0.029992110420763492,0.0031838907331228255
1772702673533504500,6.08950439453125,0.017330489507317543,0.033253742565214635,-0.013519991308450698
1772702673543554300,6.09955419921875,0.03744593355804682,0.020811025099456308,0.0018570260435342787
1772702673553604400,6.109604248046875,0.041971302028000354,0.0036377719804644585,0.03194704388082027
1772702673563654400,6.119654296875,0.008333528581261634,0.012310907779633997,0.026765841850638388
1772702673573704400,6.129704345703125,0.01072743798047304,-0.008783902697265148,-0.0004623568147420883
1772702673583754500,6.13975439453125,0.006205868902802467,-0.0029249475359916684,0.0003144727766513824
1772702673593804300,6.14980419921875,0.014683482129871844,0.0023491934746503827,-0.005505611678957939
1772702673603854300,6.159854248046875,0.01719634173363447,0.0002826163336634636,-0.0014379238486289978
1772702673613904400,6.169904296875,0.010184709405899047,0.00812280844002962,0.0009510171145200729
1772702673623954400,6.179954345703125,0.0071568860173225396,0.0017450901016592979,0.02359422607719898
1772702673634003500,6.19000341796875,0.005068097044527531,0.023968612347543237,0.03140343852341175
1772702673644053500,6.200053466796875,0.03594020517021417,0.037328152397274966,0.022333996883034706
1772702673654103600,6.210103515625,0.024215280584990978,0.02863309702724218,0.009482114094495772
1772702673664153300,6.2201533203125,0.03456102577149868,0.015076280839741229,-0.0022813889354467392
1772702673674203400,6.230203369140625,0.023652093744277954,0.012122691731154918,0.02270750637054443
1772702673684253400,6.24025341796875,-0.015927052450180054,0.0115440150603652,0.020429624566435812
1772702673694303500,6.250303466796875,-0.003448679149150848,0.015093524235486983,0.0038157588958740232
1772702673704353300,6.260353271484375,0.0172255678281188,-0.009156535401940346,0.029391514179110526
1772702673714403300,6.2704033203125,0.011046586932241916,0.002175298212468624,-0.007666589105129242
1772702673724452600,6.28045263671875,-0.01570493413209915,0.011342647269368171,-0.019442951616644857
1772702673734502400,6.29050244140625,-0.016769933015108106,0.006143909582495689,-0.011986790391802787
1772702673744552400,6.300552490234375,-0.016494623205065725,0.006949965268373489,-0.011936521509289741
1772702673754602500,6.3106025390625,-0.029139877505600452,0.00041501054167747495,0.019347674548625945
1772702673764652500,6.320652587890625,-0.019371639946103095,0.0018590718701481817,0.016495207726955414
1772702673774702300,6.330702392578125,-0.004907061263918876,0.0015539514437317846,0.004987725284695625
1772702673784752400,6.34075244140625,0.005555880561470985,-0.012444471031427382,0.03244622557461262
1772702673794802400,6.350802490234375,0.020247545997798443,0.017596446967124937,0.05584288325309753
1772702673804852500,6.3608525390625,0.0034080548778176304,0.02145399917811155,0.0660135641336441
1772702673814902300,6.37090234375,0.008280044828355312,0.005910685348510742,0.021430910563468932
1772702673824951300,6.380951416015625,0.0035296354308724403,0.009016250148415565,0.004696633383631706
1772702673835001300,6.39100146484375,0.004407295048236846,0.023112580040097235,0.006978606840968132
1772702673845051600,6.4010517578125,0.011241232721507548,0.018114625622332094,-0.002977554506063461
1772702673855101400,6.411101318359375,0.006119944185018539,0.003236497703194618,0.0023790040910243986
1772702673865151500,6.4211513671875,-0.024448504818975925,-0.002973462852835655,-0.0008159925580024719
1772702673875201500,6.431201416015625,-0.016124620848894117,-0.013497487215697764,-0.019921090522408483
1772702673885251600,6.44125146484375,-0.009275777867436408,-0.007651976057887077,-0.04290507574677467
1772702673895301600,6.451301513671875,0.019219079732894898,0.01596767672151327,-0.02398819383084774
1772702673905351400,6.461351318359375,0.00817687671482563,0.04514963980317115,0.0071627312362194055
1772702673915401500,6.4714013671875,0.01705430291444063,0.03734071961790323,0.011781623208522796
1772702673925450500,6.481450439453125,-0.004054536087810993,0.015213643483817577,0.015277648630738258
1772702673935500300,6.491500244140625,-0.018336451679468155,0.03895750716477632,0.013197335225343703
1772702673945550300,6.50155029296875,-0.013617314203083514,0.01945639562010765,0.01640636039972305
1772702673955600400,6.511600341796875,-0.014686404739320277,0.0059016252592206,0.021340309670567513
1772702673965650400,6.521650390625,-0.007303308750689029,-0.0001727262184023857,0.014811200162768363
1772702673975700500,6.531700439453125,-0.004128770367801189,0.0058306058496236796,-0.0132236387103796
1772702673985750500,6.54175048828125,0.015246961231529712,0.012727087365090846,-0.016088965013623238
1772702673995800600,6.551800537109375,0.014488836340606211,0.0024409634113311766,-0.00962649100124836
1772702674005850600,6.5618505859375,0.0026338556349277493,0.015354513259232044,0.021112346133589744
1772702674015899400,6.5718994140625,-0.0003673720076680183,0.026865210571885106,0.012409399718046188
1772702674025949400,6.581949462890625,-0.010333762487769127,0.0192690563544631,0.0051508068919181825
1772702674035999500,6.59199951171875,-0.0054018590435385705,0.001064122100174427,0.01353343531191349
1772702674046049300,6.60204931640625,0.007787877397239208,0.014510463650524615,0.015871522870659828
1772702674056099300,6.612099365234375,-0.0003793547064065933,0.022678280276060104,-0.0011257891595363616
1772702674066149400,6.6221494140625,-0.00156330379396677,0.019587328523397445,0.001325111123919487
1772702674076199400,6.632199462890625,0.020191724157333373,0.03379705566167831,-0.010027473017573356
1772702674086249500,6.64224951171875,-0.003133037328720093,0.028679274256527422,-0.01316343295574188
1772702674096299500,6.652299560546875,-0.009420154774188994,0.021807342660427092,-0.02416939561665058
1772702674106349600,6.662349609375,0.0033270985960960385,0.012031214055418968,-0.00020808979272842406
1772702674116398600,6.672398681640625,0.00022445640563964844,0.017988368894159792,-0.0033960721790790554
1772702674126448400,6.682448486328125,0.009219371505081652,0.01621434495896101,-0.017848375901579856
1772702674136498400,6.69249853515625,0.005560848997533321,0.0032549101427197455,-0.009925766208767891
1772702674146548500,6.702548583984375,0.018974165061116217,0.00961772317290306,-0.0022264438778162
1772702674156598500,6.7125986328125,0.007237550038099288,0.02052344032973051,0.010758709901571272
1772702674166648300,6.7226484375,-0.004426876531541347,0.0162365567907691,0.014838088169693946
1772702674176698400,6.732698486328125,-0.01727963610291481,0.035651451356709,-0.0048363341152668
1772702674186748400,6.74274853515625,0.009346797277033329,0.0023547464326024053,0.034520109239220616
1772702674196798500,6.752798583984375,0.03823649941384792,0.0020955109745264054,0.017763035705685614
1772702674206848300,6.76284814453125,-0.0008344049975275993,-0.0044780221968889235,0.02144669265449047
1772702674216897500,6.7728974609375,-0.03429126891940832,0.00012801029384136198,0.017986907589435577
1772702674226947600,6.782947509765625,-0.037864158970117565,0.037598201510310174,-0.0073678984194993965
1772702674236997400,6.792997314453125,-0.01079933417290449,0.03847907599806785,-0.02035480576455593
1772702674247047400,6.80304736328125,0.027990707470476626,0.014455226331949234,-0.043374446824192996
1772702674257097500,6.813097412109375,0.026617373290657994,-0.0057595864400267595,-0.0060416182518005365
1772702674267147500,6.8231474609375,0.02361468434333801,-0.012933715853095053,0.034195115068554875
1772702674277197300,6.833197265625,0.0008875964894890784,-0.02224398051202297,0.03660451429784298
1772702674287247400,6.843247314453125,-0.017336042465269565,-0.0020616087049245835,0.038052375018596644
1772702674297297400,6.85329736328125,-0.022203648501634598,-0.0068920976012945175,0.017058102306723593
1772702674307346400,6.863346435546875,0.011131634867191313,-0.011372457885742187,0.01802197890281677
1772702674317396500,6.873396484375,0.012760112851858138,-0.0060863341763615604,-0.003985270243883132
1772702674327446500,6.883446533203125,-0.016947919930517672,-0.006467442448437214,0.009107435563206673
1772702674337496600,6.89349658203125,-0.023744448202848434,0.008729542161524296,0.01697334663271904
1772702674347546600,6.903546630859375,-0.00767184980213642,-0.003969780413806438,0.024546412235498426
1772702674357596400,6.913596435546875,0.006101531745493411,-0.0000637128859758377,0.021692191848158834
1772702674367646500,6.923646484375,0.034433015477657314,0.015041209526360034,0.01861468409895897
1772702674377696500,6.933696533203125,0.022507015362381935,0.0247501181140542,0.02691431041061878
1772702674387746600,6.94374658203125,0.000590074847638607,0.0058192076727747915,0.011405191111564636
1772702674397796400,6.95379638671875,-0.04192541705965996,-0.009958499434590339,0.0021656536012887953
1772702674407845400,6.963845458984375,-0.034919629950821394,0.027700492352247235,0.01632452733516693
1772702674417895700,6.973895751953125,-0.013501871129870413,0.018390519954264162,-0.015391045877337455
1772702674427945500,6.983945556640625,-0.010722469544410704,0.02258563355654478,-0.04541735082864761
1772702674437995500,6.99399560546875,-0.008337035712599753,0.022628011393547056,-0.03172317199707031
1772702674448045600,7.004045654296875,-0.02028729348629713,0.01488017374575138,-0.017162731724977492
1772702674458095600,7.014095703125,-0.026792437596619128,-0.026437340548634527,0.000685059654712677
1772702674468145400,7.0241455078125,-0.017787001103162763,-0.04214636633396148,0.026671733826398848
1772702674478195500,7.034195556640625,0.003320668855309486,-0.018311609499156473,0.04962941556572914
1772702674488245500,7.04424560546875,-0.002101356193423271,-0.010406243202090262,0.038950785163044926
1772702674498295600,7.054295654296875,-0.04293371731936931,-0.023793548041582107,0.04483750511407852
1772702674508344300,7.06434423828125,-0.05804360816776752,0.02804974418133497,0.041078444841504094
1772702674518394400,7.074394287109375,-0.07806435967236756,0.059791328617930406,0.04153261834979057
1772702674528444400,7.0844443359375,-0.018814882846176623,0.013867197310924529,-0.0014215572357177734
1772702674538494500,7.094494384765625,0.0165241415604949,0.01064034421890974,-0.011904957327246665
1772702674548544500,7.10454443359375,0.005698796163499355,-0.10498685338944196,-0.12340309230685233
1772702674558594600,7.114594482421875,0.5432581514060497,-0.009438859474658966,-0.0437707526654005
1772702674568644600,7.12464453125,0.4792401450037956,0.14500672908872364,0.26494156076312064
1772702674578694400,7.1346943359375,-0.36975393436849113,-0.006947042658925056,0.0917336963236332
1772702674588744400,7.144744384765625,-0.6988955801025033,0.0034399113208055496,-0.18619594082832336
1772702674598794500,7.15479443359375,-0.3225587602123618,-0.0027758944541215894,-0.04548749345541
1772702674608843500,7.164843505859375,0.07086801842749119,-0.027327567386627196,0.08840309059619902
1772702674618893300,7.174893310546875,0.18766601338088512,0.05489186613857746,0.03368658102452755
1772702674628943400,7.184943359375,0.11812807451337576,0.04521890564709902,0.023779519516229627
1772702674638993400,7.194993408203125,0.0037470775738358496,-0.018486966066062448,-0.010955109256505965
1772702674649043500,7.20504345703125,-0.03984919530749321,-0.04686988772451877,-0.02689034501314163
1772702674659093500,7.215093505859375,-0.07388064424693584,-0.037112756080925464,-0.013512392523884772
1772702674669143600,7.2251435546875,-0.1083423012971878,0.005741466261446475,-0.04357552235424518
