time,seconds_elapsed,z,y,x
1772702667513621200,0.069621337890625,0.004649492911994457,0.004664767533540726,-0.0074613699689507484
1772702667523671300,0.07967138671875,0.003917178139090538,-0.00040738005191087723,-0.006701058242470026
1772702667533721300,0.089721435546875,0.0024617603048682213,0.010610917583107948,-0.0025004541967064142
1772702667543771400,0.099771484375,0.003873682115226984,0.009191010147333145,0.0019830302335321903
1772702667553821400,0.109821533203125,0.0023010852746665478,-0.004989788867533207,-0.0030388925224542618
1772702667563871500,0.11987158203125,0.0026425349060446024,-0.008603899739682674,-0.0012356983497738838
1772702667573920500,0.12992041015625,0.0006656704354099929,-0.0064832246862351894,-0.005606744904071093
1772702667583970300,0.13997021484375,0.0003511043032631278,0.0009460956789553165,-0.006990610156208277
1772702667594020400,0.150020263671875,-0.0010790132218971848,0.00006245821714401245,-0.0075269704684615135
1772702667604070400,0.1600703125,-0.0002517345128580928,-0.002814344596117735,-0.004944170825183392
1772702667614120400,0.170120361328125,-0.0013606748543679714,-0.0025221961550414562,-0.0022660959511995316
1772702667624170200,0.180170166015625,0.0020341104827821255,-0.006566119380295277,-0.002205830067396164
1772702667634220300,0.19022021484375,0.00009639456402510405,-0.001068023033440113,-0.0018763970583677292
1772702667644270300,0.200270263671875,0.003167340997606516,0.005006511230021715,-0.002572402823716402
1772702667654320400,0.2103203125,0.002772660693153739,-0.00508926622569561,0.002719564363360405
1772702667664369400,0.220369384765625,0.000919790007174015,0.001365486066788435,0.0008245024946518242
1772702667674419500,0.23041943359375,-0.0016842489130795002,0.0006578848697245121,-0.0023678287398070097
1772702667684469500,0.240469482421875,0.0003115786239504814,-0.006837739143520594,-0.0018280273070558906
1772702667694519600,0.25051953125,0.0029387869872152805,-0.00442438293248415,0.0019171760650351644
1772702667704569300,0.2605693359375,0.0006262390525080264,-0.0029945150017738342,0.0056191617622971535
1772702667714619400,0.270619384765625,-0.001186841051094234,-0.00024746451526880264,0.0023115158546715975
1772702667724669400,0.28066943359375,-0.0005220629973337054,-0.005063170567154884,0.0008646997157484293
1772702667734719500,0.290719482421875,-0.0002738563343882561,0.001167826820164919,0.0036224029026925564
1772702667744768300,0.300768310546875,-0.00022408226504921913,0.004068491514772177,0.004293445963412523
1772702667754818600,0.310818603515625,-0.0013492677826434374,0.0040357341058552265,0.005950997583568096
1772702667764868600,0.32086865234375,-0.000669584609568119,0.00653947563841939,0.0044016605243086815
1772702667774918400,0.33091845703125,0.0010268490295857191,0.0057612997479736805,0.0023936370853334665
1772702667784968400,0.340968505859375,-0.0011935357470065355,0.007458578795194626,-0.006546021439135075
1772702667795018500,0.3510185546875,-0.002005001064389944,-0.0007423590868711472,-0.006312994752079248
1772702667805068500,0.361068603515625,-0.002599185798317194,-0.0030010477639734745,-0.005094564985483885
1772702667815118300,0.371118408203125,-0.002642329316586256,-0.00398029200732708,-0.002074273768812418
1772702667825168400,0.38116845703125,-0.0006251272279769182,-0.00257045216858387,-0.00356120802462101
1772702667835217400,0.391217529296875,0.0006105794454924762,-0.003281782381236553,-0.00700600678101182
1772702667845267500,0.401267333984375,0.003937097731977701,-0.0013457206077873707,-0.008589484728872776
1772702667855317200,0.411317138671875,0.0029104489367455244,-0.006233153864741325,-0.0023520952090620995
1772702667865367300,0.4213671875,0.0023199389688670635,0.0004730457440018654,-0.00009421352297067642
1772702667875417300,0.431417236328125,0.0012600007466971874,0.005621735006570816,0.0005223082262091339
1772702667885467600,0.441467529296875,0.003760749474167824,0.005339512135833502,0.00024093748652376235
1772702667895517400,0.451517333984375,0.0008802743395790458,0.004446554463356733,-0.0022448571398854256
1772702667905567500,0.4615673828125,0.0027998569421470165,-0.0032231234945356846,-0.0022525887470692396
1772702667915617500,0.471617431640625,-0.00281355413608253,-0.006426107604056597,-0.005743726622313261
1772702667925666600,0.48166650390625,0.0025930539704859257,-0.009161722846329212,-0.0054541658610105515
1772702667935716400,0.49171630859375,0.0013805169146507978,-0.006842109374701977,0.0006820233538746834
1772702667945766400,0.501766357421875,-0.0006707191932946444,-0.004481916315853596,-0.0029316183645278215
1772702667955816400,0.51181640625,-0.00045899779070168734,0.003937667701393366,-0.004344425164163113
1772702667965866500,0.521866455078125,0.0007599463569931686,0.011353030800819397,-0.0021446349564939737
1772702667975916300,0.531916259765625,-0.0011737748282030225,0.011220138520002365,-0.0020077486988157034
1772702667985966300,0.54196630859375,0.00102104467805475,0.004676171578466892,-0.000787796569056809
1772702667996016400,0.552016357421875,-0.00032278639264404774,0.007575288414955139,-0.0036389771848917007
1772702668006065400,0.5620654296875,-0.0003801528364419937,0.007177992723882198,-0.006289578974246979
1772702668016115500,0.572115478515625,-0.0028209397569298744,0.00013526296243071556,-0.003113493090495467
1772702668026165500,0.58216552734375,-0.002349098678678274,-0.004179464653134346,-0.003009459236636758
1772702668036215600,0.592215576171875,0.0001603979617357254,0.00003312341868877411,0.0020161920692771673
1772702668046265300,0.602265380859375,0.0015448338817805052,0.0055146911181509495,0.001710536191239953
1772702668056315400,0.6123154296875,0.003403720445930958,0.0009564249776303768,-0.00028097565518692136
1772702668066365400,0.622365478515625,0.004836751148104668,0.003782805521041155,-0.00036205322248861194
1772702668076415500,0.63241552734375,0.00405298313125968,0.0019180593080818653,0.001636915490962565
1772702668086465300,0.64246533203125,0.004341223742812872,-0.0019872919656336308,-0.004102515988051891
1772702668096515300,0.652515380859375,0.004944962449371815,0.0009203474037349224,-0.0005767571274191141
1772702668106564600,0.662564697265625,0.006229138933122158,0.002379226963967085,-0.004056975711137056
1772702668116614700,0.67261474609375,0.005693843588232994,-0.0018051313236355782,-0.0002963262377306819
1772702668126664400,0.68266455078125,0.004479192662984133,-0.00390899833291769,0.000206860713660717
1772702668136714500,0.692714599609375,0.0031651887111365795,0.0007158471271395683,-0.000944423780310899
1772702668146764500,0.7027646484375,0.0029324116185307503,0.0007419153116643429,-0.006221326999366283
1772702668156814600,0.712814697265625,0.00242001935839653,-0.011242575943470001,-0.0012268347200006247
1772702668166864400,0.722864501953125,0.0027478791307657957,-0.01192190870642662,-0.003348301164805889
1772702668176914400,0.73291455078125,0.0030102005694061518,-0.01339650060981512,-0.00220234296284616
1772702668186963500,0.74296337890625,0.003425025613978505,-0.009117248468101025,-0.002856518840417266
1772702668197013500,0.753013427734375,0.0019477701280266047,-0.002505950629711151,-0.002889275550842285
1772702668207063600,0.7630634765625,0.006263191346079111,0.001142640132457018,-0.0004088426358066499
1772702668217113600,0.773113525390625,0.0036216017324477434,0.0029930039308965206,-0.00218011112883687
1772702668227163600,0.78316357421875,0.005525178276002407,0.0041476585902273655,-0.0006334292702376842
1772702668237213400,0.79321337890625,0.003958174493163824,0.0037481836043298244,-0.0025050989352166653
1772702668247263500,0.803263427734375,0.003919810056686401,-0.0014604609459638596,-0.0015885576140135527
1772702668257313500,0.8133134765625,0.00384417618624866,-0.006309011951088905,0.0018067064229398966
1772702668267363600,0.823363525390625,0.0011998133268207312,-0.006409361492842436,-0.0010950295254588127
1772702668277412400,0.833412353515625,0.0030065018218010664,-0.011919175274670124,0.002730601467192173
1772702668287462400,0.84346240234375,0.0006168637773953378,-0.01115162018686533,-0.0018184934742748737
1772702668297512400,0.853512451171875,0.003663520095869899,-0.005555519834160805,-0.0006371153285726905
1772702668307562200,0.863562255859375,0.004832082893699408,0.00035237008705735207,0.0010215329239144921
1772702668317612300,0.8736123046875,0.003460555337369442,0.0008868672885000706,0.002577617997303605
1772702668327662600,0.88366259765625,0.002564949681982398,-0.004084954038262367,0.0016605432610958815
1772702668337712600,0.893712646484375,0.002888790098950267,-0.0013815797865390778,0.004616918042302132
1772702668347762400,0.903762451171875,0.001918584806844592,0.0026354980655014515,0.001625005155801773
1772702668357812500,0.9138125,0.003172933589667082,0.0007238811813294888,0.0011999646667391062
1772702668367861500,0.923861572265625,0.00235005933791399,-0.002521111164242029,0.0015673377783969045
1772702668377911600,0.93391162109375,0.0009612208232283592,0.007703030481934547,-0.00010992109309881926
1772702668387961300,0.94396142578125,-0.0008520269766449928,0.004624896217137575,0.004179168958216906
1772702668398011400,0.954011474609375,0.0014510747278109193,0.0005864794366061687,0.0038041959051042795
1772702668408061400,0.9640615234375,-0.004680250771343708,0.0032098349183797836,0.00529965665191412
1772702668418111500,0.974111572265625,-0.00022771151270717382,-0.01074060145765543,0.005022954195737839
1772702668428161300,0.984161376953125,0.0015141066396608949,-0.004214844666421413,0.0057195923291146755
1772702668438211300,0.99421142578125,-0.0007149592274799943,0.00007657334208488464,0.005758208222687244
1772702668448261400,1.004261474609375,-0.0006234725005924702,0.0007543656975030899,0.004196723457425833
1772702668458310400,1.014310302734375,0.0013129118597134948,0.008043704554438591,0.005447077564895153
1772702668468360400,1.0243603515625,0.00034831499215215445,0.009089794009923935,0.009320645593106747
1772702668478410500,1.034410400390625,0.0005906626465730369,0.005186931230127811,0.004434277303516865
1772702668488460500,1.04446044921875,-0.00021412945352494717,0.003092655912041664,0.006282097194343805
1772702668498510300,1.05451025390625,-0.001572874141857028,0.0016348417848348618,0.007081311661750078
1772702668508560400,1.064560302734375,-0.003917058929800987,0.003144445363432169,0.004317120648920536
1772702668518610400,1.0746103515625,-0.0014672172255814075,0.004692008253186941,0.006361629348248243
1772702668528660500,1.084660400390625,-0.0031359379645437002,0.0009167441166937351,0.0014508781023323536
1772702668538710300,1.094710205078125,-0.002474941313266754,-0.00028966832906007767,0.0033907245378941298
1772702668548759600,1.104759521484375,-0.0016685014124959707,-0.004660122096538544,0.002809587400406599
1772702668558809600,1.1148095703125,-0.002341215731576085,-0.005523785017430782,0.0035691210068762302
1772702668568859600,1.124859619140625,-0.00021237379405647516,-0.0014075059443712234,0.004849624820053577
1772702668578909400,1.134909423828125,-0.0023679365403950214,-0.0027180477045476437,-0.0008338272455148399
1772702668588959500,1.14495947265625,0.00059184042038396,-0.005542467348277569,-0.002094508847221732
1772702668599009500,1.155009521484375,-0.0005802168743684888,-0.003401019610464573,0.000789162062574178
1772702668609059600,1.1650595703125,-0.0008413742762058973,0.00009565846994519234,0.0012912371894344687
1772702668619109400,1.175109375,0.002550693927332759,-0.004988848231732845,-0.0010957540944218636
1772702668629159400,1.185159423828125,0.0012110252864658833,-0.007614140398800373,-0.0009256473276764154
1772702668639208400,1.19520849609375,0.00036067806649953127,-0.002788758836686611,-0.00012723164400085807
1772702668649258500,1.205258544921875,-0.002067140769213438,0.004975276533514261,0.001997454557567835
1772702668659308500,1.21530859375,-0.0011600679717957973,0.005636539775878191,-0.0017120627453550696
1772702668669358600,1.225358642578125,-0.0009758640080690384,0.00610135355964303,0.00047284780885092914
1772702668679408600,1.23540869140625,-0.00047359184827655554,0.007745322305709124,0.0006619322230108082
1772702668689458400,1.24545849609375,-0.002943869447335601,-0.0007145991548895836,-0.00014597480185329914
1772702668699508500,1.255508544921875,-0.0038432187866419554,-0.002244318835437298,-0.0010639664251357317
1772702668709558500,1.26555859375,-0.0016140826046466827,-0.004532365128397942,-0.0017645481275394559
1772702668719607300,1.275607177734375,-0.00235071312636137,-0.0030841385014355183,-0.00041033077286556363
1772702668729657300,1.2856572265625,-0.0011423662072047591,-0.0031654899939894676,0.002435086527839303
1772702668739707400,1.295707275390625,0.0024739401414990425,-0.00417056679725647,-0.0009031858644448221
1772702668749757400,1.30575732421875,0.005948410369455814,-0.0031674052588641644,0.002514138352125883
1772702668759807200,1.31580712890625,0.004087393172085285,-0.00397141370922327,0.0011822916567325592
1772702668769857300,1.325857177734375,0.007680224254727364,-0.0009543932974338531,0.00034539983607828617
1772702668779907600,1.335907470703125,0.004689760506153107,-0.002325388602912426,0.0017598047852516174
1772702668789957600,1.34595751953125,0.004378785844892263,-0.005157782696187496,0.0006204871460795403
1772702668800007400,1.35600732421875,0.004215001128613949,-0.008210298605263233,-0.0021721036173403263
1772702668810056400,1.366056396484375,0.003374521154910326,-0.011823637410998344,-0.0008710287511348724
1772702668820106500,1.3761064453125,0.004996918607503176,-0.007884556427598,-0.0010667711030691862
1772702668830156500,1.386156494140625,0.001154257683083415,-0.007782787550240755,-0.00273352419026196
1772702668840206300,1.396206298828125,0.004744731355458498,-0.012907242402434349,-0.0015907618217170238
1772702668850256400,1.40625634765625,0.002251395955681801,-0.017097370699048042,-0.0034844852052628994
1772702668860306400,1.416306396484375,-0.00012254586908966303,-0.016698163002729416,-0.0026466548442840576
1772702668870356500,1.4263564453125,0.0008269334211945534,-0.013398906216025352,-0.002079995581880212
1772702668880406300,1.43640625,0.0026032617315649986,-0.011550672352313995,-0.004350340459495783
1772702668890456300,1.446456298828125,0.0026664710603654385,-0.011755816638469696,-0.0035867048427462578
1772702668900505600,1.456505615234375,0.003572212066501379,-0.008490514010190964,0.0008549151243641973
1772702668910555400,1.466555419921875,0.002203472889959812,0.0003184061497449875,-0.0019298784900456667
1772702668920605400,1.47660546875,0.003726801136508584,0.0033256476745009422,-0.0008667446090839803
1772702668930655500,1.486655517578125,0.0020163385197520256,-0.0006454819813370705,-0.0006183236837387085
1772702668940705500,1.49670556640625,0.0016565454425290227,-0.0013562794774770737,0.0019966340623795986
1772702668950755300,1.50675537109375,0.0015191107522696257,-0.013276888988912106,0.005600838456302881
1772702668960805400,1.516805419921875,-0.001957646105438471,-0.020236527547240257,0.0031374143436551094
1772702668970855400,1.52685546875,-0.0010062239598482847,-0.020411480218172073,-0.00029227836057543755
1772702668980905500,1.536905517578125,-0.001200102036818862,-0.015951484441757202,0.0023727468214929104
1772702668990954500,1.54695458984375,0.000886735855601728,-0.008957525715231895,0.0049095554277300835
1772702669001004500,1.557004638671875,0.001353587955236435,-0.006507417652755976,0.0059782820753753185
1772702669011054600,1.5670546875,0.002799096517264843,-0.004835325758904219,0.006504811346530914
1772702669021104600,1.577104736328125,0.0016318329144269228,0.0011053881607949734,0.004519158508628607
1772702669031154400,1.587154541015625,0.002133558038622141,0.0005839052610099316,0.006183781661093235
1772702669041204500,1.59720458984375,-0.0010606375290080905,-0.00270563131198287,0.006448499858379364
1772702669051254500,1.607254638671875,0.0011065169237554073,-0.006123513914644718,0.004542934242635965
1772702669061304600,1.6173046875,0.0012636433821171522,-0.012289264239370823,0.004668902140110731
1772702669071354400,1.627354248046875,0.0028372658416628838,-0.0072714113630354404,0.006965751759707928
1772702669081403400,1.6374033203125,-0.002126599894836545,-0.004845537710934877,0.004352924879640341
1772702669091453400,1.647453369140625,-0.00026876654010266066,-0.008674629963934422,0.0022004437632858753
1772702669101503500,1.65750341796875,-0.002320199739187956,-0.013739163056015968,0.00451606186106801
1772702669111553500,1.667553466796875,0.0023821862414479256,-0.010356573387980461,0.005551858339458704
1772702669121603600,1.677603515625,-0.00024182628840208054,-0.008538700640201569,0.004482865333557129
1772702669131653600,1.687653564453125,-0.0009866608306765556,-0.010020125657320023,0.00800124928355217
1772702669141703400,1.697703369140625,-0.00026547687593847513,-0.00793300662189722,0.005665656179189682
1772702669151753500,1.70775341796875,-0.00027298531495034695,-0.005596706178039312,0.007015797775238752
1772702669161802500,1.717802490234375,-0.00043037813156843185,-0.003568176180124283,0.006511661224067211
1772702669171852300,1.727852294921875,0.002340429462492466,-0.001726226881146431,0.008905021473765373
1772702669181902300,1.73790234375,0.0024134002160280943,-0.008228600956499577,0.009471476078033447
1772702669191952400,1.747952392578125,0.001765131950378418,-0.0076795644126832485,0.006683701649308205
1772702669202002400,1.75800244140625,0.0018074761610478163,-0.006970630958676338,0.005267698783427477
1772702669212052200,1.76805224609375,0.0023697027936577797,-0.005351366475224495,0.005046090576797724
1772702669222102500,1.7781025390625,0.0007656806847080588,-0.0011931066401302814,0.007335077505558729
1772702669232152600,1.788152587890625,0.0011329844128340483,0.0005258079618215561,0.005390950012952089
1772702669242202600,1.79820263671875,0.0009678683709353209,0.0006128931418061256,0.008225884288549423
1772702669252251400,1.80825146484375,0.0018356512300670147,0.0012013968080282211,0.008021192625164986
1772702669262301400,1.818301513671875,-0.000012049917131662369,0.0026589445769786835,0.004982792306691408
1772702669272351500,1.8283515625,0.0017951003974303603,-0.00034333812072873116,0.005444191861897707
1772702669282401500,1.838401611328125,0.0022528977133333683,-0.005231304094195366,0.005765901878476143
1772702669292451300,1.848451416015625,0.0028304937295615673,-0.007209073286503553,0.005396164022386074
1772702669302501400,1.85850146484375,-0.0008699687896296382,-0.0045413849875330925,0.004041148349642754
1772702669312551400,1.868551513671875,0.00042945751920342445,-0.0037987527903169394,0.005891609005630016
1772702669322601500,1.8786015625,0.001210562651976943,-0.0014935205690562725,0.006234091706573963
1772702669332651300,1.8886513671875,0.0029731043614447117,-0.005691859871149063,0.0021687159314751625
1772702669342700500,1.898700439453125,0.004059141501784325,-0.006206914782524109,0.004592192359268665
1772702669352750600,1.90875048828125,0.003862455952912569,-0.001699564978480339,0.004714007489383221
1772702669362800400,1.91880029296875,0.005879268050193787,0.00873496662825346,0.0035113238263875246
1772702669372850400,1.928850341796875,0.003907223232090473,0.011194471269845963,0.002680659294128418
1772702669382900500,1.938900390625,0.001785482745617628,0.00213865889236331,0.003962704911828041
1772702669392950500,1.948950439453125,0.0006452021771110594,-0.0036367615684866905,0.0045187221840023994
1772702669403000300,1.959000244140625,0.00011150469072163105,-0.0011291289702057838,0.005070528946816921
1772702669413050400,1.96905029296875,-0.0020722365006804466,-0.003261962439864874,0.0014447174035012722
1772702669423099400,1.979099365234375,-0.003597429022192955,-0.007808511145412922,0.0040399678982794285
1772702669433149700,1.989149658203125,0.0013479817425832152,-0.0007909787818789482,0.003600491676479578
1772702669443199500,1.999199462890625,-0.0005923972930759192,0.0033931140787899494,0.006825579330325127
1772702669453249500,2.00924951171875,0.00003829586785286665,0.0007931734435260296,0.004221783019602299
1772702669463299600,2.019299560546875,0.003559261094778776,0.002083475235849619,0.00885834638029337
1772702669473349600,2.029349609375,0.002478620270267129,0.004259154200553894,0.00589807378128171
1772702669483399400,2.0393994140625,0.0043548173271119595,-0.0005864668637514114,0.005859724245965481
1772702669493449500,2.049449462890625,0.0038102143444120884,-0.003732155542820692,0.0018390039913356304
1772702669503499500,2.05949951171875,0.0030424247961491346,-0.00560062937438488,0.005657710134983063
1772702669513548300,2.06954833984375,0.005914237815886736,-0.006266970187425613,0.00546124204993248
1772702669523598300,2.079598388671875,0.00351552851498127,-0.007053668145090342,0.006073502823710442
1772702669533648400,2.0896484375,0.0013091441942378879,-0.005998686421662569,0.004295133985579014
1772702669543698400,2.099698486328125,0.0021911831572651863,-0.010631787590682507,0.001323578879237175
1772702669553748500,2.10974853515625,0.0025940747000277042,-0.013977887108922005,0.0009538421873003244
1772702669563798500,2.119798583984375,0.0010153529001399875,-0.015852486714720726,-0.0006842681905254722
1772702669573848600,2.1298486328125,0.007208687718957663,-0.012113353237509727,0.0021536427084356546
1772702669583898600,2.139898681640625,0.003964957781136036,-0.004660763777792454,0.005002425983548164
1772702669593948400,2.149948486328125,0.004693207331001759,-0.0009810575284063816,0.003216968849301338
1772702669603997400,2.15999755859375,0.0038670944049954414,-0.0012574936263263226,0.004973856266587973
1772702669614047500,2.170047607421875,0.005379111971706152,0.0038307588547468185,0.0033963918685913086
1772702669624097300,2.18009716796875,0.006688321940600872,0.004496282897889614,0.0005601251032203436
1772702669634147300,2.190147216796875,0.0038414900191128254,-0.0014144303277134895,-0.0027630210388451815
1772702669644197400,2.200197265625,0.003671846818178892,-0.008656630292534828,-0.004184084013104439
1772702669654247400,2.210247314453125,0.004923233762383461,-0.013660509139299393,-0.004206422716379166
1772702669664297500,2.22029736328125,0.0010006637312471867,-0.014192608185112476,-0.0060730320401489735
1772702669674347500,2.230347412109375,0.004270030651241541,-0.01599143259227276,-0.004737626761198044
1772702669684397600,2.2403974609375,0.005120377987623215,-0.009324474260210991,-0.0026984442956745625
1772702669694446600,2.250446533203125,0.0017042302060872316,-0.006859173066914082,-0.0040331450290977955
1772702669704496400,2.260496337890625,0.005691781640052795,-0.002523813396692276,-0.003008893458172679
1772702669714546400,2.27054638671875,0.003116307780146599,0.006665034219622612,-0.002470039064064622
1772702669724596500,2.280596435546875,-0.00007229496259242296,0.006193389184772968,-0.000719809380825609
1772702669734646500,2.290646484375,0.003636284964159131,-0.002362264785915613,-0.0015866277972236276
1772702669744696300,2.3006962890625,0.0022125591058284044,-0.0068076131865382195,0.0011239375453442335
1772702669754746400,2.310746337890625,0.0016604858683422208,-0.004028604365885258,-0.0022119381465017796
1772702669764796400,2.32079638671875,-0.0015274895122274756,-0.008165910840034485,-0.0014594908570870757
1772702669774846500,2.330846435546875,-0.0018923829775303602,-0.005848765838891268,-0.0015243309317156672
1772702669784895500,2.3408955078125,-0.0008098080288618803,-0.005239168182015419,0.005907219834625721
1772702669794945500,2.350945556640625,-0.0009443972958251834,0.0011679190210998058,0.0028282715938985348
1772702669804995600,2.36099560546875,-0.0009832795476540923,0.0020989603362977505,-0.0006602031062357128
1772702669815045400,2.37104541015625,-0.0012799417600035667,0.010331092402338982,0.0031245348509401083
1772702669825095400,2.381095458984375,0.0019368905341252685,0.0061677731573581696,0.005172505974769592
1772702669835145500,2.3911455078125,-0.0010340759763494134,0.0043737078085541725,0.005293922498822212
1772702669845195500,2.401195556640625,-0.0013874772703275084,0.004231228493154049,0.0012323358096182346
1772702669855245300,2.411245361328125,-0.0026326316874474287,0.00021759653463959694,0.0037074044812470675
1772702669865294300,2.42129443359375,-0.0021569908130913973,-0.0022708610631525517,0.006320497952401638
1772702669875344600,2.4313447265625,-0.0017869218718260527,-0.0024194135330617428,0.0047247763723134995
1772702669885394200,2.441394287109375,-0.0012569527607411146,0.0006783753633499146,0.004976711235940456
1772702669895444200,2.4514443359375,-0.0019141804659739137,0.002512299921363592,0.004933427553623915
1772702669905494300,2.461494384765625,-0.0020329575054347515,0.009107884019613266,0.00505699822679162
1772702669915544300,2.47154443359375,-0.0016454531578347087,0.00807887502014637,0.0045897322706878185
1772702669925594000,2.481593994140625,-0.0019660978578031063,-0.0006810608319938183,0.001933761639520526
1772702669935644200,2.49164404296875,-0.00380156934261322,0.0003631189465522766,0.002675173804163933
1772702669945694200,2.501694091796875,-0.0026492197066545486,0.004004192538559437,0.00010708757326938212
1772702669955743000,2.511742919921875,-0.001063590869307518,0.0017018597573041916,0.0030604174826294184
1772702669965793000,2.52179296875,0.000194752705283463,-0.0027879630215466022,0.0007416032021865249
1772702669975843000,2.531843017578125,0.000022876658476889133,0.004655896686017513,0.0005322139477357268
1772702669985893400,2.541893310546875,-0.0016863401979207993,0.011360405012965202,0.0005649708327837288
1772702669995943200,2.551943115234375,-0.002733158878982067,0.010104866698384285,-0.0009774358477443457
1772702670005993200,2.5619931640625,-0.0017621699953451753,0.006334895733743906,0.0006058134604245424
1772702670016043300,2.572043212890625,-0.005984988063573837,-0.0003977925516664982,-0.003788358997553587
1772702670026093300,2.58209326171875,-0.00407523475587368,-0.0017091329209506512,-0.0035276352427899837
1772702670036143000,2.59214306640625,-0.006155390292406082,-0.00008399737998843193,-0.005239655263721943
1772702670046192000,2.602192138671875,-0.004933532327413559,-0.0015524644404649734,-0.0026939394883811474
1772702670056242200,2.6122421875,-0.0017312773270532489,0.0014570499770343304,0.0020790742710232735
1772702670066292200,2.622292236328125,-0.0020013218745589256,0.011803962290287018,-0.0006205721874721348
1772702670076342000,2.632342041015625,-0.0014853969914838672,0.016538672149181366,-0.0005720065673813224
1772702670086392000,2.64239208984375,-0.0010321269510313869,0.012558577582240105,-0.0036069448105990887
1772702670096442000,2.652442138671875,-0.002329970244318247,0.00448209885507822,-0.0018563983030617237
1772702670106492200,2.6624921875,-0.003061274066567421,-0.00021997885778546333,-0.0019043353386223316
1772702670116542200,2.672542236328125,-0.0044849892146885395,0.0013766060583293438,-0.005550778470933437
1772702670126591200,2.68259130859375,-0.006595810409635305,-0.002742239274084568,-0.004750232212245464
1772702670136641300,2.692641357421875,-0.0042434073984622955,0.00016304943710565567,-0.002322330605238676
1772702670146691000,2.702691162109375,-0.0028804016765207052,0.0013500209897756577,-0.004127687308937311
1772702670156741000,2.7127412109375,-0.00038329465314745903,0.005297909956425428,-0.0017273384146392345
1772702670166791200,2.722791259765625,0.003029812593013048,-0.0006457329727709293,-0.001464218134060502
1772702670176841200,2.73284130859375,0.003051396459341049,0.0015625613741576672,-0.0011942877899855375
1772702670186891000,2.74289111328125,0.0017941179685294628,0.005847853142768145,-0.0027106916531920433
1772702670196941000,2.752941162109375,0.0035787606611847878,0.004088444169610739,-0.00266440911218524
1772702670206991000,2.7629912109375,0.0034197699278593063,0.002126493025571108,-0.0022039483301341534
1772702670217040100,2.7730400390625,0.001130840159021318,-0.003561687655746937,-0.0006289493758231401
1772702670227090200,2.783090087890625,0.0017268555238842964,0.0000074803829193115234,-0.0028516235761344433
1772702670237140200,2.79314013671875,-0.00035969342570751905,-0.005158935207873583,-0.004730917979031801
1772702670247190300,2.803190185546875,-0.0013692978536710143,-0.016223037615418434,-0.00243553938344121
1772702670257240000,2.813239990234375,-0.00258718547411263,-0.01960822194814682,-0.003036623355001211
1772702670267290000,2.8232900390625,0.0008834461914375424,-0.011354553513228893,0.0015919505385681987
1772702670277340200,2.833340087890625,0.0029010549187660217,-0.003378155641257763,-0.0005782263469882309
1772702670287390200,2.84339013671875,0.004694161005318165,-0.0012415014207363129,-0.0010914173908531666
1772702670297440000,2.85343994140625,0.003968925215303898,0.004790455102920532,-0.0018932705279439688
1772702670307489300,2.8634892578125,0.0037878300063312054,0.0029009422287344933,-0.0008242776966653764
1772702670317539300,2.873539306640625,0.0019348300993442535,-0.0009507141076028347,0.00273527717217803
1772702670327589400,2.88358935546875,0.0011518608080223203,-0.002725178375840187,-0.0029841274954378605
1772702670337639200,2.89363916015625,0.0027985116466879845,-0.007965224795043468,-0.0017432159511372447
1772702670347689200,2.903689208984375,0.0016043501673266292,-0.008922098204493523,-0.0012513301335275173
1772702670357739300,2.9137392578125,0.002886237110942602,-0.010347962379455566,-0.001958737149834633
1772702670367789300,2.923789306640625,0.0034273916389793158,-0.010027583688497543,-0.004044258501380682
1772702670377839000,2.933839111328125,0.0032200715504586697,-0.0053396038711071014,-0.00447097048163414
1772702670387889200,2.94388916015625,0.004006236791610718,-0.005241333041340113,-0.0035540438257157803
1772702670397938200,2.953938232421875,0.0024237646721303463,-0.003491947427392006,-0.0034848132636398077
1772702670407988000,2.963988037109375,0.0005390457226894796,-0.0027143042534589767,-0.004343150183558464
1772702670418038000,2.9740380859375,0.0038309621158987284,-0.004022745415568352,-0.004373892210423946
1772702670428088000,2.984088134765625,0.0052685365080833435,-0.0011199000291526318,-0.0045880102552473545
1772702670438138400,2.994138427734375,0.0012673718156293035,-0.001142870169132948,-0.0012531692627817392
1772702670448188200,3.004188232421875,0.0016404807101935148,-0.005276895128190517,-0.0019591732416301966
1772702670458238200,3.01423828125,-0.0005978909321129322,-0.0060814013704657555,-0.003240035381168127
1772702670468288300,3.024288330078125,0.0034138949122279882,-0.006481674499809742,0.00018665401148609817
1772702670478338300,3.03433837890625,0.00026097847148776054,-0.008510470390319824,-0.00196278328076005
1772702670488387000,3.044386962890625,0.00035578710958361626,-0.007281688041985035,0.00032939945231191814
1772702670498437000,3.05443701171875,0.0018842159770429134,-0.005807290785014629,0.0009396544191986322
1772702670508487200,3.064487060546875,0.002039744518697262,-0.007878164760768414,0.0041703348979353905
1772702670518537200,3.074537109375,0.0012418054975569248,-0.00045284489169716835,0.0017450174782425165
1772702670528587000,3.0845869140625,0.00029558443930000067,0.0012225499376654625,0.0017604639288038015
1772702670538637000,3.094636962890625,-0.0021650069393217564,0.0008034175261855125,0.00013453263090923429
1772702670548687000,3.10468701171875,-0.0011463477276265621,-0.003133800346404314,0.0006322774570435286
1772702670558737200,3.114737060546875,-0.0010566426208242774,-0.0021173390559852123,0.0022255252115428448
1772702670568786200,3.1247861328125,0.0008025100687518716,0.00046353088691830635,0.0010516037000343204
1772702670578836200,3.134836181640625,-0.0022908998653292656,0.002606284338980913,0.0020089263562113047
1772702670588886300,3.14488623046875,0.000042561907321214676,0.0012291637249290943,0.003658222034573555
1772702670598936000,3.15493603515625,0.0031880296301096678,-0.0033317580819129944,0.0021859172265976667
1772702670608986000,3.164986083984375,0.0033446233719587326,-0.003948279656469822,0.0014032141771167517
1772702670619036200,3.1750361328125,0.002363152801990509,-0.0039955973625183105,0.0010182848200201988
1772702670629086200,3.185086181640625,-0.004207930993288755,-0.00468295905739069,0.002962126163765788
1772702670639136000,3.195135986328125,0.0005668766098096967,-0.0012572980485856533,-6.347836460918188e-7
1772702670649186000,3.20518603515625,-0.000023279921151697636,0.0038293390534818172,0.00006221581134013832
1772702670659236000,3.215236083984375,-0.004306999500840902,0.0010886015370488167,0.0019123365636914968
1772702670669285000,3.22528515625,0.000517583335749805,-0.007447895128279924,0.0017120668198913336
1772702670679335200,3.235335205078125,-0.0034032240509986877,-0.0054797218181192875,0.00025122729130089283
1772702670689385200,3.24538525390625,-0.003076187800616026,-0.005769473500549793,-0.0012747639557346702
1772702670699435300,3.255435302734375,-0.004690189845860004,-0.0027619479224085808,-0.0017965505830943584
1772702670709485000,3.265485107421875,-0.005046786740422249,-0.004922037944197655,0.000004278932465240359
1772702670719535000,3.27553515625,-0.007561861537396908,-0.0010955734178423882,-0.0016137389466166496
1772702670729585200,3.285585205078125,-0.0062499879859387875,-0.00017198920249938965,0.0007002817583270371
1772702670739635200,3.29563525390625,-0.0007156318752095103,0.0031924541108310223,-0.0019467761740088463
1772702670749685200,3.305685302734375,-0.002596889156848192,0.006916884798556566,0.000496674096211791
1772702670759734300,3.315734375,-0.002400473691523075,0.009865287691354752,-0.0030454033985733986
1772702670769784300,3.325784423828125,-0.0005919210379943252,0.009062610566616058,-0.0033556614071130753
1772702670779834400,3.33583447265625,-0.0017077005468308926,0.009530438110232353,-0.00016897404566407204
1772702670789884200,3.34588427734375,-0.002623295411467552,0.004706123378127813,-0.00289365416392684
1772702670799934200,3.355934326171875,-0.001645041978918016,0.00550969410687685,-0.001020531402900815
1772702670809984300,3.365984375,-0.003948675934225321,0.004213533364236355,-0.0013915097806602716
1772702670820034300,3.376034423828125,-0.006481864023953676,0.002144032623618841,0.001474973512813449
1772702670830084000,3.386083984375,-0.003568365704268217,0.001167984213680029,0.002052080584689975
1772702670840134100,3.396134033203125,0.0002512220526114106,0.0018840236589312553,0.0048715220764279366
1772702670850183200,3.40618310546875,-0.0010702385334298015,0.006017516367137432,0.004365787375718355
1772702670860233000,3.41623291015625,0.000023690867237746716,-0.002293054945766926,0.003344363998621702
1772702670870283000,3.426282958984375,-0.0023366687819361687,0.0002851514145731926,0.0031076092272996902
1772702670880332800,3.436332763671875,0.001174764009192586,0.0024978131987154484,0.0073950099758803844
1772702670890382800,3.4463828125,0.0007262876606546342,0.006640093866735697,0.0001544076658319682
1772702670900433000,3.456432861328125,0.00111776206176728,0.005905982106924057,0.0013139836955815554
1772702670910483000,3.46648291015625,-0.0009650961728766561,0.00565564539283514,0.0029414414893835783
1772702670920532700,3.47653271484375,0.001217323588207364,0.006246323697268963,0.006021133158355951
1772702670930581800,3.486581787109375,0.002167006954550743,0.0023170961067080498,0.005442694295197725
1772702670940631800,3.4966318359375,0.0003301352262496948,-0.003457032609730959,0.0026152420323342085
1772702670950681600,3.506681640625,0.0015306882560253143,-0.007160424720495939,0.0023478607181459665
1772702670960731600,3.516731689453125,-0.001724913134239614,-0.01348042767494917,0.001482019666582346
1772702670970781700,3.52678173828125,-0.0006577846361324191,-0.009785025380551815,0.0025576704647392035
1772702670980831700,3.536831787109375,-0.0010008423123508692,-0.00005603395402431488,0.0018318365328013897
1772702670990881800,3.5468818359375,0.002759540919214487,0.002157585695385933,0.005610862281173468
1772702671000931800,3.556931884765625,0.003521981881931424,0.003962631803005934,0.0033506269101053476
1772702671010982000,3.56698193359375,0.003777112578973174,0.005371178034693003,0.003909890539944172
1772702671021031000,3.577031005859375,0.0028786726761609316,0.0037161982618272305,-0.0007509221322834492
1772702671031080700,3.587080810546875,0.0035809483379125595,-0.001999211497604847,-0.005120104178786278
1772702671041130800,3.597130859375,0.001729093724861741,-0.004290868528187275,-0.003755571786314249
1772702671051180800,3.607180908203125,0.0005948534235358238,-0.007677077781409025,0.0029127171728760004
1772702671061230800,3.61723095703125,0.0010147062130272388,-0.012703342363238335,-0.0004936435725539923
1772702671071280600,3.62728076171875,0.0022927571553736925,-0.004237952176481485,-0.0033975543919950724
1772702671081330700,3.63733056640625,-0.00017301947809755802,-0.004271340556442738,-0.0047944216057658195
1772702671091380700,3.647380615234375,0.00480149919167161,-0.003600756637752056,-0.000900613609701395
1772702671101430800,3.6574306640625,0.0018096772255375981,-0.002062816172838211,-0.0024428553879261017
1772702671111479800,3.667479736328125,0.0021502955351024866,0.00009620841592550278,-0.0012271222658455372
1772702671121529900,3.67752978515625,0.0015904693864285946,-0.0029031136073172092,-0.00464925542473793
1772702671131580000,3.687579833984375,0.0021404121071100235,-0.0013595451600849628,-0.001676368759945035
1772702671141629700,3.697629638671875,0.0011854589683935046,-0.004970952868461609,0.0001697107800282538
1772702671151679700,3.7076796875,0.0012278032954782248,-0.004990394227206707,-0.0006856964901089668
1772702671161729800,3.717729736328125,-0.0008779822383075953,-0.00487356074154377,-0.0008412032620981336
1772702671171779800,3.72777978515625,-0.00020686571951955557,-0.005381159484386444,0.0027378187514841557
1772702671181829600,3.73782958984375,-0.0008531208150088787,-0.007967931218445301,0.004101432394236326
1772702671191879700,3.747879638671875,-0.00003047042991966009,-0.004226190038025379,-0.0011015855707228184
1772702671201929000,3.757928955078125,0.0014152898220345378,-0.0013181613758206367,0.001580387237481773
1772702671211979000,3.76797900390625,0.0003020884469151497,-0.004820218309760094,0.00007037489558570087
1772702671222028800,3.77802880859375,-0.004214226733893156,-0.001331990584731102,0.00007935674511827528
1772702671232078800,3.788078857421875,-0.0005752831930294633,0.0013040066696703434,-0.0008450265158899128
1772702671242129000,3.79812890625,0.002879299223423004,0.001886297482997179,-0.0026864325627684593
1772702671252179000,3.808178955078125,-0.00029492226894944906,0.0015712450258433819,0.00130378152243793
1772702671262228700,3.818228759765625,-0.0009717455832287669,0.00014640996232628822,0.0008240884635597467
1772702671272278800,3.82827880859375,-0.0021315524354577065,0.004683104809373617,0.0005130312638357282
1772702671282328800,3.838328857421875,-0.0019475962035357952,0.0013418588787317276,-0.004179983399808407
1772702671292377600,3.848377685546875,-0.001218422781676054,-0.0013316883705556393,0.0007537889759987593
1772702671302427600,3.858427734375,0.0010796617716550827,0.0019169040024280548,-0.0004652836360037327
1772702671312478000,3.86847802734375,-0.002226918935775757,0.005429613403975964,-0.003140961518511176
1772702671322528000,3.878528076171875,0.0010314584942534566,0.004908699542284012,-0.0004921815125271678
1772702671332577800,3.888577880859375,-0.0020277146250009537,0.0034271832555532455,-0.0024623882491141558
1772702671342627800,3.8986279296875,-0.002720668911933899,0.006065842695534229,-0.0031100688502192497
1772702671352678000,3.908677978515625,-0.003236257005482912,0.0032633990049362183,-0.002670380985364318
1772702671362728000,3.91872802734375,-0.003714421298354864,0.007212087046355009,-0.0016472673742100596
1772702671372777700,3.92877783203125,-0.0031112153083086014,0.009256063029170036,-0.0047905961982905865
1772702671382826800,3.93882666015625,-0.003335915971547365,0.008985096588730812,-0.0028639687225222588
1772702671392876800,3.948876708984375,-0.0008415993070229888,0.004755462985485792,-0.005140172783285379
1772702671402926600,3.958926513671875,-0.002326914109289646,0.0009989314712584019,-0.0064247120171785355
1772702671412976600,3.9689765625,-0.0011559221893548965,-0.001647185068577528,-0.005462245550006628
1772702671423026700,3.979026611328125,-0.001078437315300107,0.0026796143501996994,-0.0024319556541740894
1772702671433076700,3.98907666015625,-0.003091786988079548,0.0026625702157616615,-0.004536119289696217
1772702671443126800,3.999126708984375,-0.0021995159331709146,0.0015885019674897194,-0.004914897494018078
1772702671453176800,4.0091767578125,-0.0011872483883053064,0.0030055707320570946,-0.0033580134622752666
1772702671463227000,4.019226806640625,0.0010299873538315296,0.00514809787273407,0.0017036672215908766
1772702671473276000,4.02927587890625,-0.0012379605323076248,0.014915241859853268,0.00030657282331958413
1772702671483325700,4.03932568359375,-0.004828504286706448,0.021983128041028976,-0.004088805057108402
1772702671493375700,4.049375732421875,-0.004616516642272472,0.016154799610376358,-0.004111441783607006
1772702671503425800,4.05942578125,-0.001430214149877429,0.012365872040390968,-0.0052871559746563435
1772702671513475800,4.069475830078125,-0.004996187053620815,0.007250206079334021,-0.0036514420062303543
1772702671523525600,4.079525634765625,-0.005909580737352371,0.000423600897192955,-0.004145096056163311
1772702671533575700,4.08957568359375,-0.00843026302754879,0.0005232030525803566,-0.004118730779737234
1772702671543625700,4.099625732421875,-0.006343124434351921,0.007332627661526203,-0.002258635126054287
1772702671553675800,4.10967578125,-0.004224845673888922,0.008302816189825535,0.0024887158069759607
1772702671563724800,4.119724853515625,-0.0031853450927883387,0.009198049083352089,-0.002656680066138506
1772702671573774800,4.12977490234375,-0.0033435367513448,0.005449383985251188,0.0007079575443640351
1772702671583825000,4.139824951171875,-0.00020791939459741116,0.008513125590980053,0.0014689455274492502
1772702671593874700,4.149874755859375,0.0002847653813660145,0.011941411532461643,0.00043803590233437717
1772702671603924700,4.1599248046875,0.0009396492387168109,0.0076977042481303215,0.0011156655382364988
1772702671613974800,4.169974853515625,0.0006642783991992474,0.010691097937524319,0.0020222056191414595
1772702671624024800,4.18002490234375,0.0009185861563310027,0.00800841674208641,0.003149543423205614
1772702671634074600,4.19007470703125,-0.0008108706679195166,0.002883694600313902,0.0005598857533186674
1772702671644124700,4.200124755859375,0.00028873805422335863,-0.0004378426820039749,-0.00024477916304022074
1772702671654174000,4.210174072265625,-0.0008763950318098068,-0.002083676401525736,-0.0020109876058995724
1772702671664224000,4.22022412109375,0.000571379205211997,-0.004188718274235725,-0.0023444602265954018
1772702671674273800,4.230273681640625,-0.0021029673516750336,-0.005441202782094479,-0.0020371314603835344
1772702671684323800,4.24032373046875,-0.00007022148929536343,-0.0008084322325885296,-0.002897451864555478
1772702671694374000,4.250373779296875,0.0006168741383589804,0.004525346681475639,-0.0039448728784918785
1772702671704424000,4.260423828125,0.002509470097720623,0.01471119374036789,-0.0038811764679849148
1772702671714473700,4.2704736328125,0.0006673616589978337,0.007346488535404205,-0.0014995117671787739
1772702671724523800,4.280523681640625,0.0015508898068219423,0.003057742491364479,-0.003033153712749481
1772702671734573800,4.29057373046875,-0.00027364178095012903,0.0040415143594145775,-0.004158605355769396
1772702671744622600,4.30062255859375,0.0021227290853857994,0.005965217016637325,-0.006067585665732622
1772702671754672600,4.310672607421875,0.000491010257974267,0.002906044013798237,-0.00787507276982069
1772702671764723000,4.320722900390625,-0.0002526028547435999,0.00484126154333353,-0.005746648646891117
1772702671774773000,4.33077294921875,-0.0012771209003403783,0.0008704885840415955,-0.0061759501695632935
1772702671784822800,4.34082275390625,-0.004471614025533199,0.002861973363906145,-0.007047068793326616
1772702671794872800,4.350872802734375,-0.0006105633219704032,0.00262282183393836,-0.008474523201584816
1772702671804923000,4.3609228515625,-0.003077231114730239,-0.0007145451381802559,-0.011877466924488544
1772702671814973000,4.370972900390625,0.0028011640533804893,-0.004868810065090656,-0.008734404109418392
1772702671825022700,4.381022705078125,0.0028513646684587,-0.004968875087797642,-0.013249089941382408
1772702671835072800,4.39107275390625,0.002658818382769823,-0.003891892498359084,-0.008857803419232368
1772702671845121800,4.401121826171875,0.002915658289566636,-0.0032756896689534187,-0.008388866670429707
1772702671855171600,4.411171630859375,-0.0010255536762997508,0.00006204983219504356,-0.007145436480641365
1772702671865221600,4.4212216796875,0.00028747564647346735,0.004466779064387083,-0.009393971413373947
1772702671875271700,4.431271728515625,0.0005961360293440521,0.008780034258961678,-0.00979930441826582
1772702671885322800,4.44132275390625,0.002127755433320999,0.004734015557914972,-0.00945538841187954
1772702671895372800,4.451372802734375,-0.0017601936124265194,0.0008948021568357944,-0.01033689547330141
1772702671905422600,4.461422607421875,-0.002022688277065754,-0.0020252312533557415,-0.008775248192250729
1772702671915472600,4.47147265625,-0.002283944748342037,-0.00160897895693779,-0.00380445783957839
1772702671925522700,4.481522705078125,-0.005343083757907152,-0.004368155729025602,-0.007492832839488983
1772702671935572000,4.491572021484375,-0.0030775326304137707,-0.005574301350861788,-0.004819285590201616
1772702671945621800,4.501621826171875,-0.006578524596989155,0.0014825426042079926,-0.005360439885407686
1772702671955671800,4.511671875,-0.004598463885486126,0.006718051619827747,-0.004662158899009228
1772702671965721900,4.521721923828125,-0.0036101513542234898,0.00667361356317997,-0.004691866226494312
1772702671975772000,4.53177197265625,-0.003317470196634531,0.008212653920054436,-0.0005985873285681009
1772702671985821700,4.54182177734375,-0.0028274618089199066,0.004490050487220287,-0.001138264313340187
1772702671995871700,4.551871826171875,-0.006417136639356613,0.008312219753861427,-0.0024916830006986856
1772702672005921800,4.561921875,-0.002900895196944475,0.002996159717440605,-0.000008720991900190711
1772702672015971800,4.571971923828125,-0.002412471454590559,0.0014352807775139809,-0.00621148943901062
1772702672026020900,4.582020751953125,-0.0005686384392902255,0.0019053095020353794,-0.001052607549354434
1772702672036071000,4.59207080078125,-0.002496234606951475,0.0026952032931149006,0.0016872524283826351
1772702672046121000,4.602120849609375,-0.007148272357881069,0.00020804395899176598,0.002452109009027481
1772702672056170800,4.612170654296875,-0.006631352938711643,0.0012022019363939762,0.0030880719423294067
1772702672066220800,4.622220703125,-0.005955772940069437,0.002004952635616064,0.005306411534547806
1772702672076270800,4.632270751953125,-0.005842322483658791,0.004906999412924051,0.004401203244924545
1772702672086321000,4.64232080078125,-0.004151109606027603,0.007226343732327223,0.006018206011503935
1772702672096370700,4.65237060546875,-0.00557510182261467,0.008506791666150093,0.004176630172878504
1772702672106420700,4.662420654296875,-0.006031384225934744,0.0023469850420951843,0.004553781822323799
1772702672116469800,4.6724697265625,-0.007546456530690193,0.004590165801346302,0.005080821458250284
1772702672126519800,4.682519775390625,-0.006151840090751648,0.003660272341221571,0.007746159564703703
1772702672136569900,4.69256982421875,-0.007405123673379421,-0.0012841527350246906,0.005092053208500147
1772702672146620000,4.702619873046875,-0.008310587145388126,-0.005098291207104921,0.0061241514049470425
1772702672156670000,4.712669921875,-0.004564317874610424,-0.004523048177361488,0.007683964911848307
1772702672166720000,4.722719970703125,-0.007522908039391041,0.008712458424270153,0.007258411962538958
1772702672176769800,4.732769775390625,-0.0030615811701864004,0.007799260318279266,0.006767857354134321
1772702672186819800,4.74281982421875,-0.0038440246134996414,0.0023735123686492443,0.010078067891299725
1772702672196870000,4.752869873046875,-0.0014953826321288943,0.0040334598161280155,0.011407517828047276
1772702672206918700,4.762918701171875,-0.004263774491846561,0.006446266081184149,0.008092421106994152
1772702672216968700,4.77296875,-0.0036421925760805607,0.014606989920139313,0.009584857150912285
1772702672227018800,4.783018798828125,-0.0032181814312934875,0.01992028020322323,0.008836235851049423
1772702672237068800,4.79306884765625,-0.00336865009739995,0.017210515215992928,0.007868975400924683
1772702672247118600,4.80311865234375,-0.007308832369744778,0.011683903634548187,0.005509687587618828
1772702672257169000,4.8131689453125,-0.006522401235997677,0.003087752964347601,0.0068971943110227585
1772702672267219000,4.823218994140625,-0.007046859711408615,-0.0033708615228533745,0.007320683915168047
1772702672277269000,4.83326904296875,-0.007273760624229908,-0.010242350399494171,0.0072248103097081184
1772702672287318800,4.84331884765625,-0.00681241974234581,-0.012084009125828743,0.00386838149279356
1772702672297367800,4.853367919921875,-0.006548500619828701,-0.008526558056473732,0.0052723996341228485
1772702672307417900,4.86341796875,-0.0015430315397679806,-0.004065926652401686,0.007106227800250053
1772702672317467600,4.873467529296875,0.0005470171454362571,0.00619603181257844,0.006191165652126074
1772702672327517700,4.883517578125,-0.0005379546200856566,0.01659301295876503,0.00776349613443017
1772702672337567700,4.893567626953125,0.0023544738069176674,0.020673111081123352,0.009488052688539028
1772702672347617800,4.90361767578125,0.0006776641239412129,0.01865275949239731,0.009309777058660984
1772702672357667600,4.91366748046875,0.0017932623159140348,0.009779106825590134,0.009507915936410427
1772702672367717600,4.923717529296875,-0.00248706410638988,-0.001168038696050644,0.006457455921918154
1772702672377767700,4.933767578125,-0.001079317182302475,-0.005700739100575447,0.006189275532960892
1772702672387818000,4.94381787109375,-0.0017918284283950925,-0.006197623908519745,0.00719466945156455
1772702672397866800,4.95386669921875,-0.0017228525830432773,-0.004495863802731037,0.007339279167354107
1772702672407916800,4.963916748046875,0.0017181949224323034,-0.010120009072124958,0.006787226535379887
1772702672417966800,4.973966796875,0.0004843523493036628,-0.0033473242074251175,0.006069238297641277
1772702672428017000,4.984016845703125,0.0010789671214297414,0.009884713217616081,0.0009164568618871272
1772702672438066700,4.994066650390625,0.00036737043410539627,0.012198200449347496,0.00020619179122149944
1772702672448116700,5.00411669921875,0.002004381036385894,0.004677679389715195,0.001571332453750074
1772702672458166800,5.014166748046875,0.003130099270492792,-0.0007969806902110577,-0.00017783173825591803
1772702672468216800,5.024216796875,0.003908471204340458,-0.002267187926918268,-0.0018131094984710217
1772702672478266600,5.0342666015625,0.0035827667452394962,-0.004969230853021145,-0.0008959167753346264
1772702672488316000,5.04431591796875,0.0030211196281015873,-0.0051881056278944016,-0.003948577679693699
1772702672498366000,5.054365966796875,0.005103445146232843,-0.002386992797255516,-0.0011565196327865124
1772702672508415700,5.064415771484375,0.004632808268070221,0.00046248361468315125,-0.0032798347529023886
1772702672518465800,5.0744658203125,0.003167270915582776,-0.0007210252806544304,-0.004450027830898762
1772702672528515800,5.084515869140625,0.0019645963329821825,-0.006112650968134403,-0.006493984255939722
1772702672538566000,5.09456591796875,0.007086653728038073,-0.011300488375127316,-0.007397860754281282
1772702672548615700,5.10461572265625,0.006522125098854303,-0.011880859732627869,-0.007339727599173784
1772702672558665700,5.114665771484375,0.008640137501060963,-0.009865645319223404,-0.007027871441096067
1772702672568715800,5.1247158203125,0.003061099210754037,-0.008681881241500378,-0.008869835175573826
1772702672578764800,5.134764892578125,0.006398306228220463,-0.004867169540375471,-0.007860231213271618
1772702672588814800,5.14481494140625,0.0054934583604335785,-0.0025183050893247128,-0.006879846099764109
1772702672598865000,5.154864990234375,0.002909925766289234,0.005877842660993338,-0.006366655230522156
1772702672608915000,5.1649150390625,0.006972888484597206,0.0034909164533019066,-0.00796203501522541
1772702672618965000,5.174965087890625,0.0032268865033984184,-0.0042245276272296906,-0.010985787957906723
1772702672629014800,5.185014892578125,-0.00022497517056763172,-0.011221472173929214,-0.009242145344614983
1772702672639064800,5.19506494140625,0.0037473959382623434,-0.013757066801190376,-0.0064812456257641315
1772702672649115000,5.205114990234375,-0.0009269152069464326,-0.014788898639380932,-0.0061330730095505714
1772702672659165000,5.2151650390625,0.0017066847067326307,-0.014130298048257828,-0.005825478117913008
1772702672669214700,5.225214599609375,0.0011692836415022612,-0.005126338452100754,-0.0051019201055169106
1772702672679263700,5.235263671875,0.0049512386322021484,0.00039785681292414665,-0.0025831018574535847
1772702672689313800,5.245313720703125,0.00393441878259182,0.010202471166849136,0.0005874138441868126
1772702672699363600,5.255363525390625,0.0026553026400506496,0.011539909988641739,0.0008127172477543354
1772702672709414000,5.265413818359375,0.002849447075277567,0.010421384125947952,-0.001610759412869811
1772702672719464000,5.2754638671875,0.0010371661046519876,0.005780559033155441,-0.002612906973809004
1772702672729514000,5.285513916015625,0.0009945385390892625,0.0020079328678548336,0.003160413820296526
1772702672739563800,5.295563720703125,0.00009758584201335907,0.006265528965741396,-0.00006387545727193356
1772702672749613800,5.30561376953125,-0.001647902186959982,0.009157037362456322,0.0020352769643068314
1772702672759663900,5.315663818359375,-0.00040314067155122757,0.011690236628055573,0.0035972208715975285
1772702672769712600,5.325712646484375,0.0005812013405375183,0.014437934383749962,0.0035368655808269978
1772702672779762700,5.3357626953125,0.0006009087665006518,0.017291512340307236,0.0014217831194400787
1772702672789812700,5.345812744140625,-0.00216888589784503,0.01273191999644041,0.0014178588753566146
1772702672799862800,5.35586279296875,-0.004197149071842432,0.005720616318285465,-0.0016200090758502483
1772702672809912600,5.36591259765625,-0.0007541559170931578,0.0005307490937411785,-0.002319647930562496
1772702672819962600,5.375962646484375,-0.003311323234811425,-0.0015086997300386429,-0.006126636639237404
1772702672830012700,5.3860126953125,-0.004331209231168032,0.001867388840764761,-0.0053301528096199036
1772702672840062000,5.39606201171875,-0.0054100556299090385,0.007073069456964731,-0.0032797851599752903
1772702672850111700,5.40611181640625,-0.0029407977126538754,0.006838100031018257,-0.005783932749181986
1772702672860161800,5.416161865234375,0.002519747707992792,0.008740395307540894,-0.0025196962524205446
1772702672870211800,5.4262119140625,0.002573358826339245,0.006346397567540407,-0.004476633854210377
1772702672880262000,5.436261962890625,0.0009805222507566214,0.009422080591320992,-0.005852689500898123
1772702672890311400,5.4463115234375,-0.002901221625506878,0.009070035070180893,-0.004649760201573372
1772702672900361500,5.456361572265625,-0.000877219601534307,0.007092105224728584,-0.005782136227935553
1772702672910411300,5.466411376953125,-0.0010461300844326615,0.0022246609441936016,-0.004012590274214745
1772702672920461300,5.47646142578125,-0.000675950781442225,-0.003497673198580742,-0.0036695748567581177
1772702672930511400,5.486511474609375,-0.0023559676483273506,-0.0009809411130845547,-0.0014925149735063314
1772702672940560400,5.496560302734375,0.0015335793141275644,0.007174191065132618,-0.0003406978212296963
1772702672950610400,5.5066103515625,-0.000499952002428472,0.014859375543892384,-0.002338360995054245
1772702672960660500,5.516660400390625,-0.003673641011118889,0.015287878923118114,-0.006233766674995422
1772702672970710500,5.52671044921875,-0.004571994300931692,0.011842137202620506,-0.006397915072739124
1772702672980760300,5.53676025390625,-0.0000917584402486682,0.00589023856446147,-0.0025509789120405912
1772702672990810400,5.546810302734375,-0.0010484004160389304,0.008783209137618542,-0.00339120184071362
1772702673000860400,5.5568603515625,-0.0033613559789955616,0.004701647907495499,-0.002631668234243989
1772702673010910500,5.566910400390625,-0.00034973875153809786,0.0008189668878912926,-0.0026032221503555775
1772702673020960300,5.576960205078125,0.0017791922437027097,-0.0021230271086096764,-0.00043514277786016464
1772702673031009500,5.587009521484375,-0.0011400574585422873,0.0011536176316440105,0.0003228815912734717
1772702673041059600,5.5970595703125,0.0024168603122234344,0.011138606816530228,0.0003077015862800181
1772702673051109400,5.607109375,0.002522203139960766,0.017961427569389343,-0.00003019929863512516
1772702673061159400,5.617159423828125,0.005546222906559706,0.016271650791168213,0.0026468103751540184
1772702673071209500,5.62720947265625,0.005071647465229034,0.01606046035885811,0.002960796933621168
1772702673081259500,5.637259521484375,0.005015188362449408,0.0072243595495820045,0.001243856968358159
1772702673091309300,5.647309326171875,0.00785957183688879,0.005119908135384321,0.000364285777322948
1772702673101359400,5.657359375,0.005246478598564863,0.003024266567081213,-0.00020722858607769012
1772702673111409400,5.667409423828125,0.005057613365352154,0.006499632727354765,0.0008254285785369575
1772702673121458400,5.67745849609375,0.004948423244059086,0.003212758805602789,0.0011000004597008228
1772702673131508200,5.68750830078125,0.0029436778277158737,-0.00228622043505311,0.002250172197818756
1772702673141559300,5.697559326171875,0.001430469797924161,-0.006961931940168142,0.0017548243049532175
1772702673151608600,5.707608642578125,0.003602818585932255,-0.004471726715564728,-0.0038099675439298153
1772702673161658600,5.71765869140625,0.0005092905485071242,-0.00845847837626934,-0.003294645342975855
1772702673171708400,5.72770849609375,0.00344073842279613,-0.01120360754430294,-0.0009810908231884241
1772702673181758500,5.737758544921875,0.006690593436360359,-0.009240325540304184,-0.0005928019527345896
1772702673191808500,5.74780859375,0.007654688786715269,-0.0020359759218990803,-0.0016843014163896441
1772702673201858600,5.757858642578125,0.006157726049423218,0.002385670319199562,-0.0014936189400032163
1772702673211908400,5.767908447265625,0.006169610191136599,0.00339436624199152,-0.0017258080188184977
1772702673221958400,5.77795849609375,0.007782420143485069,-0.004917625337839127,-0.001771081704646349
1772702673232008400,5.788008544921875,0.008958786725997925,-0.0076723420061171055,-0.003897234098985791
1772702673242057200,5.79805712890625,0.006504151504486799,-0.007234784308820963,-0.005373956635594368
1772702673252107300,5.808107177734375,0.005617792252451181,-0.010258104652166367,-0.005026919301599264
1772702673262157600,5.818157470703125,0.0053658573888242245,-0.00943758524954319,-0.005939851049333811
1772702673272207600,5.82820751953125,0.005314133130013943,-0.006846697069704533,-0.0030777258798480034
1772702673282257400,5.83825732421875,0.005158338695764542,0.0002953684888780117,-0.003243108280003071
1772702673292307500,5.848307373046875,0.006194841116666794,-0.0036767362616956234,-0.004284670576453209
1772702673302357500,5.858357421875,0.0056891068816185,-0.002481509931385517,-0.0015663820086047053
1772702673312407600,5.868407470703125,0.005119367502629757,-0.004483373835682869,-0.004246668424457312
1772702673322457300,5.878457275390625,0.0019416838185861707,-0.003271103370934725,-0.0031851320527493954
1772702673332507400,5.88850732421875,0.002376736141741276,-0.009981626644730568,-0.0027545869816094637
1772702673342556400,5.898556396484375,0.0027274745516479015,-0.011552891694009304,-0.00045255059376358986
1772702673352606500,5.9086064453125,-0.0002486186567693949,-0.011315380223095417,-0.00007450539851561189
1772702673362656300,5.91865625,0.0023522244300693274,-0.0026017832569777966,-0.0028156971093267202
1772702673372706300,5.928706298828125,0.0009448128985241055,-0.00009800167754292488,-0.0032702009193599224
1772702673382756400,5.93875634765625,0.003882279619574547,0.00038083456456661224,-0.003155152313411236
1772702673392806700,5.948806640625,0.0024727964773774147,0.00484480382874608,-0.002010455122217536
1772702673402856400,5.9588564453125,0.0033764068502932787,0.006594500038772821,-0.0003483761101961136
1772702673412906500,5.968906494140625,0.002242837566882372,0.0020386530086398125,0.0020172391086816788
1772702673422956500,5.97895654296875,0.004036476369947195,-0.001103078480809927,0.0018350786995142698
1772702673433005300,5.98900537109375,0.0018217017641291022,-0.002389513887465,0.002740047872066498
1772702673443055400,5.999055419921875,0.0034864437766373158,-0.004518977366387844,0.0034236814826726913
1772702673453105400,6.00910546875,0.002075532451272011,-0.0010717548429965973,0.004891614895313978
1772702673463155500,6.019155517578125,0.000975913368165493,0.005428754724562168,0.0030974431429058313
1772702673473205200,6.029205322265625,0.00025498506147414446,0.00204170448705554,0.006929874885827303
1772702673483255300,6.03925537109375,0.0009311616886407137,-0.005682261660695076,0.006771682761609554
1772702673493305300,6.049305419921875,0.0017398849595338106,-0.0060345204547047615,0.00569580914452672
1772702673503355400,6.05935546875,-0.0018295497866347432,0.00022523989900946617,0.004608174320310354
1772702673513405400,6.069405517578125,-0.0021383557468652725,0.0002954765222966671,0.008506186306476593
1772702673523455500,6.07945556640625,-0.0008168952772393823,0.007016229908913374,0.0051953443326056
1772702673533504500,6.08950439453125,-0.0026793444994837046,0.006823841016739607,0.002748738043010235
1772702673543554300,6.09955419921875,-0.0054018935188651085,-0.0013523292727768421,0.005050774198025465
1772702673553604400,6.109604248046875,0.0001323517644777894,0.00004728417843580246,0.005346021614968777
1772702673563654400,6.119654296875,0.00099654751829803,-0.0018163961358368397,0.003256505122408271
1772702673573704400,6.129704345703125,0.0011988093610852957,-0.0022324025630950928,0.003971102647483349
1772702673583754500,6.13975439453125,0.00032502622343599796,-0.003818847704678774,0.007672896608710289
1772702673593804300,6.14980419921875,-0.00018233235459774733,0.0007459386251866817,0.007080230861902237
1772702673603854300,6.159854248046875,-0.0010273534571751952,-0.0016309325583279133,0.005776879843324423
1772702673613904400,6.169904296875,-0.00008474208880215883,-0.0005607772618532181,0.004676118027418852
1772702673623954400,6.179954345703125,0.0023829429410398006,-0.0007977988570928574,0.004672123119235039
1772702673634003500,6.19000341796875,-0.000789623474702239,-0.00022458331659436226,0.004922968335449696
1772702673644053500,6.200053466796875,0.0024333340115845203,0.0013826345093548298,0.0036086980253458023
1772702673654103600,6.210103515625,0.00044441589852795005,0.004997466690838337,0.005829411093145609
1772702673664153300,6.2201533203125,-0.000051731010898947716,0.007374337874352932,0.0018650294514372945
1772702673674203400,6.230203369140625,-0.002149670384824276,0.003474515862762928,0.0028325181920081377
1772702673684253400,6.24025341796875,-0.000060686725191771984,0.000665680505335331,0.0021531456150114536
1772702673694303500,6.250303466796875,-0.0008090425981208682,-0.0002022925764322281,0.00310696242377162
1772702673704353300,6.260353271484375,-0.004071681294590235,-0.0040548210963606834,0.0004922709777019918
1772702673714403300,6.2704033203125,-0.002799117472022772,-0.008345646783709526,-0.0010906439274549484
1772702673724452600,6.28045263671875,0.0010073386365547776,-0.0008006449788808823,0.0019339080899953842
1772702673734502400,6.29050244140625,0.0027940329164266586,-0.0035240803845226765,-0.0043719070963561535
1772702673744552400,6.300552490234375,0.0023271809332072735,-0.005145679228007793,0.002879347652196884
1772702673754602500,6.3106025390625,0.003578759729862213,-0.005022534169256687,0.002086435444653034
1772702673764652500,6.320652587890625,0.006715164519846439,0.0062615456990897655,0.0005087787285447121
1772702673774702300,6.330702392578125,0.006301969289779663,0.006548347882926464,0.00006676584598608315
1772702673784752400,6.34075244140625,0.007404517848044634,-0.0027708513662219048,0.004942480940371752
1772702673794802400,6.350802490234375,0.007362360134720802,-0.004167865961790085,0.004651975352317095
1772702673804852500,6.3608525390625,0.0051303645595908165,-0.0036951550282537937,0.002564855618402362
1772702673814902300,6.37090234375,0.003819243051111698,-0.0031031938269734383,0.0009324876591563225
1772702673824951300,6.380951416015625,0.005039770156145096,-0.00659007066860795,0.002713876310735941
1772702673835001300,6.39100146484375,0.0018195922020822763,-0.01199608389288187,-0.00170808844268322
1772702673845051600,6.4010517578125,0.004666511435061693,-0.019468914717435837,-0.000003931607352569699
1772702673855101400,6.411101318359375,0.0046017966233193874,-0.01755410060286522,-0.001246562460437417
1772702673865151500,6.4211513671875,0.004009775817394257,-0.008927056565880775,-0.001538711367174983
1772702673875201500,6.431201416015625,0.004968918859958649,-0.005754678510129452,0.0015707244165241718
1772702673885251600,6.44125146484375,0.004060780629515648,-0.0024579516611993313,0.000388280808692798
1772702673895301600,6.451301513671875,0.0050359610468149185,-0.0015230588614940643,0.0012505148770287633
1772702673905351400,6.461351318359375,0.005748090334236622,-0.004149734973907471,0.0006739405216649175
1772702673915401500,6.4714013671875,0.0032358025200664997,-0.0010710996575653553,-0.002701687626540661
1772702673925450500,6.481450439453125,0.0021774624474346638,-0.0014729704707860947,-0.005107054486870766
1772702673935500300,6.491500244140625,0.002106852363795042,-0.004602367058396339,0.0018177262973040342
1772702673945550300,6.50155029296875,0.004297302570194006,-0.009996067732572556,0.0010179788805544376
1772702673955600400,6.511600341796875,0.0025939447805285454,-0.009520160034298897,0.0001676316314842552
1772702673965650400,6.521650390625,0.0007100244984030724,-0.010115111246705055,0.00028534335433505476
1772702673975700500,6.531700439453125,0.0020982087589800358,-0.006454790476709604,-0.0015732189640402794
1772702673985750500,6.54175048828125,0.004450312815606594,-0.004718409385532141,-0.001821425510570407
1772702673995800600,6.551800537109375,0.005317825824022293,-0.008288448676466942,-0.0013764691539108753
1772702674005850600,6.5618505859375,0.0012746145948767662,-0.009273018687963486,-0.001747980248183012
1772702674015899400,6.5718994140625,0.004714725073426962,-0.0031221224926412106,-0.00016013550339266658
1772702674025949400,6.581949462890625,0.005177316255867481,-0.0034283860586583614,-0.003648876678198576
1772702674035999500,6.59199951171875,0.004591607488691807,-0.0017526457086205482,-0.0010935286991298199
1772702674046049300,6.60204931640625,0.0027425745502114296,-0.00811174139380455,0.0011374014429748058
1772702674056099300,6.612099365234375,-0.0021808366291224957,-0.0006323931738734245,-0.0012254680041223764
1772702674066149400,6.6221494140625,0.0026155163068324327,-0.0016406658105552197,-0.003054260741919279
1772702674076199400,6.632199462890625,0.0007938706548884511,-0.00838432740420103,-0.000731702777557075
1772702674086249500,6.64224951171875,0.0014700472820550203,-0.005802658852189779,-0.0011117358226329088
1772702674096299500,6.652299560546875,0.0036785975098609924,-0.009077593684196472,0.0020919214002788067
1772702674106349600,6.662349609375,0.0010186322033405304,-0.0030143745243549347,0.0030567848589271307
1772702674116398600,6.672398681640625,0.003634586464613676,-0.0034166560508310795,0.0018287028651684523
1772702674126448400,6.682448486328125,0.0010641033295542002,0.0015866244211792946,0.002238563494756818
1772702674136498400,6.69249853515625,0.0013462898787111044,-0.0014836234040558338,0.002127422485500574
1772702674146548500,6.702548583984375,0.0016650701873004436,-0.0014756335876882076,-0.0009493276011198759
1772702674156598500,6.7125986328125,0.0007755543338134885,-0.004024899564683437,0.00029465206898748875
1772702674166648300,6.7226484375,0.00002347759436815977,-0.0036800201050937176,0.00012341083493083715
1772702674176698400,6.732698486328125,-0.0018399361288174987,0.016962142661213875,-0.0005825932021252811
1772702674186748400,6.74274853515625,-0.0027912170626223087,0.0007919599302113056,0.00042914171353913844
1772702674196798500,6.752798583984375,-0.002124842256307602,-0.0015547662042081356,0.0004721294972114265
1772702674206848300,6.76284814453125,-0.0032526906579732895,-0.007293345872312784,0.0033038686960935593
1772702674216897500,6.7728974609375,-0.0015905749751254916,-0.015612347982823849,-0.0009300553356297314
1772702674226947600,6.782947509765625,-0.00022890069521963596,-0.0026419544592499733,-0.00475462106987834
1772702674236997400,6.792997314453125,-0.0012876050313934684,0.007448218762874603,-0.005122610367834568
1772702674247047400,6.80304736328125,-0.0004340619780123234,0.004358951933681965,-0.001340388902463019
1772702674257097500,6.813097412109375,-0.001880986848846078,0.0007400135509669781,-0.0002659348538145423
1772702674267147500,6.8231474609375,-0.0005347589030861855,0.003516093362122774,-0.004796770866960287
1772702674277197300,6.833197265625,0.00069092569174245,-0.0003349906764924526,-0.006592310965061188
1772702674287247400,6.843247314453125,0.00027174421120435,-0.002942225430160761,-0.004975238814949989
1772702674297297400,6.85329736328125,-0.000465377583168447,0.0020500430837273598,-0.006226427853107452
1772702674307346400,6.863346435546875,0.00084969139425084,-0.003599586896598339,-0.003882579505443573
1772702674317396500,6.873396484375,-0.0003736591897904873,-0.005875629372894764,-0.002754639834165573
1772702674327446500,6.883446533203125,0.001787229790352285,-0.0041578905656933784,-0.00468915980309248
1772702674337496600,6.89349658203125,0.0019440650939941406,-0.0003094971179962158,-0.00028334034141153097
1772702674347546600,6.903546630859375,0.0018210270209237933,0.004851709119975567,-0.001975779188796878
1772702674357596400,6.913596435546875,-0.0006171310087665915,0.009589512832462788,-0.003176457714289427
1772702674367646500,6.923646484375,0.001972793135792017,0.01417680736631155,-0.0038688797503709793
1772702674377696500,6.933696533203125,0.0007352718384936452,0.012515582144260406,-0.0028043000493198633
1772702674387746600,6.94374658203125,-0.0017097764648497105,0.009912343695759773,-0.0023443722166121006
1772702674397796400,6.95379638671875,-0.002285300986841321,0.005115361884236336,-0.0012705741683021188
1772702674407845400,6.963845458984375,-0.003799308091402054,0.0023185107856988907,-0.003801109967753291
1772702674417895700,6.973895751953125,-0.0029978263191878796,0.0034802057780325413,-0.002254414837807417
1772702674427945500,6.983945556640625,-0.0038242051377892494,-0.00038217660039663315,-0.0029481681995093822
1772702674437995500,6.99399560546875,-0.003855630289763212,-0.006974032614380121,-0.003854175563901663
1772702674448045600,7.004045654296875,-0.0005541096907109022,0.001366188284009695,-0.0012040641158819199
1772702674458095600,7.014095703125,-0.0014610453508794308,0.012471593916416168,-0.0018086709314957261
1772702674468145400,7.0241455078125,0.0028950872365385294,0.009314149618148804,-0.0041570463217794895
1772702674478195500,7.034195556640625,0.002929244190454483,0.0006797946989536285,0.000005040055839344859
1772702674488245500,7.04424560546875,0.0032935645431280136,0.0033086007460951805,0.0013728395570069551
1772702674498295600,7.054295654296875,-0.0006106210639700294,-0.014159558340907097,-0.000615083787124604
1772702674508344300,7.06434423828125,0.0010104451794177294,-0.023293668404221535,-0.001234002411365509
1772702674518394400,7.074394287109375,-0.0008853805484250188,-0.0012784586288034916,-0.005286577623337507
1772702674528444400,7.0844443359375,0.007289458531886339,0.027674894779920578,0.028299877420067787
1772702674538494500,7.094494384765625,0.0040234168991446495,0.11303196847438812,0.24140040576457977
1772702674548544500,7.10454443359375,-0.004877133294939995,0.0011991802603006363,0.22996878623962402
1772702674558594600,7.114594482421875,-0.0007496178150177002,-0.09416722506284714,0.08196499943733215
1772702674568644600,7.12464453125,0.00087810616241768,-0.012675290927290916,0.02333417348563671
1772702674578694400,7.1346943359375,-0.0003775421064347029,0.04845913127064705,0.015367455780506134
1772702674588744400,7.144744384765625,-0.0005940570263192058,-0.01760696992278099,-0.004900265485048294
1772702674598794500,7.15479443359375,-0.0007559697842225432,-0.04707133769989014,-0.02651648409664631
1772702674608843500,7.164843505859375,0.0011417989153414965,-0.017138471826910973,-0.041468799114227295
1772702674618893300,7.174893310546875,0.0030811126343905926,0.0012165671214461327,-0.06448011100292206
1772702674628943400,7.184943359375,0.0035897763445973396,0.008938135579228401,-0.08053524792194366
1772702674638993400,7.194993408203125,-0.0011868004221469164,0.0045347437262535095,-0.09748483449220657
1772702674649043500,7.20504345703125,0.002357068005949259,-0.002785220742225647,-0.103160560131073
1772702674659093500,7.215093505859375,0.00790802389383316,0.021578151732683182,-0.07871933281421661
1772702674669143600,7.2251435546875,-0.0036570196971297264,0.03226195648312569,-0.017838139086961746
