time,seconds_elapsed,z,y,x
1772702667501059600,0.0570595703125,0.0024620923213660717,0.020074108615517616,-0.0057162088342010975
1772702667511109400,0.067109375,0.002280997345224023,0.01816941611468792,-0.006464024540036917
1772702667521159400,0.077159423828125,0.002373675350099802,0.0054541537538170815,-0.006294913589954376
1772702667531209500,0.08720947265625,0.0006820355774834752,0.013484915718436241,-0.004063451196998358
1772702667541259500,0.097259521484375,0.0011052117915824056,0.020190222188830376,-0.003537210635840893
1772702667551309300,0.107309326171875,0.0014567491598427296,0.0019342538435012102,-0.0016130766598507762
1772702667561359400,0.117359375,-0.0012476909905672073,0.0008048072922974825,-0.003975300583988428
1772702667571408400,0.127408447265625,-0.0019659455865621567,0.0011558119440451264,-0.009148756973445415
1772702667581458400,0.13745849609375,-0.0011400992516428232,0.007786017842590809,-0.006177734583616257
1772702667591508500,0.147508544921875,-0.003721501212567091,0.0068179587833583355,-0.007663512136787176
1772702667601558500,0.15755859375,0.0005102616851218045,0.003412308171391487,-0.0016413062112405896
1772702667611608600,0.167608642578125,-0.0009374326909892261,0.006487726699560881,-0.005461877211928368
1772702667621658400,0.177658447265625,-0.0011590076610445976,0.0017901768442243338,-0.0032754219137132168
1772702667631708400,0.18770849609375,-0.003609115956351161,0.00782569870352745,-0.002004561247304082
1772702667641758500,0.197758544921875,0.00011957593233091757,0.01287398673593998,-0.0039265644736588
1772702667651808500,0.20780859375,-0.0000697748182574287,0.005349225364625454,0.00037816885742358863
1772702667661857300,0.217857177734375,-0.0009800433181226254,0.004816326778382063,0.0016793893883004785
1772702667671907300,0.2279072265625,-0.0030919299460947514,0.00960016343742609,-0.0008780442294664681
1772702667681957400,0.237957275390625,-0.002529470482841134,0.0004697816038969904,-0.005608883686363697
1772702667692007400,0.24800732421875,-0.0014732606941834092,0.001332912128418684,-0.002665291540324688
1772702667702057500,0.258057373046875,-0.0011137339752167463,0.004997954238206148,0.004735632799565792
1772702667712107500,0.268107421875,-0.0008436894277110696,0.007097324356436729,0.001764344167895615
1772702667722157600,0.278157470703125,0.0009158611064776778,0.0008724515791982412,0.003020557342097163
1772702667732207600,0.28820751953125,-0.0012112056137993932,0.005179582163691521,0.003638410707935691
1772702667742256400,0.29825634765625,-0.0035236284602433443,0.01176158431917429,0.0049707903526723385
1772702667752306400,0.308306396484375,-0.0017744642682373524,0.01013812143355608,0.007709052413702011
1772702667762356500,0.3183564453125,-0.002782204421237111,0.012049738317728043,0.005197957623749971
1772702667772406300,0.32840625,-0.002433063928037882,0.015312643721699715,0.0023089605383574963
1772702667782456300,0.338456298828125,-0.0001840244367485866,0.0134465666487813,-0.00384427304379642
1772702667792506400,0.34850634765625,-0.0035835495218634605,0.010820955969393253,-0.00800093449652195
1772702667802556400,0.358556396484375,-0.003509779926389456,0.0041433461010456085,-0.00440939562395215
1772702667812606200,0.368606201171875,-0.0029766152147203684,0.001773132593370974,0.00005193164179218002
1772702667822656500,0.378656494140625,-0.0026999127585440874,0.005253351293504238,-0.005849367007613182
1772702667832705500,0.38870556640625,-0.0007448861724697053,0.0046631949953734875,-0.0068051754496991634
1772702667842755300,0.39875537109375,0.0016527577536180615,0.004986502695828676,-0.0076177059672772884
1772702667852805400,0.408805419921875,0.004385161213576794,0.0024865935556590557,-0.005647233221679926
1772702667862855400,0.41885546875,0.002133458387106657,0.007667240686714649,-0.002356364857405424
1772702667872905500,0.428905517578125,0.0012745888670906425,0.014119813218712807,0.0022069616243243217
1772702667882955500,0.43895556640625,0.003227751236408949,0.010971425101161003,0.0014911039033904672
1772702667893005300,0.44900537109375,0.0009307747823186219,0.011997274123132229,-0.0020959076937288046
1772702667903055400,0.459055419921875,-0.0004753742541652173,0.0071066454984247684,-0.005643238313496113
1772702667913105400,0.46910546875,-0.0013142699608579278,-0.0012085424968972802,-0.004833903629332781
1772702667923154400,0.479154541015625,-0.0017382452497258782,0.000006125270374468528,-0.0052024852484464645
1772702667933204500,0.48920458984375,-0.0016330503858625889,0.0012665993999689817,-0.0020234698895365
1772702667943254500,0.499254638671875,-0.0016144082183018327,0.00358781055547297,-0.0036794233601540327
1772702667953304600,0.5093046875,-0.0006862966110929847,0.009188438765704632,-0.002263420494273305
1772702667963354400,0.519354248046875,-0.0043590618297457695,0.017584852874279022,-0.0038341530598700047
1772702667973404400,0.529404296875,-0.002037051832303405,0.019473565742373466,0.0012996225850656629
1772702667983454500,0.539454345703125,-0.0006745787104591727,0.014907577075064182,-0.0028626318089663982
1772702667993504500,0.54950439453125,-0.0008226504432968795,0.014115818776190281,-0.005588111001998186
1772702668003553300,0.55955322265625,-0.0018708707066252828,0.011949603445827961,-0.007892011664807796
1772702668013603300,0.569603271484375,-0.001787779969163239,0.006855775602161884,-0.006971622817218304
1772702668023653600,0.579653564453125,-0.0028706213925033808,0.0023441144730895758,0.0006266417913138866
1772702668033703700,0.58970361328125,-0.003126817522570491,0.008341286331415176,-0.0023904533591121435
1772702668043753500,0.59975341796875,-0.0008780442294664681,0.011516307480633259,-0.002639192622154951
1772702668053803500,0.609803466796875,0.0008631304954178631,0.009947705082595348,-0.0024466461036354303
1772702668063853600,0.619853515625,0.002633333671838045,0.010395382530987263,-0.0011171960504725575
1772702668073903600,0.629903564453125,0.0038930089212954044,0.01239168830215931,-0.002074069809168577
1772702668083953400,0.639953369140625,0.0029377329628914595,0.0037643781397491693,-0.002502838848158717
1772702668094003500,0.65000341796875,0.005516471806913614,0.004050667863339186,-0.0006865629111416638
1772702668104052500,0.660052490234375,0.0036882117856293917,0.010259827598929405,-0.005260808393359184
1772702668114102300,0.670102294921875,0.003151318524032831,0.006168946158140898,0.0017395768081769347
1772702668124152300,0.68015234375,0.0030719563364982605,0.005654956214129925,-0.004097007215023041
1772702668134202400,0.690202392578125,0.002579005202278495,0.0075966669246554375,-0.0035020567011088133
1772702668144252400,0.70025244140625,0.0017696705181151628,0.007874434813857079,-0.0010540791554376483
1772702668154302500,0.710302490234375,0.0025723471771925688,-0.0021078919526189566,-0.003962250892072916
1772702668164352500,0.7203525390625,0.0028487835079431534,-0.002651443239301443,-0.0035260252188891172
1772702668174402600,0.730402587890625,0.0043771713972091675,-0.005216599907726049,-0.0049316417425870895
1772702668184451600,0.74045166015625,0.0025683525018393993,-0.0018967032665386796,-0.004349474795162678
1772702668194501400,0.75050146484375,0.0025513083674013615,0.005381982307881117,-0.006999586243182421
1772702668204551400,0.760551513671875,0.0022719427943229675,0.007056578062474728,-0.001535046030767262
1772702668214601500,0.7706015625,0.0033420007675886154,0.008670453913509846,-0.0027830032631754875
1772702668224651500,0.780651611328125,0.0031441280152648687,0.009241701103746891,0.0008394283941015601
1772702668234701300,0.790701416015625,0.0028818065766245127,0.012654010206460953,-0.0017678063595667481
1772702668244751400,0.80075146484375,0.0021555626299232244,0.008028898388147354,-0.005061071366071701
1772702668254801400,0.810801513671875,0.00009880327706923708,0.0016010924009606242,-0.002549710450693965
1772702668264851500,0.8208515625,-0.00012410330236889422,0.0006745787104591727,-0.0021646174136549234
1772702668274900500,0.830900390625,0.001106809708289802,-0.000996554852463305,-0.00007084008393576369
1772702668284950500,0.840950439453125,-0.0015568839153274894,-0.005571599118411541,0.0016530241118744016
1772702668295000600,0.85100048828125,-0.0007510114228352904,0.00037976677413098514,0.0005880259559489787
1772702668305050400,0.86105029296875,0.0017241304740309715,0.007932491600513458,0.0005137237603776157
1772702668315100400,0.871100341796875,0.0016314524691551924,0.010120278224349022,-0.0011318434262648225
1772702668325150500,0.881150390625,0.00020213393145240843,0.006175337824970484,0.002463157754391432
1772702668335200500,0.891200439453125,0.0029289445374161005,0.00503870053216815,0.004328435752540827
1772702668345250300,0.901250244140625,0.0027076357509940863,0.009759154170751572,0.004018177278339863
1772702668355300400,0.91130029296875,0.0030370689928531647,0.009439308196306229,-0.00012410330236889422
1772702668365349600,0.921349609375,-0.0003129214164800942,0.0062392535619437695,0.0020093549974262714
1772702668375399400,0.9313994140625,-0.0005637911963276565,0.010068879462778568,-0.0003049319493584335
1772702668385449500,0.941449462890625,-0.000922519015148282,0.013544037938117981,0.003290335414931178
1772702668395499500,0.95149951171875,0.0001627191377338022,0.008359395898878574,0.005000617355108261
1772702668405549600,0.961549560546875,-0.0029619678389281034,0.015528359450399876,0.002837331732735038
1772702668415599400,0.971599365234375,-0.0006271744496189058,0.00007909588020993397,0.003831756068393588
1772702668425649400,0.9816494140625,-0.0025739450938999653,0.001525991247035563,0.00031664984999224544
1772702668435699500,0.991699462890625,-0.004716724622994661,0.006083991378545761,0.005298891570419073
1772702668445749500,1.00174951171875,-0.0037468012887984514,0.008743956685066223,0.001678057829849422
1772702668455798300,1.01179833984375,-0.0011201255256310105,0.016049539670348167,0.004205664154142141
1772702668465848300,1.021848388671875,-0.0023036343045532703,0.016027702018618584,0.007685350254178047
1772702668475898600,1.031898681640625,-0.0014346449170261621,0.013731258921325207,0.006650445982813835
1772702668485948700,1.04194873046875,-0.003230947069823742,0.010793792083859444,0.005067463032901287
1772702668495998500,1.05199853515625,-0.0030623688362538815,0.01341753825545311,0.004210457671433687
1772702668506048500,1.062048583984375,-0.004545483272522688,0.006825415417551994,0.003979295492172241
1772702668516098600,1.0720986328125,-0.004066380672156811,0.012398879043757915,0.003290868131443858
1772702668526148600,1.082148681640625,-0.0021992383990436792,0.009555688127875328,0.008018244989216328
1772702668536198400,1.092198486328125,-0.0034139060880988836,0.006051767151802778,0.0015984292840585113
1772702668546247400,1.102247314453125,-0.0035233621019870043,0.005776662845164537,-0.00007163903501350433
1772702668556297500,1.11229736328125,-0.0017504957504570484,0.0025422535836696625,0.001714010490104556
1772702668566347300,1.12234716796875,-0.0025688852183520794,0.0046445527113974094,0.0018959043081849813
1772702668576397300,1.132397216796875,-0.001457814360037446,0.006163353566080332,-0.0014274542918428779
1772702668586447400,1.142447265625,-0.002272741636261344,0.0030067088082432747,-0.003602724289521575
1772702668596497400,1.152497314453125,-0.0013432984706014395,0.005952431354671717,-0.0012141350889578462
1772702668606547500,1.16254736328125,-0.003171824850142002,0.004979046061635017,-0.00019494339358061552
1772702668616597500,1.172597412109375,-0.0014777880860492587,0.005388107616454363,-0.00028389296494424343
1772702668626647600,1.1826474609375,0.002379534300416708,0.000928111607208848,-0.0008285093936137855
1772702668636696600,1.192696533203125,0.0009161274065263569,0.002305498579517007,-0.0006620618514716625
1772702668646746400,1.202746337890625,-0.0006045375484973192,0.008297078311443329,0.0007600661483593285
1772702668656796400,1.21279638671875,-0.0018785938154906034,0.016407735645771027,-0.001020257011987269
1772702668666846500,1.222846435546875,-0.0035265579354017973,0.01372087188065052,-0.0013912353897467256
1772702668676896500,1.232896484375,-0.0037505298387259245,0.015504390932619572,0.003090864745900035
1772702668686946300,1.2429462890625,-0.004833637271076441,0.01134027261286974,-0.00026258768048137426
1772702668696996400,1.252996337890625,-0.004250937607139349,0.007352455053478479,-0.0014210627414286137
1772702668707046400,1.26304638671875,-0.00040613205055706203,-0.0004900216590613127,0.0015531554818153381
1772702668717095400,1.273095458984375,-0.002216815249994397,0.0035534559283405542,-0.001315335277467966
1772702668727145500,1.2831455078125,-0.002980876248329878,0.005344697739928961,-0.00173717993311584
1772702668737195500,1.293195556640625,0.0007728493656031787,0.003311640815809369,0.0009427590412087739
1772702668747245600,1.30324560546875,0.0010404969798400998,0.0059905145317316055,-0.00007323692989302799
1772702668757295400,1.31329541015625,0.005758020561188459,0.005877329967916012,-0.0002580603177193552
1772702668767345400,1.323345458984375,0.004261057823896408,0.006777478381991386,-0.0014394385507330298
1772702668777395500,1.3333955078125,0.0032418658956885338,0.007098922040313482,0.0034671693574637175
1772702668787445500,1.343445556640625,0.0054698665626347065,-0.0003312972257845104,0.0022535668686032295
1772702668797495300,1.353495361328125,0.006683202926069498,0.0016817862633615732,-0.0020546286832541227
1772702668807544600,1.363544677734375,0.0016144082183018327,-0.004575310740619898,-0.00376011710613966
1772702668817594600,1.3735947265625,0.003862116253003478,-0.0014298511669039726,-0.002514556748792529
1772702668827644400,1.38364453125,0.0007158577209338546,-0.0005025385180488229,-0.004624579101800919
1772702668837694500,1.393694580078125,0.0023963123094290495,-0.0030772825703024864,-0.002301770029589534
1772702668847744500,1.40374462890625,0.0015046859625726938,-0.008987636305391788,-0.006458431947976351
1772702668857794600,1.413794677734375,-0.0005946838646195829,-0.01085744146257639,-0.005846970248967409
1772702668867844400,1.42384423828125,-0.0012948289513587952,-0.004620318301022053,-0.003858121344819665
1772702668877894400,1.433894287109375,-0.0013110742438584566,-0.0008423578692600131,-0.005656820256263018
1772702668887944400,1.4439443359375,-0.0020040287636220455,-0.0011736550368368626,-0.004073038697242737
1772702668897993500,1.453993408203125,0.001008539111353457,-0.0034794199746102095,-0.0017174725653603673
1772702668908043300,1.464043212890625,0.002046106616035104,0.005645635072141886,-0.002558765234425664
1772702668918093600,1.474093505859375,0.0025949841365218163,0.010537861846387386,-0.0019947076216340065
1772702668928143600,1.4841435546875,0.003165433183312416,0.0076217008754611015,0.0017006946727633476
1772702668938193700,1.494193603515625,0.0009563411585986614,0.00782596506178379,-0.0003408846096135676
1772702668948243500,1.504243408203125,-0.000041545314161339775,-0.001160072977654636,-0.0013938985066488385
1772702668958293500,1.51429345703125,-0.0011954930378124118,-0.009503223933279514,0.002074069809168577
1772702668968343600,1.524343505859375,-0.003346528159454465,-0.01248383428901434,0.005109008401632309
1772702668978393600,1.5343935546875,-0.002921221312135458,-0.008110923692584038,-0.0004410194815136492
1772702668988442400,1.5444423828125,-0.002347576431930065,-0.004649613052606583,0.0033427998423576355
1772702668998492400,1.554492431640625,-0.0006354302167892456,0.0017592841759324074,0.004028563853353262
1772702669008542500,1.56454248046875,0.0007901599165052176,0.003454652614891529,0.006928746122866869
1772702669018592300,1.57459228515625,-0.0031936627347022295,0.006069610361009836,0.008826781064271927
1772702669028642300,1.584642333984375,0.0004852279380429536,0.006040049251168966,0.004624579101800919
1772702669038692400,1.5946923828125,-0.0006958839949220419,0.005932457745075226,0.005490106530487537
1772702669048742700,1.60474267578125,-0.002347576431930065,-0.0006476807757280767,0.006645918358117342
1772702669058792400,1.61479248046875,-0.0018303906545042992,-0.0033340114168822765,0.0029174929950386286
1772702669068842500,1.624842529296875,-0.002241050126031041,-0.003979295492172241,0.004246943164616823
1772702669078891500,1.6348916015625,-0.0032061797101050615,0.002625077962875366,0.00452737370505929
1772702669088941600,1.644941650390625,-0.0011166634503751993,-0.0012860405258834362,0.004898352082818747
1772702669098991400,1.654991455078125,-0.0033486587926745415,-0.006091448478400707,0.004140949342399836
1772702669109041400,1.66504150390625,-0.0011906992876902223,-0.005632852204144001,0.005809952039271593
1772702669119091500,1.675091552734375,-0.0019504991360008717,0.0003712446487043053,0.003962250892072916
1772702669129141500,1.6851416015625,0.00030599720776081085,-0.0012799152173101902,0.0049489522352814674
1772702669139191300,1.69519140625,-0.0012567456578835845,0.0023928501177579165,0.006175337824970484
1772702669149241300,1.705241455078125,-0.0005307680112309754,0.003662378992885351,0.007465639617294073
1772702669159290600,1.71529052734375,-5.326322138898831e-7,0.0043928842060267925,0.007733553647994995
1772702669169340400,1.72534033203125,-0.00021837920940015465,0.004522047471255064,0.005257878918200731
1772702669179390500,1.735390380859375,-0.00020293287525419146,0.0022354573011398315,0.0057316552847623825
1772702669189440500,1.7454404296875,0.0008077367674559355,-0.002546248259022832,0.006128998938947916
1772702669199490600,1.755490478515625,-0.0015749934827908874,0.0013662016717717052,0.002153431996703148
1772702669209540400,1.765540283203125,-0.002418416552245617,-0.0013307816116139293,0.00768801337108016
1772702669219590400,1.77559033203125,0.00007536746124969795,0.0054786549881100655,0.007197991944849491
1772702669229640400,1.785640380859375,-0.00044581317342817783,0.007998804561793804,0.007227286696434021
1772702669239690500,1.7956904296875,0.002275671111419797,0.0083673857152462,0.007678958587348461
1772702669249739500,1.805739501953125,0.00030599720776081085,0.011143730953335762,0.00458756135776639
1772702669259789600,1.81578955078125,-0.000006924218723725062,0.009034507907927036,0.006058425176888704
1772702669269839600,1.825839599609375,-0.001948368619196117,0.00749040674418211,0.007518103811889887
1772702669279889400,1.835889404296875,0.0011294466676190495,0.001469532260671258,0.005624862387776375
1772702669289939500,1.845939453125,-0.0010756507981568575,0.0005201153689995408,0.005044825840741396
1772702669299989500,1.855989501953125,-0.001416002749465406,0.0008463526028208435,0.00455800024792552
1772702669310039600,1.86603955078125,-0.0020421119406819344,0.0037121803034096956,0.003869839245453477
1772702669320089600,1.876089599609375,-0.0006034722900949419,0.004038949962705374,0.0038959383964538574
1772702669330139400,1.886139404296875,-0.001496430253610015,0.003471963107585907,0.0067511131055653095
1772702669340188400,1.8961884765625,0.0025124261155724525,0.00264851376414299,0.0027047062758356333
1772702669350238500,1.906238525390625,0.000630636524874717,0.0054182009771466255,0.00509942090138793
1772702669360288300,1.916288330078125,0.0008969526388682425,0.014123009517788887,0.004530835896730423
1772702669370338600,1.926338623046875,0.0008279767935164273,0.020614996552467346,0.001677791471593082
1772702669380388600,1.936388671875,-0.0024610271211713552,0.009904029779136181,0.0022064289078116417
1772702669390438700,1.946438720703125,-0.0013680658303201199,0.00484349112957716,0.0034373418893665075
1772702669400488400,1.956488525390625,-0.002508165081962943,0.006364688742905855,0.0007696535321883857
1772702669410538500,1.96653857421875,-0.004287689458578825,0.0034708979073911905,0.0009882990270853043
1772702669420587500,1.97658740234375,-0.003967577591538429,0.0013587448047474027,-0.00044900894863530993
1772702669430637300,1.98663720703125,0.0002798982313834131,0.00515907583758235,0.0007563377148471773
1772702669440687400,1.996687255859375,-0.0015121428295969963,0.00993359088897705,0.004772384651005268
1772702669450737400,2.0067373046875,-0.0017829863354563713,0.010028665885329247,0.005137237720191479
1772702669460787500,2.016787353515625,0.0023664848413318396,0.010865164920687675,0.008657137863337994
1772702669470837200,2.026837158203125,0.002377403900027275,0.010793525725603104,0.009810020215809345
1772702669480887300,2.03688720703125,0.0015390408225357533,0.009573531337082386,0.006710633169859648
1772702669490937300,2.046937255859375,0.002766757970675826,0.00643765926361084,0.004789695143699646
1772702669500987600,2.056987548828125,0.0033622407354414463,0.002808836055919528,0.004277835600078106
1772702669511036400,2.067036376953125,0.0038695731200277805,-0.0008679241873323917,0.003567037871107459
1772702669521086500,2.07708642578125,0.002582467393949628,0.0006844323943369091,0.003975566942244768
1772702669531136500,2.087136474609375,-0.0008231831016018987,0.0046578687615692616,0.002126800362020731
1772702669541186600,2.0971865234375,0.001401089015416801,-0.0011672634864225984,0.0008831042214296758
1772702669551236400,2.107236328125,0.0011821772204712033,-0.0059785302728414536,-0.00043063313933089375
1772702669561286400,2.117286376953125,0.0015523566398769617,-0.007712514605373144,-0.0015161376213654876
1772702669571336400,2.12733642578125,0.0005986785981804132,-0.004542553797364235,0.0005470133037306368
1772702669581386500,2.137386474609375,0.0009986853692680597,0.00002210423735959921,0.0022280006669461727
1772702669591436300,2.147436279296875,0.004031759686768055,0.006327670533210039,0.0029206888284534216
1772702669601485600,2.157485595703125,0.0021313277538865805,0.007867244072258472,0.0002817624481394887
1772702669611535600,2.16753564453125,0.004086886998265982,0.007956193760037422,0.005102883093059063
1772702669621585400,2.17758544921875,0.001341966912150383,0.010942130349576473,0.0009707222343422472
1772702669631635500,2.187635498046875,0.000020240024241502397,0.009387376718223095,-0.0007097324123606086
1772702669641685500,2.197685546875,0.0024051007349044085,0.0013938985066488385,-0.00028096348978579044
1772702669651735600,2.207735595703125,0.0004218447138555348,-0.003357979701831937,-0.003692472819238901
1772702669661785300,2.217785400390625,0.0007957525085657835,-0.006992395501583815,-0.0049026133492589
1772702669671835400,2.22783544921875,0.001660214620642364,-0.010467554442584515,-0.0036602485924959183
1772702669681885400,2.237885498046875,0.0018804579740390182,-0.0024791366886347532,-0.004613926634192467
1772702669691934500,2.2479345703125,-0.00021172130072955042,0.0030887341126799583,-0.004883704707026482
1772702669701984500,2.257984619140625,0.005348159931600094,0.004881840664893389,-0.0056986319832503796
1772702669712034600,2.26803466796875,0.0015624766238033772,0.014754445292055607,-0.0037289580795913935
1772702669722084600,2.278084716796875,0.0020397149492055178,0.014402907341718674,-0.001032241270877421
1772702669732134700,2.288134765625,0.0007363640470430255,0.00634791050106287,-0.0002109223569277674
1772702669742184400,2.298184326171875,0.0010106696281582117,0.0036360137164592743,-0.0006775081856176257
1772702669752234500,2.308234375,-0.0007795072160661221,0.002298840554431081,-0.002722283359616995
1772702669762284500,2.318284423828125,-0.0030892668291926384,-0.0012322446564212441,-0.001038366463035345
1772702669772334600,2.32833447265625,-0.0018423747969791293,-0.0012602078495547175,-0.0006562029011547565
1772702669782383400,2.33838330078125,-0.0024591628462076187,0.0010253170039504766,0.0027798074297606945
1772702669792433400,2.348433349609375,-0.0008295746520161629,0.006367085501551628,0.002266349969431758
1772702669802483500,2.3584833984375,-0.0019033611752092838,0.009339439682662487,-0.0015531554818153381
1772702669812533500,2.368533447265625,-0.00043755737715400755,0.015965383499860764,0.0022295983508229256
1772702669822583600,2.37858349609375,-0.0018008295446634293,0.01347293145954609,0.0024881914723664522
1772702669832633600,2.388633544921875,-0.0025987126864492893,0.009707221761345863,0.0029467877466231585
1772702669842683600,2.39868359375,-0.005155880004167557,0.010583668015897274,0.002231728984043002
1772702669852733400,2.4087333984375,-0.003593403147533536,0.008994294330477715,0.005772667936980724
1772702669862782500,2.418782470703125,-0.001275920425541699,0.004863464739173651,0.005212604999542236
1772702669872832500,2.42883251953125,-0.0014008227735757828,0.003369963960722089,0.005428853910416365
1772702669882882000,2.438882080078125,-0.003934021573513746,0.01077035628259182,0.002773149637505412
1772702669892932000,2.44893212890625,-0.005599562544375658,0.009870207868516445,0.005739910993725061
1772702669902982100,2.458982177734375,-0.003736148588359356,0.013990916311740875,0.003035471076145768
1772702669913032000,2.469031982421875,-0.0029862024821341038,0.01726740412414074,0.004209392238408327
1772702669923082200,2.479082275390625,-0.004563592839986086,0.009456618689000607,0.0015712650492787361
1772702669933132300,2.48913232421875,-0.0041465419344604015,0.0070099723525345325,0.002883404493331909
1772702669943182300,2.499182373046875,-0.004218447022140026,0.011512313038110733,-0.0014109427575021982
1772702669953231000,2.509231201171875,-0.0029257487040013075,0.010121343657374382,0.0008487494196742773
1772702669963281200,2.51928125,-0.003454119898378849,0.008576976135373116,-0.003659183392301202
1772702669973331200,2.529331298828125,-0.0029648973140865564,0.010804178193211555,-0.00045566685730591416
1772702669983381200,2.53938134765625,-0.004589159041643143,0.01577496901154518,0.00028389296494424343
1772702669993431000,2.54943115234375,-0.003612045431509614,0.01931803859770298,-0.0026019082870334387
1772702670003481000,2.559481201171875,-0.003840810852125287,0.018125208094716072,-0.0017627463676035404
1772702670013531100,2.56953125,-0.006718090269714594,0.008810802362859249,-0.0016961672808974981
1772702670023581200,2.579581298828125,-0.004132160916924477,0.0073047843761742115,-0.0033779535442590714
1772702670033631000,2.589630859375,-0.005065864883363247,0.010332265868782997,-0.007384412921965122
1772702670043680300,2.59968017578125,-0.0032200280111283064,0.00475534051656723,-0.0022027005907148123
1772702670053730300,2.609730224609375,-0.0031582426745444536,0.006999586243182421,0.0011582087026908994
1772702670063780000,2.619780029296875,0.0011651329696178436,0.01739310473203659,0.0016764599131420255
1772702670073830100,2.629830078125,-0.001987783471122384,0.023927969858050346,-0.0025949841365218163
1772702670083880200,2.639880126953125,-0.0029936593491584063,0.02203472889959812,-0.004780906718224287
1772702670093930200,2.64993017578125,-0.003020557342097163,0.014268684200942516,-0.0022770026698708534
1772702670103980000,2.65997998046875,-0.004729773849248886,0.010187656618654728,-0.0006950850365683436
1772702670114030000,2.670030029296875,-0.0062123560346663,0.009073389694094658,-0.003930293023586273
1772702670124079000,2.6800791015625,-0.007521831896156073,0.007847269997000694,-0.006024336442351341
1772702670134129400,2.69012939453125,-0.005304217804223299,0.0054666707292199135,-0.0051657333970069885
1772702670144179200,2.70017919921875,-0.006739661563187838,0.008857673965394497,-0.0038573225028812885
1772702670154229200,2.710229248046875,-0.00549330236390233,0.013403689488768578,-0.0032290827948600054
1772702670164279300,2.720279296875,-0.0019353191601112485,0.011714446358382702,-0.00373055599629879
1772702670174329300,2.730329345703125,-0.0009811085183173418,0.00968405231833458,-0.0019286612514406443
1772702670184379100,2.740379150390625,0.0006937534781172872,0.012624981813132763,-0.00041492050513625145
1772702670194429200,2.75042919921875,0.0010370349045842886,0.01606418751180172,-0.0021086910273879766
1772702670204479200,2.760479248046875,0.0007198524544946849,0.01193921733647585,-0.003753991797566414
1772702670214528000,2.770528076171875,0.0026296053547412157,0.005176652688533068,-0.0012412993237376213
1772702670224578000,2.780578125,0.0026202842127531767,0.008143413811922073,-0.003388073528185487
1772702670234628000,2.790628173828125,-0.0019057580502703786,0.0019030949333682656,-0.00577932596206665
1772702670244678100,2.80067822265625,-0.0008506136364303529,-0.0031055121216923,-0.005016063805669546
1772702670254728200,2.810728271484375,0.0014154701493680477,-0.010691526345908642,-0.004830175079405308
1772702670264778200,2.8207783203125,0.000371777277905494,-0.004977980628609657,0.00027297402266412973
1772702670274828300,2.830828369140625,0.0011339739430695772,0.005686914082616568,-0.002454369328916073
1772702670284878300,2.84087841796875,0.001955026527866721,0.005736448802053928,-0.0003880225704051554
1772702670294928100,2.85092822265625,0.002100967802107334,0.01107315719127655,-0.00027616979787126184
1772702670304977200,2.86097705078125,0.0025390577502548695,0.011227354407310486,-0.002042910782620311
1772702670315027200,2.871027099609375,0.0021528995130211115,0.006552175153046846,0.001743038883432746
1772702670325077000,2.881076904296875,0.00015180018090177327,0.010280334390699863,-0.003084206720814109
1772702670335127000,2.891126953125,-0.0008450209861621261,0.0029108349699527025,-0.0014008227735757828
1772702670345177000,2.901177001953125,-0.0017353157745674253,0.001927595934830606,-0.0006154565489850938
1772702670355227100,2.91122705078125,-0.00019387812062632293,-0.0043686493299901485,-0.003230147995054722
1772702670365277000,2.92127685546875,0.0012807141756638885,-0.003737214021384716,-0.002537726191803813
1772702670375327200,2.9313271484375,0.0020458402577787638,0.0017299894243478775,-0.00577959232032299
1772702670385377300,2.941377197265625,0.0018610169645398855,0.002871153876185417,-0.0034991272259503603
1772702670395426300,2.95142626953125,0.0011318434262648225,-0.001130511867813766,-0.0028996497858315706
1772702670405476000,2.96147607421875,0.001710814656689763,0.005091963801532984,-0.003665574826300144
1772702670415526100,2.971526123046875,0.0026405241806060076,0.0019150790758430958,-0.004028031136840582
1772702670425576200,2.981576171875,0.003025350859388709,0.005815544631332159,-0.005222725216299295
1772702670435626200,2.991626220703125,0.00119575927965343,0.006359096150845289,-0.004746818449348211
1772702670445676000,3.001676025390625,-0.0020506340079009533,0.0033372072502970695,-0.0036727653350681067
1772702670455726000,3.01172607421875,0.00012596751912496984,0.0006993460701778531,-0.00133850472047925
1772702670465776000,3.021776123046875,-0.0006173207075335085,0.0016740630380809307,-0.000222373942960985
1772702670475826200,3.031826171875,0.00016005597717594355,-0.0036669063847512007,-0.0005941512063145638
1772702670485875200,3.041875244140625,-0.001755289500579238,0.0024314660113304853,0.0011113371001556516
1772702670495925200,3.05192529296875,-0.0005344964447431266,0.002424275502562523,-0.00023542344570159912
1772702670505975300,3.061975341796875,0.0019915117882192135,0.002636529505252838,0.0029060414526611567
1772702670516025000,3.072025146484375,-0.0026770094409585,0.00683180708438158,-0.0014223942998796701
1772702670526075100,3.0820751953125,-0.0012170645641162992,0.007444600574672222,-0.002915895078331232
1772702670536125200,3.092125244140625,-0.0033627734519541264,0.005875465925782919,0.00003302319601061754
1772702670546175200,3.10217529296875,-0.0032711606472730637,0.005796103738248348,-0.000023968450477696024
1772702670556225000,3.11222509765625,-0.004335360135883093,0.0043955473229289055,0.0018628811230883002
1772702670566274000,3.122274169921875,-0.004622182343155146,0.006413957104086876,0.000009853695701167453
1772702670576324400,3.132324462890625,-0.0017811221769079566,0.013875868171453476,0.002046372974291444
1772702670586374400,3.14237451171875,-0.001389637473039329,0.009030778892338276,0.0026844663079828024
1772702670596424200,3.152424072265625,-0.0010692591313272715,0.003230947069823742,0.002557699801400304
1772702670606474200,3.16247412109375,-0.003516171593219042,0.005618737079203129,-0.001907089608721435
1772702670616524300,3.172524169921875,-0.0032951291650533676,0.0037297571543604136,0.0009709885343909264
1772702670626574300,3.18257421875,-0.004314054735004902,0.005675995256751776,0.0001395496365148574
1772702670636624100,3.1926240234375,-0.002510561840608716,0.004908472299575806,-0.00017896443023346364
1772702670646674200,3.202674072265625,-0.0033459956757724285,0.009160741232335567,-0.0009867012267932296
1772702670656724200,3.21272412109375,-0.004810467828065157,0.008346879854798317,0.0008399609941989183
1772702670666773000,3.22277294921875,-0.003239735495299101,0.002909237053245306,0.002132392954081297
1772702670676823000,3.232822998046875,-0.004564924165606499,0.003391801845282316,0.0027001791168004274
1772702670686873000,3.242873046875,-0.006044310517609119,0.0010689928894862533,-0.0024319987278431654
1772702670696923100,3.252923095703125,-0.0059806606732308865,0.005579588934779167,-0.005741509143263102
1772702670706973200,3.26297314453125,-0.007283479440957308,0.0008159925346262753,-0.00276196445338428
1772702670717023200,3.273023193359375,-0.006199306342750788,0.0018751317402347922,0.002245843643322587
1772702670727073300,3.2830732421875,-0.007625162601470947,0.0079146483913064,-0.0013675332302227616
1772702670737123300,3.293123291015625,-0.003832821501418948,0.008378038182854652,-0.0009733853512443602
1772702670747173000,3.303173095703125,-0.0031252196058630943,0.015300925821065903,-0.0020703414920717478
1772702670757222100,3.31322216796875,-0.003148389048874378,0.016443954780697823,-0.0028791434597223997
1772702670767272200,3.323272216796875,-0.00293320557102561,0.01666446402668953,-0.00373108871281147
1772702670777322000,3.333322021484375,-0.0015068164793774486,0.0149800144135952,0.0002620550512801856
1772702670787372000,3.3433720703125,-0.004424042999744415,0.014109959825873375,-0.002332130214199424
1772702670797422000,3.353422119140625,-0.005973470397293568,0.012320315465331078,-0.001008539111353457
1772702670807472000,3.36347216796875,-0.006071208510547876,0.014429539442062378,-0.0033454629592597485
1772702670817522200,3.373522216796875,-0.010120011866092682,0.011433749459683895,-0.0007145261042751372
1772702670827572200,3.383572265625,-0.007495200727134943,0.010521350428462029,-0.00034674355993047357
1772702670837622300,3.393622314453125,-0.0037521275226026773,0.010817760601639748,0.0035571842454373837
1772702670847671300,3.40367138671875,-0.0046331011690199375,0.013807158917188644,0.002114816103130579
1772702670857721000,3.41372119140625,-0.0016729978378862143,0.007219563238322735,0.0027411917690187693
1772702670867771100,3.423771240234375,-0.001588575541973114,0.007571367081254721,0.002472212305292487
1772702670877820700,3.433820556640625,0.0001507349224993959,0.009635583497583866,0.0038035267498344183
1772702670887870700,3.44387060546875,-0.00009028115891851485,0.0136023610830307,0.0006865629111416638
1772702670897920800,3.453920654296875,0.0009744506096467376,0.013581855222582817,0.0036970002111047506
1772702670907970800,3.463970703125,-0.002046372974291444,0.012742958962917328,0.0027321369852870703
1772702670918020600,3.4740205078125,-0.0033981935121119022,0.0133890425786376,0.0052413675002753735
1772702670928070000,3.48406982421875,-0.00014807176194153726,0.00917299184948206,0.005050152540206909
1772702670938120000,3.494119873046875,-0.0036597158759832382,0.006729009095579386,0.0026988473255187273
1772702670948169700,3.504169677734375,-0.0008825715631246567,-0.001573928166180849,-0.0014271880500018597
1772702670958219800,3.5142197265625,-0.002561428351327777,-0.0027867318131029606,-0.0008596684201620519
1772702670968269800,3.524269775390625,-0.002793389605358243,-0.002829342382028699,0.000696150294970721
1772702670978320000,3.53431982421875,-0.002275404753163457,0.0026202842127531767,0.0012391688069328666
1772702670988369700,3.54436962890625,-0.0013078784104436636,0.01002413872629404,-0.001573928166180849
1772702670998419700,3.554419677734375,0.0034202977549284697,0.009838249534368515,0.003727892879396677
1772702671008469800,3.5644697265625,0.0007685882737860084,0.016155000776052475,0.001714010490104556
1772702671018518800,3.574518798828125,-0.0012855078093707561,0.01426362432539463,0.0021065603941679
1772702671028568800,3.58456884765625,-0.0003808320325333625,0.01011069118976593,-0.002293247962370515
1772702671038619000,3.594618896484375,0.0002492718631401658,-0.0003259709046687931,-0.0025774072855710983
1772702671048669000,3.6046689453125,0.0011211908422410488,-0.0000900148443179205,-0.0025896579027175903
1772702671058718700,3.61471875,-0.004673581570386887,-0.003962517250329256,-0.005515672732144594
1772702671068768800,3.624768798828125,-0.003719370812177658,0.003312173532322049,-0.0011432950850576162
1772702671078818800,3.63481884765625,-0.001630387152545154,0.00446798512712121,-0.00464641721919179
1772702671088868900,3.644868896484375,-0.001907089608721435,0.0032828785479068756,-0.0033454629592597485
1772702671098919000,3.6549189453125,0.0006125270738266408,0.00809148233383894,-0.0031550468411296606
1772702671108967700,3.6649677734375,-0.0005731122801080346,0.008501608856022358,-0.004911934491246939
1772702671119017700,3.675017822265625,0.0005989448982290924,0.004923119675368071,-0.004756405483931303
1772702671129067800,3.68506787109375,0.0001613875647308305,0.005923402961343527,-0.0046813045628368855
1772702671139117800,3.695117919921875,-0.0015928366919979453,0.004700745455920696,-0.0010902981739491224
1772702671149167900,3.70516796875,-0.0008000136003829539,0.0030546458438038826,-0.0007275756215676665
1772702671159218000,3.715218017578125,0.0004396878939587623,0.0027273432351648808,0.0012990899849683046
1772702671169268000,3.72526806640625,-0.0008077367674559355,-0.0004876247840002179,0.0016844493802636862
1772702671179317800,3.73531787109375,-0.002832005498930812,0.00016218650853261352,0.0023007048293948174
1772702671189367800,3.745367919921875,-0.0019214707426726818,0.0043931505642831326,0.0005787048721686006
1772702671199416800,3.755416748046875,-0.0019646140281111,0.003516437951475382,-0.0011922972043976188
1772702671209466600,3.765466552734375,-0.0026490462478250265,0.0011387676931917667,-0.0004293015517760068
1772702671219516700,3.7755166015625,-0.0033446638844907284,0.004052798729389906,0.000922252656891942
1772702671229566700,3.785566650390625,-0.00020373181905597448,0.007996673695743084,0.0000015978966985130683
1772702671239616800,3.79561669921875,0.0014423680258914828,0.01440929900854826,-0.0015970977256074548
1772702671249666800,3.805666748046875,-0.000020240024241502397,0.013066799379885197,0.0004878911131527275
1772702671259716900,3.815716796875,0.0009496832499280572,0.007446997333317995,-0.00002103897168126423
1772702671269767000,3.825766845703125,-0.0017955031944438815,0.008054730482399464,-0.000904409505892545
1772702671279817000,3.83581689453125,-0.0004900216590613127,0.011474762111902237,-0.003516171593219042
1772702671289865700,3.84586572265625,0.00020905814017169178,0.008595085702836514,-0.0015425028977915645
1772702671299915800,3.855915771484375,-0.0037052559200674295,0.006426740437746048,0.0010133327450603247
1772702671309965800,3.8659658203125,-0.0039867521263659,0.011877432465553284,-0.004051733296364546
1772702671320016000,3.876015869140625,-0.0010194580536335707,0.011722436174750328,-0.003606186481192708
1772702671330065700,3.886065673828125,-0.0020623519085347652,0.011999671347439289,-0.0033800839446485043
1772702671340115700,3.89611572265625,-0.0019417107105255127,0.013585050590336323,-0.004881840664893389
1772702671350165800,3.906165771484375,-0.005288505461066961,0.013703561387956142,-0.003879426745697856
1772702671360215800,3.9162158203125,-0.0034884747583419085,0.01155652105808258,-0.004516454879194498
1772702671370265600,3.926265625,-0.0057196710258722305,0.015312910079956055,-0.005215534474700689
1772702671380315000,3.93631494140625,-0.005504221189767122,0.015731824561953545,-0.004394748248159885
1772702671390365000,3.946364990234375,-0.00199390877969563,0.011987154372036457,-0.006936735473573208
1772702671400414700,3.956414794921875,-0.0028008464723825455,0.010371148586273193,-0.002822417998686433
1772702671410464800,3.96646484375,-0.003172357566654682,0.007420365698635578,-0.006138320080935955
1772702671420514800,3.976514892578125,-0.0041430797427892685,0.006184392608702183,-0.005820871330797672
1772702671430564900,3.98656494140625,-0.002144909929484129,0.01125345379114151,-0.005432049743831158
1772702671440614700,3.99661474609375,-0.0038429414853453636,0.00947818998247385,-0.00324825756251812
1772702671450664700,4.006664794921875,-0.002746784361079335,0.00717482203617692,-0.00364666641689837
1772702671460714800,4.01671484375,-0.0019473034190014005,0.01184946857392788,-0.0031899344176054
1772702671470763800,4.026763671875,-0.0006205165409483016,0.019274894148111343,-0.0019212043844163418
1772702671480813800,4.036813720703125,-0.0036506610922515392,0.02803216688334942,-0.004544684197753668
1772702671490863900,4.04686376953125,-0.007839547470211983,0.027148263528943062,-0.00615270109847188
1772702671500914000,4.056913818359375,-0.006844057701528072,0.020591028034687042,-0.003974235150963068
1772702671510963700,4.066963623046875,-0.004202201962471008,0.015923306345939636,-0.0017329188995063305
1772702671521013800,4.077013671875,-0.007641940843313932,0.012017780914902687,-0.004997155629098415
1772702671531063800,4.087063720703125,-0.009631321765482426,0.008591091260313988,-0.004350806120783091
1772702671541113900,4.09711376953125,-0.006109291687607765,0.01212830189615488,-0.002692722249776125
1772702671551164000,4.107163818359375,-0.004348675720393658,0.016287626698613167,-0.001377653214149177
1772702671561212700,4.117212646484375,-0.00541314110159874,0.018997659906744957,-0.0022389194928109646
1772702671571262700,4.1272626953125,-0.0029907298739999533,0.014366954565048218,0.0015227955300360918
1772702671581312800,4.137312744140625,-0.0030541131272912025,0.017356086522340775,-0.002871153876185417
1772702671591362800,4.14736279296875,-0.002600310370326042,0.02063577063381672,0.00013848437811248004
1772702671601412900,4.157412841796875,-0.002549710450693965,0.018809108063578606,0.00009347695595351979
1772702671611463000,4.167462890625,-0.003385676769539714,0.016340358182787895,0.0023670175578445196
1772702671621513000,4.177512939453125,-0.0030866037122905254,0.015917712822556496,0.0009060074225999415
1772702671631562800,4.187562744140625,-0.0010894992155954242,0.009433182887732983,-0.0015752597246319056
1772702671641612800,4.19761279296875,-0.0019148128340020776,0.008675780147314072,0.0014831144362688065
1772702671651661800,4.207661865234375,-0.000022636868379777297,0.005029646214097738,-0.0009872338268905878
1772702671661711600,4.217711669921875,-0.0022154836915433407,0.00401471508666873,-0.0041191112250089645
1772702671671761700,4.22776171875,-0.0009291769238188863,0.004478105343878269,-0.004098072182387114
1772702671681811700,4.237811767578125,-0.0011667308863252401,0.003153981640934944,-0.004833637271076441
1772702671691861800,4.24786181640625,-0.0005842975224368274,0.012455870397388935,-0.007185208611190319
1772702671701911800,4.257911865234375,0.0003731088654603809,0.02004055306315422,-0.002802444389089942
1772702671711961900,4.2679619140625,-0.000696150294970721,0.019226424396038055,0.00018269284919369966
1772702671722012000,4.278011962890625,-0.0006703176186420023,0.009287508204579353,-0.004506334662437439
1772702671732062000,4.28806201171875,-0.0016205335268750787,0.012552809901535511,-0.0036735644098371267
1772702671742110700,4.29811083984375,0.0022564963437616825,0.01124999113380909,-0.0008769789128564298
1772702671752160800,4.308160888671875,0.001291100517846644,0.00743314903229475,-0.007266967557370663
1772702671762210800,4.3182109375,-0.00086872314568609,0.015294267795979977,-0.008028365671634674
1772702671772260900,4.3282607421875,-0.0016447682864964008,0.011916047893464565,-0.006593187805265188
1772702671782310700,4.338310546875,-0.0021933794487267733,0.011347996070981026,-0.006474677007645369
1772702671792360700,4.348360595703125,-0.0008354336023330688,0.011266236193478107,-0.008184426464140415
1772702671802410800,4.35841064453125,-0.0031281490810215473,0.00697854720056057,-0.01005076989531517
1772702671812460800,4.368460693359375,-0.0016644756542518735,0.0012381036067381501,-0.009385245852172375
1772702671822510600,4.378510498046875,-0.0007403587806038558,0.006074403878301382,-0.010404437780380249
1772702671832561000,4.388560791015625,0.0020327907986938953,0.004993959795683622,-0.010010822676122189
1772702671842610000,4.39860986328125,-0.00020399813365656883,0.0036019254475831985,-0.009227853268384933
1772702671852659700,4.40865966796875,-0.0012668657582253218,0.006883472204208374,-0.006056294776499271
1772702671862709800,4.418709716796875,-0.0017925737192854285,0.01047554425895214,-0.01034691371023655
1772702671872759800,4.428759765625,-0.00010679275874281302,0.016519054770469666,-0.011199125088751316
1772702671882811000,4.438810791015625,-0.0005904228310100734,0.01570439524948597,-0.012990366667509079
1772702671892861000,4.44886083984375,-0.0027334685437381268,0.007217432837933302,-0.007889348082244396
1772702671902910700,4.45891064453125,-0.00555189186707139,0.005004079546779394,-0.00998898409307003
1772702671912960800,4.468960693359375,-0.004679706413298845,0.007832356728613377,-0.004031226970255375
1772702671923010800,4.4790107421875,-0.00390312890522182,0.005275455769151449,-0.004971855320036411
1772702671933059600,4.4890595703125,-0.003132676472887397,0.00009267800487577915,-0.0035843485966324806
1772702671943109600,4.499109619140625,-0.006036320701241493,0.00782782956957817,-0.004803277086466551
1772702671953160000,4.509159912109375,-0.005526858381927013,0.012224974110722542,-0.004471980035305023
1772702671963210000,4.5192099609375,-0.0062818643637001514,0.01612783782184124,-0.004492752719670534
1772702671973259800,4.529259765625,-0.005596633069217205,0.014164554886519909,-0.002147573046386242
1772702671983309800,4.539309814453125,-0.006518353242427111,0.01474539004266262,-0.003922836389392614
1772702671993360000,4.54935986328125,-0.008273109793663025,0.014681740663945675,-0.00689199473708868
1772702672003410000,4.559409912109375,-0.005087703000754118,0.012566924095153809,-0.0007912251749075949
1772702672013459700,4.569459716796875,-0.006595850922167301,0.007053382229059935,-0.0029177593532949686
1772702672023508700,4.5795087890625,-0.0060384515672922134,0.009376724250614643,-0.0016591493040323257
1772702672033558800,4.589558837890625,-0.004493818152695894,0.011924570426344872,-0.000480434246128425
1772702672043608800,4.59960888671875,-0.007387608755379915,0.00785392802208662,0.003790477057918906
1772702672053658600,4.60965869140625,-0.005110073368996382,0.008839830756187439,0.004083424806594849
1772702672063708700,4.619708740234375,-0.007199855986982584,0.007923170924186707,0.005849100649356842
1772702672073758700,4.6297587890625,-0.004248540848493576,0.011779960244894028,0.004201935604214668
1772702672083809000,4.63980908203125,-0.007497064769268036,0.013711817562580109,0.002226136391982436
1772702672093858800,4.64985888671875,-0.0049132658168673515,0.01571584679186344,0.003869839245453477
1772702672103908900,4.659908935546875,-0.004731371998786926,0.013353089801967144,0.00481366366147995
1772702672113958000,4.6699580078125,-0.008801747113466263,0.01182337012141943,0.007063235621899366
1772702672124007700,4.680007568359375,-0.006533799227327108,0.01293177716434002,0.007873369380831718
1772702672134057700,4.6900576171875,-0.006530337035655975,0.010995126329362392,0.0041404166258871555
1772702672144107800,4.700107666015625,-0.008036354556679726,0.00373082235455513,0.007386011071503162
1772702672154157800,4.71015771484375,-0.007651527877897024,0.0054419031366705894,0.007851265370845795
1772702672164207600,4.72020751953125,-0.00848616287112236,0.01410596538335085,0.008356733247637749
1772702672174257700,4.730257568359375,-0.006894125137478113,0.015563779510557652,0.00612420542165637
1772702672184307700,4.7403076171875,-0.007823302410542965,0.011480088345706463,0.007348992861807346
1772702672194357800,4.750357666015625,-0.006738063879311085,0.013679859228432178,0.008984440006315708
1772702672204406800,4.76040673828125,-0.005790244787931442,0.01356481108814478,0.009730923920869827
1772702672214456800,4.770456787109375,-0.006380667444318533,0.019306853413581848,0.009606288745999336
1772702672224507000,4.7805068359375,-0.0057103498838841915,0.028083566576242447,0.009165534749627113
1772702672234557000,4.790556884765625,-0.005375590641051531,0.026103239506483078,0.004035487771034241
1772702672244606700,4.800606689453125,-0.005340703297406435,0.02233220264315605,0.006148706190288067
1772702672254656800,4.81065673828125,-0.008523979224264622,0.015341938473284245,0.007448062766343355
1772702672264706800,4.820706787109375,-0.008622250519692898,0.005471197888255119,0.007782289292663336
1772702672274756900,4.8307568359375,-0.009404154494404793,-0.0012335762148723006,0.0017757958266884089
1772702672284806700,4.840806640625,-0.010133860632777214,-0.004718588665127754,0.000036218989407643676
1772702672294856000,4.85085595703125,-0.00794554129242897,-0.0037441381718963385,0.003421096596866846
1772702672304906000,4.860906005859375,-0.005012601613998413,0.0017568873008713126,0.005633384454995394
1772702672314955800,4.870955810546875,-0.0024234766606241465,0.008253135718405247,0.003995007835328579
1772702672325005800,4.881005859375,-0.0007142598042264581,0.01985945925116539,0.00686003640294075
1772702672335056000,4.891055908203125,0.0013496900210157037,0.02737649716436863,0.010309895500540733
1772702672345106000,4.90110595703125,0.0013819142477586865,0.027576234191656113,0.009886452928185463
1772702672355155700,4.91115576171875,-0.00041998049709945917,0.023667778819799423,0.00884835235774517
1772702672365205800,4.921205810546875,-0.003996339626610279,0.009467537514865398,0.008113852702081203
1772702672375255800,4.931255859375,-0.0017145430902019143,0.0019944412633776665,0.0041215079836547375
1772702672385305900,4.941305908203125,-0.004471980035305023,0.002004561247304082,0.0030032468494027853
1772702672395354600,4.951354736328125,-0.002144377212971449,-0.0016764599131420255,0.003537476761266589
1772702672405405000,4.961405029296875,-0.0027531760279089212,-0.0015901734586805105,0.007901332341134548
1772702672415455000,4.971455078125,-0.0032661007717251778,0.004289287142455578,0.004062385763972998
1772702672425504800,4.9815048828125,-0.0018346516881138086,0.0129951611161232,0.0010207896120846272
1772702672435554800,4.991554931640625,-0.0006261091912165284,0.02040940150618553,0.0002591255761217326
1772702672445604900,5.00160498046875,0.0002921487612184137,0.012267851270735264,0.001362473238259554
1772702672455655000,5.011655029296875,-0.00012117382721044123,0.006302903406322002,-0.0028751487843692303
1772702672465704700,5.02170458984375,0.0016112125013023615,0.005812615156173706,-0.0024716798216104507
1772702672475754800,5.031754638671875,-0.0001608549355296418,0.00717748561874032,-0.005093029234558344
1772702672485803800,5.0418037109375,0.0007656587986275554,0.005205947440117598,-0.004201402887701988
1772702672495853800,5.051853759765625,0.0010287790792062879,0.006789728999137878,-0.00321869645267725
1772702672505903600,5.061903564453125,0.002921487670391798,0.0072778863832354546,-0.003691940102726221
1772702672515953700,5.07195361328125,0.003915379289537668,0.00683047529309988,-0.0030397321097552776
1772702672526003700,5.082003662109375,0.001570998691022396,0.002005626680329442,-0.00654578348621726
1772702672536054000,5.092053955078125,0.0028011128306388855,-0.004048803821206093,-0.008695753291249275
1772702672546103800,5.102103759765625,0.004339620936661959,-0.00261841993778944,-0.007735950406640768
1772702672556153900,5.11215380859375,0.006599579472094774,-0.00398755120113492,-0.010040650144219398
1772702672566204000,5.122203857421875,0.003995540551841259,-0.0017150756902992725,-0.011799135245382786
1772702672576252700,5.132252685546875,0.0031150993891060352,0.002335326047614217,-0.01182363647967577
1772702672586302700,5.142302734375,0.0052173989824950695,0.004317782819271088,-0.008107993751764297
1772702672596352800,5.152352783203125,0.0017707358347252011,0.013225523754954338,-0.011170363053679466
1772702672606402800,5.16240283203125,0.002788329729810357,0.00932239554822445,-0.01215599849820137
1772702672616452600,5.17245263671875,0.0011124024167656898,0.004554538056254387,-0.008331166580319405
1772702672626502700,5.182502685546875,0.00043302998528815806,-0.002552639925852418,-0.007525027729570866
1772702672636552700,5.192552734375,-0.00019281286222394556,-0.0029875340405851603,-0.009227853268384933
1772702672646602800,5.202602783203125,-0.004601143300533295,-0.00452897185459733,-0.009470733813941479
1772702672656652800,5.21265283203125,-0.0018761969404295087,-0.005890912376344204,-0.005685050040483475
1772702672666702800,5.222702880859375,-0.0009853695519268513,-0.0023465112317353487,-0.00481446273624897
1772702672676752000,5.232751953125,0.002624811604619026,0.006453904323279858,-0.0033388049341738224
1772702672686802000,5.242802001953125,0.00000958738019107841,0.015024489723145962,-0.0012956279097124934
1772702672696851700,5.252851806640625,0.0022591594606637955,0.020312195643782616,-0.0020034960471093655
1772702672706901800,5.26290185546875,0.0011065434664487839,0.019463179633021355,0.000464188982732594
1772702672716951800,5.272951904296875,0.0011414308100938797,0.012687565758824348,-0.002161954063922167
1772702672727001900,5.283001953125,-0.001377386855892837,0.010727745480835438,-0.0029372002463787794
1772702672737051600,5.2930517578125,0.0003483414766378701,0.013263074681162834,-0.0000476705827168189
1772702672747101700,5.303101806640625,-0.00013076121103949845,0.015425828285515308,-0.0002801645314320922
1772702672757151700,5.31315185546875,-0.002669020090252161,0.0205734521150589,0.00044847631943412125
1772702672767200800,5.32320068359375,-0.002085521351546049,0.021093301475048065,0.0019137475173920393
1772702672777250800,5.333250732421875,-0.0019174759509041905,0.026507774367928505,0.0011382350930944085
1772702672787300900,5.34330078125,-0.0038772961124777794,0.020979316905140877,-0.0022210762836039066
1772702672797349600,5.353349609375,-0.005227518733590841,0.015717443078756332,-0.0006165218073874712
1772702672807399700,5.363399658203125,-0.0013480921043083072,0.009754626080393791,-0.004086354281753302
1772702672817449700,5.37344970703125,-0.007374825421720743,0.007800398860126734,-0.0022189458832144737
1772702672827499800,5.383499755859375,-0.0024402544368058443,0.007003048434853554,-0.004024036228656769
1772702672837549600,5.393549560546875,-0.006883206311613321,0.013905695639550686,-0.003891411004588008
1772702672847599900,5.403599853515625,-0.004406466148793697,0.014475079253315926,-0.006741792429238558
1772702672857650000,5.41364990234375,-0.0038812910206615925,0.014400244690477848,-0.005018993280827999
1772702672867700000,5.423699951171875,-0.001091629732400179,0.016288692131638527,-0.006251237820833921
1772702672877749800,5.433749755859375,0.00036139096482656896,0.01775076799094677,-0.0035926043055951595
1772702672887798300,5.44379833984375,-0.000645550258923322,0.018011491745710373,-0.005484247580170631
1772702672897848300,5.453848388671875,-0.002110288944095373,0.013353356160223484,-0.006600112188607454
1772702672907898400,5.4638984375,-0.00478303711861372,0.013095029629766941,-0.004209924954921007
1772702672917948400,5.473948486328125,-0.0006980145117267966,0.0065039717592298985,-0.003489273600280285
1772702672927998200,5.483998291015625,-0.0015286544803529978,0.0023390543647110462,-0.002499110298231244
1772702672938048300,5.49404833984375,-0.00287434970960021,0.0101977763697505,-0.0031529164407402277
1772702672948098300,5.504098388671875,0.00037470675306394696,0.023239009082317352,-0.0035718316212296486
1772702672958148400,5.5141484375,-0.0057737333700060844,0.021981198340654373,-0.0035289546940475702
1772702672968198700,5.52419873046875,-0.0026413232553750277,0.019630160182714462,-0.004098871257156134
1772702672978247400,5.534247314453125,-0.0034354778472334146,0.01537762489169836,-0.006268282420933247
1772702672988297500,5.54429736328125,-0.003203516360372305,0.018307633697986603,-0.007289338391274214
1772702672998347500,5.554347412109375,-0.0043561323545873165,0.0159456767141819,-0.005555087700486183
1772702673008397300,5.564397216796875,-0.004571315832436085,0.008128766901791096,-0.0020301276817917824
1772702673018447400,5.574447265625,-0.00033156355493701994,0.0059937103651463985,-0.0008162588928826153
1772702673028497400,5.584497314453125,-0.0007933556917123497,0.008007858879864216,0.0010847054654732347
1772702673038547500,5.59454736328125,-0.0011321097845211625,0.016946759074926376,-0.0015912387752905488
1772702673048597200,5.60459716796875,0.0007150587625801563,0.025886723771691322,0.000645550258923322
1772702673058647300,5.614647216796875,0.005590241402387619,0.025172198191285133,0.004144943784922361
1772702673068697300,5.624697265625,0.0037476003635674715,0.025228124111890793,0.0002878876985050738
1772702673078746400,5.634746337890625,0.0041305627673864365,0.013347497209906578,0.0019627497531473637
1772702673088796400,5.64479638671875,0.003802194958552718,0.013803962618112564,0.0015134743880480528
1772702673098846500,5.654846435546875,0.00504003232344985,0.011140801943838596,0.0015198660548776388
1772702673108896500,5.664896484375,0.005613410845398903,0.012974387966096401,0.0005470133037306368
1772702673118946300,5.6749462890625,0.0029467877466231585,0.01019857544451952,0.0010279801208525896
1772702673128996400,5.684996337890625,0.0023550332989543676,0.008592156693339348,0.0008434231276623905
1772702673139047400,5.69504736328125,0.0008514125947840512,0.00008229167724493891,0.000010652644050423987
1772702673149096400,5.705096435546875,-0.002537193475291133,0.00461685610935092,-0.00307595101185143
1772702673159146200,5.715146240234375,-0.0014237258583307266,0.0007502124644815922,-0.0037886130157858133
1772702673169196300,5.7251962890625,0.00020000340009573847,-0.003310841741040349,-0.0013054815353825688
1772702673179246300,5.735246337890625,0.004280498716980219,-0.0028277444653213024,-0.006824882701039314
1772702673189296400,5.74529638671875,0.0032527849543839693,0.0046573360450565815,-0.0057132793590426445
1772702673199346200,5.75534619140625,0.0049217878840863705,0.012183429673314095,-0.0012623383663594723
1772702673209396500,5.765396484375,0.0032567796297371387,0.009572998620569706,-0.0019600866362452507
1772702673219446500,5.775446533203125,0.005359345115721226,0.004745486658066511,-0.00035659727291204035
1772702673229496600,5.78549658203125,0.0064773401245474815,0.0027196200098842382,-0.004382497631013393
1772702673239545300,5.79554541015625,0.004164917394518852,0.0006090649403631687,-0.006915696896612644
1772702673249595400,5.805595458984375,0.006500243674963713,-0.0014692660188302398,-0.003632019041106105
1772702673259645400,5.8156455078125,0.0029201561119407415,-0.003376888344064355,-0.00395639194175601
1772702673269695500,5.825695556640625,0.0032053806353360415,0.0003478088474366814,-0.003926032222807407
1772702673279745300,5.835745361328125,0.004771052859723568,0.007788414601236582,-0.003058374160900712
1772702673289795300,5.84579541015625,0.0011864382540807128,0.0064834654331207275,-0.0033625070936977863
1772702673299845400,5.855845458984375,0.003296460723504424,0.003739610780030489,-0.00023276027059182525
1772702673309895400,5.8658955078125,0.0022450448013842106,0.00672208471223712,0.0015478292480111122
1772702673319945200,5.8759453125,0.0012452941155061126,0.006389988586306572,-0.000761664065066725
1772702673329995500,5.88599560546875,-0.00041305628838017583,0.0003832288784906268,-0.003885285696014762
1772702673340044500,5.89604443359375,0.000985103310085833,-0.001597363967448473,-0.00017496968212071806
1772702673350094300,5.90609423828125,-0.001434112200513482,-0.0026051041204482317,-0.00017683389887679368
1772702673360144400,5.916144287109375,-0.0026788737159222364,0.00421205535531044,-0.00210602767765522
1772702673370194400,5.9261943359375,-0.0008602010202594101,0.007592139765620232,-0.0008439557277597487
1772702673380244500,5.936244384765625,-0.0005880259559489787,0.007360444404184818,-0.0039023298304528
1772702673390294300,5.946294189453125,0.0027603665366768837,0.008800948038697243,0.002376604825258255
1772702673400344300,5.95634423828125,-0.0012567456578835845,0.013287842273712158,-0.00018269284919369966
1772702673410394400,5.966394287109375,-0.001085770782083273,0.012865997850894928,0.00033875409280881286
1772702673420444400,5.9764443359375,0.0009867012267932296,0.0093303844332695,0.00022556974727194756
1772702673430493400,5.986493408203125,-0.00070520507870242,0.006814230233430862,0.0033771544694900513
1772702673440543500,5.99654345703125,0.0016788567882031202,-0.0004822984628845006,0.001716939965263009
1772702673450593500,6.006593505859375,0.0017270599491894245,0.005126052536070347,0.003043194068595767
1772702673460643600,6.0166435546875,0.001300155185163021,0.009274458512663841,0.004838431254029274
1772702673470693400,6.026693359375,0.0010274475207552314,0.010932276025414467,0.004156395327299833
1772702673480743400,6.036743408203125,0.00047617321251891553,0.0029848709236830473,0.006852313410490751
1772702673490793500,6.04679345703125,-0.004142014309763908,0.0018783274572342634,0.0066062374971807
1772702673500843500,6.056843505859375,-0.001434112200513482,0.0030948594212532043,0.004447745159268379
1772702673510893300,6.066893310546875,-0.004742024466395378,0.010918693616986275,0.005562544334679842
1772702673520943400,6.076943359375,-0.00415373221039772,0.013492905534803867,0.004515922162681818
1772702673530992400,6.086992431640625,-0.0038304245099425316,0.015678828582167625,0.003120958572253585
1772702673541042400,6.09704248046875,-0.0024868599139153957,0.007784686051309109,0.004819256253540516
1772702673551092500,6.107092529296875,-0.0009097357979044318,0.004463990684598684,0.005275455769151449
1772702673561142500,6.117142578125,-0.0018442390719428658,0.007875500246882439,0.002058357233181596
1772702673571192600,6.127192626953125,-0.002377670258283615,0.007261907681822777,0.0032658344134688377
1772702673581242400,6.137242431640625,-0.001639441936276853,0.005568403284996748,0.004249606281518936
1772702673591292400,6.14729248046875,-0.0005025385180488229,0.0073082465678453445,0.008231298066675663
1772702673601342500,6.157342529296875,-0.0012359730899333954,0.004538825247436762,0.00503949960693717
1772702673611392500,6.167392578125,-0.0009760485263541341,0.0062818643637001514,0.004193679895251989
1772702673621442300,6.1774423828125,-0.0008727178792469203,0.006480003707110882,0.005176386330276728
1772702673631491300,6.1874912109375,-0.002436259761452675,0.008403604850172997,0.005257878918200731
1772702673641541400,6.197541259765625,-0.001404018490575254,0.009065666235983372,0.0031816784758120775
1772702673651591400,6.20759130859375,-0.0008546083699911833,0.013613280840218067,0.0012175972806289792
1772702673661641500,6.217641357421875,-0.0017776599852368236,0.016773121431469917,0.003602457931265235
1772702673671691500,6.22769140625,-0.002171275205910206,0.010792726650834084,0.003463707398623228
1772702673681741600,6.237741455078125,-0.0015270565636456013,0.010410030372440815,0.0031473238486796618
1772702673691791600,6.24779150390625,-0.0037377465050667524,0.008417453616857529,0.00010626012954162434
1772702673701841400,6.25784130859375,-0.005313272587954998,0.004311657976359129,-0.0009648632840253413
1772702673711891500,6.267891357421875,-0.006021673325449228,-0.001683650421909988,0.0031995216850191355
1772702673721940500,6.2779404296875,-0.0014921691035851836,0.004494084510952234,0.003311374457553029
1772702673731990300,6.287990234375,0.00029640982393175364,0.005623531062155962,0.0008703210623934865
1772702673742040300,6.298040283203125,0.00042823629337362945,-0.0016458334866911173,-0.0003038666909560561
1772702673752090400,6.30809033203125,0.0012002866715192795,0.0006061354652047157,0.0022061625495553017
1772702673762140400,6.318140380859375,0.0019297265680506825,0.009516273625195026,0.005637379363179207
1772702673772190200,6.328190185546875,0.004509796854108572,0.015443138778209686,-0.0003432814555708319
1772702673782240500,6.338240478515625,0.003032275242730975,0.010851848870515823,0.0009531453251838684
1772702673792290600,6.34829052734375,0.006515157409012318,0.004299673717468977,0.004098338540643454
1772702673802340600,6.358340576171875,0.002746251644566655,0.005893309134989977,0.0043958136811852455
1772702673812390400,6.368390380859375,0.004658135119825602,0.005470665637403727,-0.00023435817274730653
1772702673822439400,6.378439453125,0.000580036488827318,0.005079713650047779,0.0012189288390800357
1772702673832489500,6.388489501953125,0.0006402239087037742,-0.00031318774563260376,-0.002659166231751442
1772702673842539300,6.398539306640625,0.0025742114521563053,-0.008649414405226707,0.0006996124284341931
1772702673852589300,6.40858935546875,-0.00039228363311849535,-0.010188189335167408,-0.0037353497464209795
1772702673862639400,6.418639404296875,0.0010010822443291545,-0.0038693067617714405,-0.0018572885310277343
1772702673872689400,6.428689453125,0.0025624935515224934,0.0030778152868151665,0.0000500674286740832
1772702673882739500,6.438739501953125,0.003637877991423011,0.00452790642157197,0.00006311691686278209
1772702673892789200,6.448789306640625,0.0037494644057005644,0.006053631659597158,-0.0010964233661070466
1772702673902839300,6.45883935546875,0.006658701691776514,0.0054877097718417645,-0.0016317188274115324
1772702673912889600,6.4688896484375,0.0011717908782884479,0.0046882289461791515,-0.0024956483393907547
1772702673922938400,6.4789384765625,0.0026109630707651377,0.006191050633788109,-0.0006404902087524533
1772702673932988400,6.488988525390625,0.0008239820599555969,0.004347610287368298,-0.0007001450285315514
1772702673943038500,6.49903857421875,0.001722798915579915,-0.00042743736412376165,-0.0037412086967378855
1772702673953088500,6.509088623046875,0.0032743564806878567,-0.003433080855756998,0.0010045443195849657
1772702673963138600,6.519138671875,0.001136637176387012,-0.001219727797433734,0.0003379551344551146
1772702673973188400,6.529188232421875,-0.00039760995423421264,0.000045273736759554595,-0.0011137339752167463
1772702673983238400,6.53923828125,0.004382497631013393,0.002596848411485553,-0.001892175991088152
1772702673993288400,6.549288330078125,0.0023992417845875025,0.0016277240356430411,-0.0026011094450950623
1772702674003338500,6.55933837890625,0.0019259981345385313,-0.0005006743012927473,-0.0034677020739763975
1772702674013387500,6.569387451171875,0.0036096484400331974,0.001701759872958064,-0.0023435817565768957
1772702674023437600,6.5794375,0.0028304075822234154,0.003272492438554764,-0.0032623722217977047
1772702674033487600,6.589487548828125,0.004261057823896408,0.005465338937938213,0.0008415589109063148
1772702674043537400,6.599537353515625,-0.0004468784318305552,0.001633316627703607,-0.0024887239560484886
1772702674053587500,6.60958740234375,0.0005558017292059958,0.006058691535145044,-0.0012114719720557332
1772702674063637500,6.619637451171875,0.0005805690889246762,0.007791876792907715,-0.0024495755787938833
1772702674073687600,6.6296875,-0.0009944243356585503,0.001219461439177394,-0.00015100123709999025
1772702674083737300,6.6397373046875,-0.000600809114985168,0.002029328839853406,0.002288188086822629
1772702674093787400,6.649787353515625,0.00019813918333966285,-0.00014807176194153726,-0.0007400924805551767
1772702674103837400,6.65983740234375,0.0006684534018859267,0.001936917076818645,0.0017808558186516166
1772702674113886500,6.669886474609375,0.0007270429632626474,0.003516437951475382,-0.0015931029338389635
1772702674123936500,6.6799365234375,-0.0011968245962634683,0.010119745507836342,-0.0015590144321322441
1772702674133986600,6.689986572265625,0.0010602044640108943,0.007000385317951441,0.0007299724384211004
1772702674144036600,6.70003662109375,-0.0006628608098253608,0.0054549528285861015,-0.002665557898581028
1772702674154086400,6.71008642578125,-0.00014540860138367862,0.005188902840018272,-0.001421861699782312
1772702674164136400,6.720136474609375,0.0012570120161399245,0.0023931164760142565,-0.0006894923863001168
1772702674174186500,6.7301865234375,-0.0019630161114037037,0.023730363696813583,-0.0023576964158564806
1772702674184236500,6.740236572265625,-0.0018764632986858487,0.012860138900578022,-0.0036634444259107113
1772702674194286300,6.750286376953125,-0.0015459649730473757,0.007095459848642349,-0.003394465195015073
1772702674204336400,6.76033642578125,-0.0033190976828336716,0.0032083101104944944,0.0023694143164902925
1772702674214385400,6.770385498046875,-0.004764928016811609,-0.007990548387169838,0.000008788431841821875
1772702674224435500,6.780435546875,-0.0026700852904468775,0.0026546388398855925,-0.0017038905061781406
1772702674234485500,6.790485595703125,-0.004047472029924393,0.0116175077855587,-0.0041614556685090065
1772702674244535600,6.80053564453125,-0.004202734678983688,0.010099772363901138,-0.0020421119406819344
1772702674254585600,6.810585693359375,-0.004831773228943348,0.0094480961561203,-0.0019094864837825298
1772702674264635600,6.8206357421875,-0.0013723268639296293,0.00938950665295124,0.00035979304811917245
1772702674274685400,6.830685546875,-0.001745968358591199,0.009008142165839672,-0.0022951122373342514
1772702674284735500,6.840735595703125,-0.004824582487344742,0.004245611373335123,-0.0049620019271969795
1772702674294785500,6.85078564453125,0.00033209618413820863,0.009042496792972088,-0.00341577036306262
1772702674304834300,6.860834228515625,-0.0018160095205530524,0.006214752793312073,-0.00404587434604764
1772702674314884400,6.87088427734375,-0.0006460828590206802,0.0016322514275088906,-0.0022391858510673046
1772702674324934400,6.880934326171875,0.00023036343918647617,0.003495132550597191,-0.0035308189690113068
1772702674334984400,6.890984375,0.0010921623324975371,0.007553790230304003,-0.0031310785561800003
1772702674345034200,6.9010341796875,-0.0016277240356430411,0.013165869750082493,-0.0036277580074965954
1772702674355084500,6.91108447265625,0.002192314248532057,0.01570572517812252,-0.003282079705968499
1772702674365134600,6.921134521484375,-0.0003304982965346426,0.021681593731045723,-0.004526575095951557
1772702674375184600,6.9311845703125,-0.0006937534781172872,0.02208160050213337,-0.005094893276691437
1772702674385234400,6.941234375,-0.00415453128516674,0.014300908893346786,-0.005392368417233229
1772702674395284500,6.951284423828125,-0.0032437301706522703,0.012074239552021027,-0.0035838158801198006
1772702674405333500,6.96133349609375,-0.005022721830755472,0.010361826978623867,0.0013480921043083072
1772702674415383600,6.971383544921875,-0.003382747294381261,0.0128159299492836,-0.0059566921554505825
1772702674425433300,6.981433349609375,-0.005250421818345785,0.009492305107414722,-0.002295911079272628
1772702674435483400,6.9914833984375,-0.003177417442202568,0.0005664543714374304,-0.0034413367975503206
1772702674445533400,7.001533447265625,-0.004274373408406973,0.00706856232136488,0.0007227819296531379
1772702674455583500,7.01158349609375,-0.0018165421206504107,0.01605912670493126,-0.002519882982596755
1772702674465633300,7.02163330078125,-0.0008580705034546554,0.019842680543661118,-0.0030716899782419205
1772702674475683300,7.031683349609375,0.0009693906176835299,0.01284629013389349,-0.004582235123962164
1772702674485733600,7.041733642578125,0.002198705682530999,0.010773551650345325,0.0016879114555194974
1772702674495783700,7.05178369140625,-0.0025861957110464573,-0.0003653856983873993,-0.0010040117194876075
1772702674505832400,7.06183251953125,0.0019294602097943425,-0.017114005982875824,-0.0013667342718690634
1772702674515882500,7.071882568359375,-0.002416286151856184,0.005653358530253172,-0.0027116306591778994
1772702674525932500,7.0819326171875,0.003178216516971588,0.017045829445123672,0.0020149475894868374
1772702674535982300,7.091982421875,0.005788647104054689,0.11669599264860153,0.19787660241127014
1772702674546032400,7.102032470703125,-0.0022767363116145134,0.04743542522192001,0.2598193287849426
1772702674556082400,7.11208251953125,-0.0033486587926745415,-0.07829693704843521,0.11656469851732254
1772702674566132500,7.122132568359375,0.0008796420879662037,-0.03248577192425728,0.026981282979249954
1772702674576182300,7.132182373046875,-0.0005677859298884869,0.05368586629629135,0.019305255264043808
1772702674586232300,7.142232421875,-0.0008759136544540524,0.008754609152674675,-0.001407214323990047
1772702674596282400,7.152282470703125,-0.003236006945371628,-0.041788991540670395,-0.021495439112186432
1772702674606331400,7.162331298828125,-0.0002378202771069482,-0.018014952540397644,-0.038847532123327255
1772702674616381400,7.17238134765625,0.003180879633873701,0.003163036424666643,-0.05795970559120178
1772702674626431500,7.182431396484375,-0.0001483380765421316,0.017542507499456406,-0.07723300158977509
1772702674636481500,7.1924814453125,-0.0030152308754622936,0.014800517819821835,-0.0941334217786789
1772702674646531300,7.20253125,-0.0033159018494188786,0.0036663739010691643,-0.10770169645547867
1772702674656581400,7.212581298828125,0.008170312270522118,0.02321876958012581,-0.08973361551761627
1772702674666631400,7.22263134765625,-0.0024658208712935448,0.040647294372320175,-0.03188895806670189
1772702674676681500,7.232681396484375,-0.004541222471743822,0.006879477761685848,0.0168484877794981
