time,seconds_elapsed,z,y,x
1772701761238707700,0.055707763671875,-0.012971709775924682,0.08261091706082224,-0.2642500713676214
1772701761248757000,0.065757080078125,0.005023381119966507,0.05194938294589519,-0.29737551137804985
1772701761258804700,0.0758046875,-0.05089432093501091,0.020162936454266308,-0.26133681426942346
1772701761268853800,0.085853759765625,-0.09603519290983677,-0.0002954758152365684,-0.21163316442370414
1772701761278901800,0.09590185546875,-0.13331892164349554,0.014818725882098078,-0.14460720837712288
1772701761288950800,0.10595068359375,-0.1606394747674465,-0.028682781387865543,-0.09420856200456619
1772701761298998800,0.115998779296875,-0.1409194597750902,-0.01862549775391817,-0.06069441493749618
1772701761309047800,0.1260478515625,-0.16269932990670202,0.024704379276186225,-0.07769581862092018
1772701761319095800,0.136095703125,-0.20137597430348395,0.06266973359845578,-0.11051263107359409
1772701761329144800,0.146144775390625,-0.23275895456075668,0.09065686087235808,-0.15775252115428448
1772701761339192800,0.15619287109375,-0.2624719557791948,0.12901786344870925,-0.15882102716863156
1772701761349241900,0.166241943359375,-0.29023382292985916,0.1604842842057347,-0.1358691906481981
1772701761359289900,0.176289794921875,-0.2776888141334057,0.08161211528182029,-0.11483809305727481
1772701761369338600,0.186338623046875,-0.21629764910340307,0.0707877927981317,-0.06054419281184673
1772701761379386600,0.19638671875,-0.24926819081306456,0.07171630581989884,-0.07251227850317954
1772701761389435600,0.206435546875,-0.2263099245518446,0.05676664703451097,-0.13752631020545958
1772701761399483600,0.216483642578125,-0.19178280104994772,0.058821679868176574,-0.2183843922495842
1772701761409532700,0.22653271484375,-0.18553426204919815,0.015488514902442694,-0.21415245376825331
1772701761419580700,0.23658056640625,-0.19654548540711403,-0.005356485531851649,-0.16555296577215195
1772701761429629700,0.246629638671875,-0.09908230552077293,0.030407851614803073,-0.19566461091935633
1772701761439677700,0.256677734375,-0.01965688662827015,0.052097924571111794,-0.2777227164030075
1772701761449726700,0.266726806640625,0.02881049942076206,0.03761339907944202,-0.30949966441392895
1772701761459774700,0.276774658203125,0.11634440596699713,0.015147811705991625,-0.3126747873187065
1772701761469823700,0.28682373046875,0.2216471934378147,-0.021723317638784646,-0.36800562939643855
1772701761479871700,0.296871826171875,0.3123042004406452,-0.045541342534497375,-0.4601601814806461
1772701761489920800,0.306920654296875,0.39024902538657186,-0.10748181201033294,-0.5148451268702745
1772701761499968800,0.31696875,0.5299690462440252,-0.24886085212118922,-0.5514081401139498
1772701761510017800,0.327017822265625,0.640092385739088,-0.4115467380244285,-0.5738023427516221
1772701761520065800,0.337065673828125,0.7976865014612674,-0.4851614248115569,-0.6067413202792405
1772701761530114800,0.34711474609375,0.9422264898210764,-0.33295740462988616,-0.7071382155299186
1772701761540162800,0.357162841796875,1.0170838701456784,-0.1644375153435394,-0.8109381972223519
1772701761550211600,0.367211669921875,1.0397732563376425,-0.21942312418017534,-0.9861357741743325
1772701761560259800,0.377259765625,0.9952572382628917,-0.37485805257447063,-1.2786118230730295
1772701761570308600,0.38730859375,0.9719932670533656,-0.6052256550192833,-1.5839508606761692
1772701761580356900,0.39735693359375,0.9199848473966121,-0.7855082801505923,-1.8322130893170832
1772701761590405600,0.407405517578125,0.67889937851727,-0.8562729112688452,-1.9226368720859288
1772701761600454000,0.417453857421875,0.5745984615653753,-1.0086563066054135,-1.8187942202955483
1772701761610502700,0.427502685546875,0.6616378625929356,-1.0909621032398193,-1.5960709220588207
1772701761620551000,0.437551025390625,0.8953951805412769,-0.9713236241634935,-1.386536775740981
1772701761630599700,0.447599609375,1.165916002741456,-0.9216321031469851,-1.3383604815930128
1772701761640648000,0.45764794921875,1.4253613041758537,-0.7831315410818904,-1.3614736461549997
1772701761650696700,0.46769677734375,1.6273656395107507,-0.43587015515901145,-1.5397212583273647
1772701761660744700,0.47774462890625,1.8341864352166652,0.005502031482383609,-1.7983412148535252
1772701761670793700,0.487793701171875,2.07101483117342,0.3948858914069831,-2.0036831701785327
1772701761680841700,0.497841796875,1.9342413851618765,0.4645947298619896,-1.9630822797209024
1772701761690890800,0.507890869140625,2.3550521375507114,-0.2752298036087304,-1.3771721505463121
1772701761700938800,0.517938720703125,2.711321151924133,-0.4505465499609709,-0.9623217678666114
1772701761710987800,0.52798779296875,2.5617712264478203,-0.3882672039195895,-1.0311959821283816
1772701761721035800,0.538035888671875,2.2685516657054423,0.5623312467969954,-1.2440174795538186
1772701761731084800,0.548084716796875,1.6696178043067453,1.4431528353236616,-1.3545973306447268
1772701761741132800,0.5581328125,0.7402174783110618,1.3749673339784145,-0.9297866949647664
1772701761751181800,0.568181884765625,-0.27887422452569005,0.9529051202237605,-0.29474691644012924
1772701761761229800,0.578229736328125,-1.3323761464864015,0.2793618619121611,0.34676118131577965
1772701761771278800,0.58827880859375,-2.219998354938626,-0.5181516210697591,0.9577437924265861
1772701761781326800,0.598326904296875,-2.8582360527217388,-1.3363995567835867,1.2647124770581721
1772701761791376000,0.6083759765625,-3.679591014540195,-1.7128661405332386,1.9679905100286006
1772701761801424000,0.618423828125,-4.671340536943077,-0.5780282898835838,3.191657275471091
1772701761811473000,0.628472900390625,-6.053377663177251,1.2039496730595827,4.948405081698298
1772701761821521000,0.63852099609375,-8.014083276894688,3.402515656130016,6.952441303098201
1772701761831569700,0.648569580078125,-11.838826858735084,5.6958770611822604,9.870383928763866
1772701761841618000,0.658617919921875,-16.856980014920232,7.503599852365255,14.564762226945161
1772701761851666700,0.668666748046875,-19.52894647705555,7.328132810822129,17.86027209107876
1772701761861715000,0.67871484375,-18.880024303650856,4.7561721987932915,15.198710118579864
1772701761871763700,0.688763671875,-17.362632366031406,3.4790272334024306,12.378389662754534
1772701761881812000,0.69881201171875,-15.827732828772067,3.5694133145093914,9.759752055224777
1772701761891860700,0.70886083984375,-14.300519754362105,3.460773783831298,6.574284282043576
1772701761901909000,0.718908935546875,-10.992386555498838,2.749957172049582,4.7164387388199565
1772701761911957800,0.728957763671875,-6.234038766232133,1.8001501639716326,3.5520460001230236
1772701761922006000,0.739006103515625,-2.624744107711315,1.00495854806602,2.27273391982615
1772701761932054800,0.7490546875,0.42422845187783237,0.1687492775954306,0.8140501917630434
1772701761942102800,0.759102783203125,2.996736760917306,-0.7375280930966138,-0.3798994808077812
1772701761952151800,0.76915185546875,5.297291584604978,-1.3652658780448137,-1.6876082190275192
1772701761962199800,0.77919970703125,7.357608496153354,-1.474872938580811,-2.9751632270127533
1772701761972248800,0.789248779296875,9.238479525655508,-1.112264638183266,-4.202394991460443
1772701761982296800,0.799296875,10.76375081834793,-0.6128742700763047,-5.426569121903181
1772701761992345900,0.809345947265625,11.919261746931076,-0.45971170706078407,-6.295423501521348
1772701762002393600,0.8193935546875,12.70695643121004,-0.7088214924417435,-7.13993312895596
1772701762012443000,0.82944287109375,12.822518746888637,-1.2004105391480029,-8.130638695263862
1772701762022490600,0.83949072265625,12.353584891843795,-1.752622542990744,-8.537972710964084
1772701762032540000,0.849539794921875,12.20562369686365,-2.278950456253439,-8.715923970538377
1772701762042587600,0.859587646484375,12.195670458126067,-2.4745973853856325,-8.710226051157713
1772701762052637000,0.869636962890625,12.761653651559351,-2.577238844692707,-8.535264621049166
1772701762062684700,0.8796845703125,13.290271867716312,-2.698397372943163,-8.220804703879356
1772701762072734000,0.88973388671875,13.097237020778655,-2.5771482437998054,-7.826822337183356
1772701762082781700,0.89978173828125,12.02751520090103,-2.0581465817719695,-7.274100191861391
1772701762092831000,0.9098310546875,11.592843680942059,-1.6175342735871672,-6.592894289967417
1772701762102878700,0.919878662109375,10.83165472627282,-1.158193737926334,-6.161770817878842
1772701762112927700,0.929927734375,10.144653289842605,-0.6680619042910635,-5.8072571227401495
1772701762122975700,0.939975830078125,9.494983512941003,-0.2851526472080499,-5.358605008223653
1772701762133024800,0.950024658203125,8.69128286575675,0.02012552705332637,-4.92948995334804
1772701762143072800,0.96007275390625,8.122468248289824,0.2568397951111197,-4.4574850202947855
1772701762153121800,0.970121826171875,7.408987970256805,0.38073973102420566,-3.9854590444535014
1772701762163169800,0.980169677734375,6.703283002400398,0.46031244943290944,-3.3670898302227257
1772701762173218800,0.99021875,6.069633216929436,0.4663387970503419,-2.6200755313783883
1772701762183266800,1.000266845703125,5.356676670509576,0.2968119592111558,-1.49871880133152
1772701762193315600,1.010315673828125,4.446483149287104,-0.10479001564309,0.10938976452350616
1772701762203363300,1.02036328125,2.109152546387911,-0.9460849918801337,2.2792934244722125
1772701762213412400,1.030412353515625,-2.609109900727868,-1.3066244501143693,5.690075681427121
1772701762223460400,1.04046044921875,-8.93309723343253,-0.21519765197224913,17.211539302766322
1772701762233509400,1.05050927734375,-20.945631138300893,3.9285453170984983,30.387759259366987
1772701762243557400,1.060557373046875,-27.696933782982825,5.946528815308213,26.461298931849
1772701762253606400,1.0706064453125,-29.058315659201142,5.349252657988667,17.615495366466046
1772701762263654400,1.080654296875,-29.954738429224488,1.7562690827995537,7.162980827066302
1772701762273703400,1.090703369140625,-23.307384819316862,-0.5030757786214352,4.277357001203298
1772701762283751400,1.10075146484375,-15.08481953550577,0.765919271126762,3.267003900617361
1772701762293800400,1.110800537109375,-9.446682131108641,3.097580230891704,2.0514631584852934
1772701762303848400,1.120848388671875,-4.7129532347917555,3.8923900078728795,0.5510293699294329
1772701762313897500,1.1308974609375,-2.1389573175430296,-0.35695842140968886,-7.136274606448412
1772701762323946500,1.140946533203125,-0.1836848347902298,-3.900188698925078,-10.78611462584734
1772701762333994500,1.150994384765625,1.3486387145012617,-4.776034252604842,-12.312778249680996
1772701762344042200,1.161042236328125,2.631436298826337,-3.3544872460201383,-9.859309577041865
1772701762354091500,1.171091552734375,2.131196620413661,-1.511420315863937,-7.073502800714969
1772701762364140500,1.181140625,3.2950591977566477,-0.4120391246512532,-5.936479714980721
1772701762374188500,1.1911884765625,5.653157278874517,-0.298733428793028,-4.378321467208862
1772701762384237300,1.2012373046875,6.571946779006719,-0.4974211138606071,-2.1299308382615445
1772701762394285600,1.21128564453125,6.351073492550849,-0.23792974479477852,-0.5029053904905915
1772701762404334300,1.221334228515625,6.399271998530626,0.6304411256227642,-0.9811401578441261
1772701762414382300,1.23138232421875,6.373091263091564,1.4880774341993033,-1.9409630946323275
1772701762424431400,1.241431396484375,7.334980484759807,1.9656743420407174,-2.0822750608563423
1772701762434479400,1.251479248046875,8.779445133334399,2.1761082136772574,-2.5824393359452484
1772701762444528400,1.2615283203125,9.494376194697617,1.8411491138361393,-2.478617142421007
1772701762454576400,1.271576416015625,9.330230757635832,1.111267882230878,-2.4051129302710295
1772701762464625400,1.28162548828125,8.858022410964965,0.44475561853460965,-2.08263395729661
1772701762474673400,1.29167333984375,8.16960292443037,0.10766626519914715,-1.3009826448351145
1772701762484722400,1.301722412109375,7.696472786739468,0.05450228229910135,-0.36672143480479713
1772701762494770200,1.311770263671875,6.667882603195309,0.5230484897332266,0.9432195925116539
1772701762504819500,1.3218193359375,5.03853718804419,1.0685027264114468,3.175390615803003
1772701762514867200,1.3318671875,2.7026094376802443,1.5397347023308277,5.283887328630685
1772701762524916500,1.34191650390625,-2.1073364368766545,2.1243756883524356,6.292892521739006
1772701762534964200,1.351964111328125,-6.840370921188592,2.81842514359802,5.899911441040039
1772701762545013500,1.362013427734375,-9.501015194320678,2.6979893766641614,4.017293860131502
1772701762555061200,1.372061279296875,-9.199443400296568,1.7588677209906278,2.7314479941517114
1772701762565110500,1.382110595703125,-6.153944654297828,0.754548274545744,1.902848468032479
1772701762575158300,1.392158203125,-4.11060401199162,-0.3845711258806288,0.6435580160230397
1772701762585207600,1.40220751953125,-2.3124779011934993,-0.9302259631648659,-0.5857786117494106
1772701762595255300,1.41225537109375,-0.5638555337548256,-0.7597690048687159,-1.7325503535598517
1772701762605304600,1.4223046875,0.4809966332823038,-0.23959285570140926,-2.890080220749974
1772701762615352300,1.432352294921875,0.6303846461951732,-0.5110866511195897,-2.8685148701518774
1772701762625401600,1.442401611328125,0.7838473612010478,-0.8221192241892218,-2.543226684975624
1772701762635449300,1.452449462890625,1.3525070803672075,-0.488108364983648,-2.117812822705507
1772701762645498600,1.46249853515625,1.9253712654858826,-0.017097411403805017,-1.9640560931891202
1772701762655546400,1.47254638671875,2.2204759093225,0.28877441790178415,-1.9527479327112436
1772701762665595400,1.482595458984375,2.2366946381956336,0.3842855869375169,-2.2401906636178492
1772701762675643400,1.492643310546875,2.1251187618047,0.24888262556158006,-2.623720609882474
1772701762685692400,1.5026923828125,2.116065102255344,0.0678160835109651,-3.0886557506799694
1772701762695740400,1.512740478515625,2.456497080549598,0.11381569120697677,-3.6852094389438625
1772701762705789400,1.52278955078125,3.0019413438230753,0.27258783773258327,-4.058231435197592
1772701762715837400,1.53283740234375,3.3695021520614623,0.14427629592232405,-4.039246748742461
1772701762725886500,1.542886474609375,3.507913428407907,-0.11609788386002182,-3.9050639037460084
1772701762735934500,1.5529345703125,3.0904701066255567,-0.30617336953543123,-3.4518484268367287
1772701762745983500,1.5629833984375,2.001987472176552,-0.5089263312805443,-2.7876234703600407
1772701762756031500,1.573031494140625,0.1948468647956848,-0.6233795166734606,-1.8978817855358123
1772701762766080300,1.583080322265625,-1.803039017280936,-0.7656084516119211,-0.7491022110342979
1772701762776128300,1.593128173828125,-3.5265462326854466,-0.5239583345871418,0.30567396864593027
1772701762786177300,1.60317724609375,-5.129427419281005,0.14326251576989887,2.0755355234682558
1772701762796225300,1.613225341796875,-7.101373973459005,0.7154669218055904,4.2424902704834935
1772701762806274300,1.6232744140625,-9.758242235183715,1.2127793145947157,6.158910752272606
1772701762816322300,1.633322265625,-13.164155424797535,1.2269427183732389,7.446668589353561
1772701762826371300,1.643371337890625,-16.46576419032812,0.560190362310782,8.661328456997872
1772701762836419300,1.65341943359375,-18.208291748023033,0.412295510565117,10.185705431199073
1772701762846468400,1.66346826171875,-17.999374272298812,1.405089500519633,10.743075110065936
1772701762856516400,1.673516357421875,-16.35354884698987,2.1382561835363507,10.67911789394021
1772701762866565400,1.6835654296875,-14.996490094667672,2.5171090779006478,11.225953319311142
1772701762876613400,1.69361328125,-14.109035059475898,3.5140327880710363,11.627177327698469
1772701762886662400,1.703662353515625,-13.328121998161077,4.328478116631508,11.470057843750714
1772701762896710400,1.71371044921875,-12.385483420407772,4.401345784443617,9.704397832271455
1772701762906759400,1.723759521484375,-10.7534375141263,3.528938096258044,7.181817044961452
1772701762916807400,1.733807373046875,-7.842173635572195,2.5582132417052983,4.956880649098753
1772701762926856400,1.7438564453125,-3.895460209098458,2.166459218583256,3.1815812871366735
1772701762936904400,1.753904541015625,0.04168927021622657,1.41851450702101,1.2863064692288637
1772701762946953200,1.763953125,3.4601240877509114,0.4189272036645561,-0.48435295797288413
1772701762957001500,1.77400146484375,6.962849299865961,-1.4072962167836724,-2.643149532973766
1772701762967050200,1.78405029296875,9.66294938507378,-2.888952093502879,-4.883372929817438
1772701762977098500,1.794098388671875,9.84173066573143,-3.295154474824667,-6.299919643896818
1772701762987147300,1.804147216796875,9.407790967178345,-2.844682451404631,-6.314754809457063
1772701762997196500,1.814196533203125,10.08466497734785,-1.9913297384314237,-5.526300831243396
1772701763007244300,1.824244384765625,11.17174008308649,-1.223434710252285,-5.023422621020674
1772701763017292500,1.83429248046875,11.55982988461256,-0.6891628522478044,-4.942533559316397
1772701763027341300,1.84434130859375,11.530758103907107,-0.3956520534738898,-5.153189987662434
1772701763037390600,1.854390625,11.645838773548602,-0.41854404956586655,-5.543865129506588
1772701763047438300,1.864438232421875,11.91975742149353,-0.5645356980387121,-5.741656815582513
1772701763057487400,1.8744873046875,12.444543512141705,-0.5969322757853195,-5.991271627876162
1772701763067535400,1.884535400390625,12.898394364345073,-0.4558970441434532,-6.017959143793583
1772701763077584400,1.89458447265625,13.121036414039134,-0.11502559671970083,-5.792635307669639
1772701763087632400,1.90463232421875,13.061933067685365,0.3310761209279299,-5.594829008546471
1772701763097681400,1.914681396484375,12.722207776355743,0.6322068201210349,-5.702464038357138
1772701763107729400,1.9247294921875,12.049995912778376,0.7753860415216535,-5.845496544763446
1772701763117778200,1.934778076171875,11.33349365657568,0.6080242362292483,-5.912531853160262
1772701763127826400,1.944826416015625,10.809086336112022,0.5035820111105218,-6.047429568427801
1772701763137875200,1.954875244140625,10.474307269012927,0.47469110339730974,-6.355640362074971
1772701763147923500,1.96492333984375,10.354514183896779,0.18516089869216085,-6.575836187660694
1772701763157972200,1.97497216796875,10.399076963722706,-0.19572890832722187,-6.633631958547234
1772701763168020500,1.9850205078125,10.50175641695261,-0.34418778716381637,-6.313336174830794
1772701763178069200,1.9950693359375,10.453140562343597,-0.014598571192240341,-5.476500735285878
1772701763188117500,2.005117431640625,9.706306880763172,0.38712271005958315,-4.5114732155919075
1772701763198166800,2.015166748046875,8.307562365356087,0.2702237389497459,-3.5974610128641125
1772701763208215000,2.025215087890625,6.469118857216834,-0.2979263867264613,-2.484800214970112
1772701763218263800,2.035263916015625,4.615976961639523,-0.644622430384159,-0.6576087532073259
1772701763228312000,2.04531201171875,2.0258394724071023,-1.0906725457087159,2.272745025742054
1772701763238360800,2.05536083984375,-2.3067057475328445,-1.5222653888747095,5.434137511330842
1772701763248408800,2.065408935546875,-6.768892077386379,-1.6616789741314946,10.129212559604644
1772701763258457900,2.075457763671875,-13.512502414000034,0.41059696301892395,18.571181641840933
1772701763268505900,2.085505859375,-27.385271387577056,6.942004080235957,29.018126272153854
1772701763278555000,2.095554931640625,-33.09402312790155,8.105961934646963,25.842107879841326
1772701763288603000,2.105602783203125,-29.66252892230749,4.475887522947788,19.423861131727694
1772701763298652000,2.11565185546875,-20.30611275305748,6.173254334923625,11.349444089901446
1772701763308700000,2.125699951171875,-12.530673981630802,4.86755284487307,6.16981383908093
1772701763318749000,2.1357490234375,-11.157853012031316,1.28675158264786,4.795515198144316
1772701763328797000,2.145796875,-7.852590984690189,-1.1612243377938867,2.1888281406491994
1772701763338846000,2.155845947265625,-4.885250414127111,-2.3279148320391774,-0.9129904584646225
1772701763348894000,2.16589404296875,-4.040886332643032,-2.5588056546404956,-3.5243004995852707
1772701763358943000,2.17594287109375,-3.6563954323917627,-2.3655036811992525,-5.4712569894135
1772701763368991000,2.185990966796875,-1.9435136558979749,-1.936533003230393,-6.918990868917107
1772701763379040000,2.1960400390625,-0.705074853259325,-1.447585703204572,-6.821748053783178
1772701763389088000,2.206087890625,0.10525661024153232,-1.1396980040319262,-5.917656941089033
1772701763399137000,2.216136962890625,0.8218190721988677,-0.9840877556033432,-5.385817424798011
1772701763409185000,2.22618505859375,1.5848217982918023,-0.8578050162069499,-5.122193376374244
1772701763419233800,2.23623388671875,2.544940503156185,-0.7534715121597051,-4.840322308120132
1772701763429282000,2.246281982421875,3.6158389655977485,-0.5652295620543882,-4.135601675125956
1772701763439330800,2.256330810546875,4.351635120335221,-0.2454817676095292,-3.6207214769423004
1772701763449379000,2.266379150390625,4.871197923377156,0.15660875794664025,-3.28423794401288
1772701763459427800,2.276427734375,5.079564194959402,0.44921336512845006,-2.953917609888315
1772701763469476900,2.286476806640625,5.242523052585125,0.6498744326282292,-2.798671518597007
1772701763479524900,2.29652490234375,5.223439581930637,0.8654505625240504,-2.8090993891090155
1772701763489574000,2.306573974609375,5.034962836688757,1.0421118553530424,-2.616198397684097
1772701763499622000,2.316621826171875,4.921317168286443,1.0525614262402057,-2.2553975850999355
1772701763509671000,2.3266708984375,4.5569548638284205,1.0457415170922875,-1.8986510163426398
1772701763519719000,2.336718994140625,3.7772096772491928,1.0516602396167813,-1.2357494174242019
1772701763529768000,2.346767822265625,3.2288615092277526,0.9650233549755066,-0.5577186384350061
1772701763539816000,2.35681591796875,2.9964421618849038,0.8018180483080446,0.15197627584040163
1772701763549865000,2.366864990234375,2.5621324609756466,0.8130011941667645,1.0359802937954663
1772701763559913000,2.376912841796875,1.5073638800799847,1.1516786569438875,2.051982213923335
1772701763569961700,2.386961669921875,0.10704466270208358,1.3712711098089814,2.828801868444681
1772701763580010000,2.397010009765625,-2.0435154143512246,1.3872880324997008,3.0849405295491215
1772701763590058800,2.407058837890625,-4.955696992272138,1.7035682969644665,2.7407413076758385
1772701763600107000,2.41710693359375,-6.187212133127451,1.8275111952364445,1.4252525831043719
1772701763610155800,2.42715576171875,-4.327418378445506,1.0614616487935185,-0.029506664991378783
1772701763620204000,2.4372041015625,-2.2204402534872294,-0.27552184535786506,-0.8723205944240092
1772701763630252800,2.447252685546875,-1.31195704331398,-0.8235292371176183,-1.5526152266919613
1772701763640301000,2.457301025390625,-0.5143693260520696,-0.5593730545785278,-2.256781732934713
1772701763650349800,2.467349853515625,0.24000994860231875,0.2979679243132472,-2.671085587647557
1772701763660398000,2.477398193359375,0.04533201063275337,1.059657521981001,-2.6537808171033856
1772701763670446800,2.48744677734375,-0.9623433951765298,0.8998151158753782,-2.203795992678404
1772701763680494800,2.497494873046875,-1.3198714697003364,0.6618997283995152,-1.9888632021874189
1772701763690543900,2.5075439453125,-0.9472884493857622,0.845807412160188,-2.020316325071454
1772701763700591900,2.517591796875,-0.4151385519713163,1.1974697364557534,-2.088276931619644
1772701763710641000,2.527640869140625,0.21486089429855346,1.2171280113235114,-2.2523668391019105
1772701763720689000,2.53768896484375,0.8807961618244647,0.6943064987465739,-2.541762457641959
1772701763730738000,2.547738037109375,1.4008008634150027,0.12224727333523332,-2.911399487632513
1772701763740786000,2.557785888671875,1.671018903276324,-0.10296378659661859,-3.06465235927999
1772701763750835000,2.5678349609375,1.7754501686096191,-0.27049302087780086,-3.2561072435498235
1772701763760883000,2.577883056640625,2.0594915666401383,-0.34284302149135615,-3.5006671105414626
1772701763770932000,2.587931884765625,2.59288006593883,0.05419354514349252,-3.486503560632467
1772701763780980000,2.59797998046875,3.1935546335250136,0.5098421309512108,-3.044223319235444
1772701763791029000,2.608029052734375,3.5666754139780994,0.6606544045135379,-2.7316028924524782
1772701763801077000,2.618076904296875,3.5650586264312265,0.48405857813619074,-2.4212504106014965
1772701763811126000,2.6281259765625,3.2756559936285017,0.07881415512636303,-2.263070603945851
1772701763821174000,2.638174072265625,3.1806635877698657,-0.13416655144877732,-2.370261981642246
1772701763831223000,2.64822314453125,3.6350960392534732,-0.07800115824304521,-2.607619369909167
1772701763841271800,2.658271728515625,4.225646103188395,0.16729593698196113,-2.6423674426853654
1772701763851319800,2.66831982421875,4.204983838909865,0.23399434157460927,-2.061368466427922
1772701763861368800,2.678368896484375,3.235035813948512,0.20076894832104444,-0.8561164785981178
1772701763871416800,2.688416748046875,0.8424497722953558,0.2217524073779583,0.7467530175596475
1772701763881465900,2.6984658203125,-1.6207377458035945,0.2393541150420904,2.634585118246078
1772701763891513900,2.708513916015625,-4.938170687931776,0.7514151641517877,4.4079082116991275
1772701763901563000,2.71856298828125,-8.586779704231024,1.8005857789099216,6.126016782930493
1772701763911611000,2.72861083984375,-12.102916186583041,3.050077305960655,7.643014752796292
1772701763921660000,2.738659912109375,-15.195925456297397,4.007264341287315,9.11965674687624
1772701763931708000,2.7487080078125,-17.62882012746334,4.263952160707116,10.276914226865768
1772701763941757000,2.7587568359375,-19.148434417307374,4.039860788987577,11.096196474063396
1772701763951805000,2.768804931640625,-19.558608624869585,3.189024588879943,11.944478021252154
1772701763961854000,2.77885400390625,-19.305487265759705,1.8059062432803212,12.095543027466535
1772701763971902000,2.78890185546875,-17.915853108525276,0.07484861249625682,11.6882890912652
1772701763981951000,2.798950927734375,-16.390931359922885,-0.8644807676438242,10.683266830313205
1772701763991999000,2.8089990234375,-14.228646942806243,-0.8223257065467536,9.578516951674223
1772701764002048000,2.819048095703125,-11.22162785732746,-0.6756126849967986,8.724061684286594
1772701764012096000,2.829095947265625,-8.644254572600126,-0.3444647409416735,8.141961468788981
1772701764022144800,2.839144775390625,-7.216562195128202,-0.2913827007040381,7.3083286246776575
1772701764032193000,2.849193115234375,-5.63985180709958,-0.2583367556706071,5.675913885083794
1772701764042241800,2.85924169921875,-3.320671193397045,-0.12953034301549196,3.860336873269081
1772701764052290000,2.8692900390625,-1.077718079328537,-0.19776465193852782,2.153482686501741
1772701764062338800,2.8793388671875,1.1167331618994474,-0.26180991167388856,0.8773001364022492
1772701764072387000,2.889386962890625,3.8157811077058312,-0.002878404980525374,-0.09378712172210216
1772701764082435800,2.899435791015625,6.581378624218702,0.03267163182832301,-1.0547679963737726
1772701764092484000,2.909484130859375,8.855492015704511,-0.3012813597101718,-2.0128069723546504
1772701764102532900,2.919532958984375,10.644031382989883,-0.9032427522365003,-3.1953198896318673
1772701764112582000,2.929581787109375,11.776528515732288,-1.3125856966063378,-4.433460586106777
1772701764122630000,2.9396298828125,12.039114453279971,-1.403030814424157,-5.361033112153411
1772701764132679000,2.949678955078125,11.87156359168887,-1.3715800296276808,-6.0273839747428894
1772701764142727000,2.959726806640625,11.850533663141727,-1.0681485061462968,-6.478942916616797
1772701764152776000,2.96977587890625,12.341276029890775,-1.0063796669103204,-6.865308963090181
1772701764162824000,2.979823974609375,12.913920434778928,-1.4017133020848036,-6.6348050939798355
1772701764172873000,2.989873046875,13.56715287259817,-1.3032339308932424,-6.516788370886444
1772701764182921000,2.9999208984375,14.007021961200236,-1.1045092017509042,-6.733721979805827
1772701764192969200,3.00996923828125,14.321915593612193,-1.0419258312616497,-6.975611166283488
1772701764203017500,3.020017578125,14.580646024775504,-0.7229794893927872,-7.4856556148737665
1772701764213066200,3.030066162109375,13.3310621432662,-0.2710441519545391,-6.683765816503763
1772701764223114500,3.040114501953125,11.872156296885013,-0.2474890157787129,-5.606100344145298
1772701764233163300,3.050163330078125,10.948104346179962,-0.04356479089767672,-5.456739803761243
1772701764243211500,3.06021142578125,10.026528430199622,0.5005197009304538,-5.349931287902593
1772701764253260300,3.07026025390625,9.490296816429495,0.8580576027285307,-5.273530185267329
1772701764263308300,3.080308349609375,8.988942454773188,0.8102180662542581,-5.17610149217248
1772701764273357300,3.090357421875,8.360567394834757,0.7307655401591211,-5.209399950662255
1772701764283405300,3.1004052734375,7.97724670740664,0.7435854203741997,-5.417121494600177
1772701764293454300,3.110454345703125,7.842761080071329,0.7019647584147751,-5.727143137061596
1772701764303502300,3.12050244140625,7.63171652919054,0.5389984481349587,-5.799554877799749
1772701764313551400,3.13055126953125,7.322107559183239,0.481464579587616,-5.322619502606988
1772701764323599400,3.140599365234375,6.5400394826143975,0.65262161244452,-4.0207805332034825
1772701764333648400,3.1506484375,5.44622834661901,0.5906675163021311,-2.4718179838001726
1772701764343696400,3.1606962890625,4.213133243095874,0.018615268620848655,-1.0324521196693182
1772701764353745400,3.170745361328125,2.4973037227123975,-0.4255292322780937,0.15858663389086722
1772701764363793400,3.18079345703125,-0.08144728010892868,-0.2410877339016646,1.2605810763418674
1772701764373842400,3.190842529296875,-2.975259088602662,0.26934724837616086,2.692501300641894
1772701764383890400,3.200890380859375,-6.3160769979715345,0.7956277423005551,4.573066040673852
1772701764393939500,3.210939453125,-9.638506433212756,1.2013852293990552,6.311201500889658
1772701764403988500,3.220988525390625,-14.368213234406708,1.9172551790475845,8.758482424804567
1772701764414036500,3.231036376953125,-21.35765360407829,2.520714408916235,14.091845439743995
1772701764424085500,3.24108544921875,-28.588869762980938,3.341999228107929,22.576617890918254
1772701764434133200,3.25113330078125,-26.304036824560164,2.7383634726285933,20.730590211260317
1772701764444182300,3.261182373046875,-20.84248406755924,1.9631959692284464,14.532565592217445
1772701764454230300,3.271230224609375,-17.248034511470795,0.9950381886847317,11.569130796921252
1772701764464279300,3.281279296875,-10.779048925244808,-0.37163054189532996,8.84063054665923
1772701764474327300,3.291327392578125,-6.147071261397004,-1.0317539082720875,5.838215740105509
1772701764484376300,3.301376220703125,-2.726659006309509,1.9825997578784822,0.29048107568919657
1772701764494424300,3.31142431640625,-1.5437842699825763,2.9448434920728204,-3.8804742368906733
1772701764504473300,3.321473388671875,-1.876999741026759,1.4623109786495565,-4.1494373082548375
1772701764514521300,3.331521240234375,-1.4516495916426182,0.533324859477952,-3.6279789007246492
1772701764524570400,3.3415703125,-0.16357845082879066,-0.221475051741302,-3.932391471132636
1772701764534618400,3.351618408203125,1.9302461780458688,-0.9460260282345115,-5.981642214265466
1772701764544667400,3.36166748046875,4.222303222501278,-1.3523133113607764,-7.980717598387598
1772701764554715400,3.37171533203125,5.986040741485357,-1.2335939929559827,-7.9264745515465735
1772701764564764400,3.381764404296875,6.5449751854509115,-0.8046178350944072,-7.639412344390154
1772701764574812400,3.3918125,6.117591484412551,-0.23670725379511712,-6.839822055134177
1772701764584861400,3.401861328125,6.020520518714189,0.2527550100155175,-5.49147209444642
1772701764594909400,3.411909423828125,5.629146288689971,0.49655784809477627,-4.161512361451983
1772701764604958200,3.421958251953125,4.927051912546157,0.7616316569354384,-2.9915245792269705
1772701764615006500,3.43200634765625,4.570043477982282,0.780902247659862,-2.04115511496067
1772701764625055200,3.44205517578125,3.7790643652051683,0.23731384138613937,-1.8999726203352212
1772701764635104500,3.4521044921875,3.8984073684662577,0.4275513857554644,-1.9796277563303708
1772701764645152300,3.46215234375,4.366778913453221,0.8562703539855778,-1.9637182395368813
1772701764655201500,3.472201416015625,4.432463976284861,0.9610478754732757,-2.074131501889229
1772701764665249300,3.482249267578125,4.42108976483345,0.8209256304904818,-2.188664474520087
1772701764675298600,3.492298583984375,4.4278129356086255,0.5407376930177211,-2.012876530459523
1772701764685346300,3.50234619140625,4.078981377759575,0.06059029697589576,-1.56022687073946
1772701764695395600,3.5123955078125,3.4396517930865285,-0.3998582729920745,-0.9439736257493495
1772701764705443300,3.522443359375,2.4846236893594265,-0.6035936699032783,-0.35909926936328407
1772701764715492600,3.53249267578125,1.1052718566864728,-0.3933938262183219,0.13279285194277762
1772701764725540400,3.542540283203125,-0.4874176062405109,0.17291516510322688,0.35171091267764565
1772701764735589600,3.552589599609375,-1.4989216304272412,0.549711053872481,0.46259880680441856
1772701764745637400,3.562637451171875,-1.842857232928276,0.5122355288937688,0.58139703566432
1772701764755686400,3.572686279296875,-1.878487933757901,0.3294994461957365,0.5326905801624059
1772701764765734400,3.582734375,-1.773423046696186,0.4355651808630675,0.655088879340887
1772701764775783400,3.592783447265625,-1.5702128427028654,0.8259383440859616,0.8178443233489989
1772701764785831400,3.60283154296875,-1.1814853277951478,1.1954091506641358,0.4209194734603166
1772701764795880200,3.612880126953125,-0.4068471089661121,1.0675147382874042,-0.9939975935906171
1772701764805928400,3.622928466796875,0.6710358055353164,0.343568668884784,-2.8165736705124376
1772701764815977200,3.632977294921875,1.006366661298275,-0.25102343698255714,-3.166214791178703
1772701764826025500,3.643025390625,0.8755196827262639,-0.5196684553734958,-1.316613929209113
1772701764836074200,3.65307421875,0.23842706332504748,-0.46450127942487596,0.13621288951933383
1772701764846122500,3.66312255859375,-0.32240473869442937,0.09262479994446039,0.6668669954180717
1772701764856171300,3.673171142578125,-0.43672962153255934,0.47611543711200355,0.11945581598579882
1772701764866220500,3.683220458984375,-0.16214169602394102,0.47008755512461065,-0.4251543345510959
1772701764876268300,3.693268310546875,-0.5110960034698248,0.0759555508248508,-0.19284253923594952
1772701764886317600,3.703317626953125,-1.3903700702935455,-0.4118517853856086,1.1646394069343804
1772701764896365300,3.713365234375,-2.8027777848720548,-0.3178385998226702,2.8688872105956076
1772701764906414600,3.72341455078125,-4.634301138359308,0.5491819884970783,4.377873723441362
1772701764916462300,3.73346240234375,-6.846421307268739,0.99018285760805,5.960560847792029
1772701764926511400,3.743511474609375,-9.40345147666931,1.660413776501268,7.250632807034254
1772701764936559400,3.753559326171875,-11.778560313820838,2.502447807602584,8.721836993974447
1772701764946608400,3.7636083984375,-13.807155222415924,2.990001899704337,9.735606625005602
1772701764956656400,3.773656494140625,-15.203089356577395,2.832861957490444,10.275374596208334
1772701764966705400,3.783705322265625,-16.311596541923283,2.3506901429489253,10.493396584886312
1772701764976753400,3.79375341796875,-17.72521713942289,2.0079438963629306,10.81938444276452
1772701764986802400,3.803802490234375,-19.25680477565527,1.8724280491970478,11.035005215519666
1772701764996850400,3.813850341796875,-20.385776072359082,1.333660048817098,10.708815113067626
1772701765006899500,3.8238994140625,-20.341859773743153,0.36055728615187105,9.892892697691916
1772701765016947500,3.833947509765625,-17.606727538120747,-0.13041114443801344,8.628817934015393
1772701765026996500,3.84399658203125,-11.985883213829993,-0.3634766076646745,6.9359969487756485
1772701765037044200,3.854044189453125,-5.945668399086594,-0.13778813947942106,4.910276718834043
1772701765047093500,3.864093505859375,-0.6921136648774147,1.0135364798624067,2.558634097465873
1772701765057142500,3.874142578125,3.518755140417814,0.5777802699392661,-0.05106617037057876
1772701765067190500,3.8841904296875,6.093568803790212,-1.553686363054812,-1.9476532399207351
1772701765077239600,3.894239501953125,7.738358456310629,-2.817317474617064,-3.899660583397746
1772701765087287600,3.90428759765625,9.486733570989966,-2.793306776693463,-6.135742642652988
1772701765097336300,3.91433642578125,11.015188754415512,-2.418666531588137,-7.7296859050333495
1772701765107384300,3.92438427734375,13.027791144108772,-1.770204815302044,-7.369235805583
1772701765117433300,3.934433349609375,14.408516018700599,-0.8133518342353403,-5.853403372365236
1772701765127481300,3.9444814453125,14.980294162148237,-0.37154881842862814,-5.139599269205331
1772701765137530400,3.9545302734375,15.099661715328692,-0.8557198074307292,-5.250692915037274
1772701765147578400,3.964578369140625,14.628402632206678,-1.5584712592437862,-5.397931056439877
1772701765157627400,3.97462744140625,14.069280556714533,-1.800821195100993,-5.223929995796084
1772701765167675400,3.98467529296875,13.371256206488608,-1.5358298038467764,-4.903915367108583
1772701765177724400,3.994724365234375,12.793825736367701,-1.1743306337349115,-4.374658853048086
1772701765187772400,4.0047724609375,12.555658785283565,-0.7537228565722703,-3.953784972295165
1772701765197821700,4.01482177734375,12.308188583803176,0.17970993980988859,-3.919172216336429
1772701765207869700,4.02486962890625,11.895988423371314,0.8893672254886478,-3.5327737288981673
1772701765217918700,4.034918701171875,11.200157199275493,1.2062379301272332,-3.0446348226457833
1772701765227966500,4.044966552734375,10.341496881413459,1.4631579508677124,-2.8695085573643446
1772701765238015700,4.055015625,9.638377253875136,1.6740858896315096,-2.8570447971105573
1772701765248064800,4.065064697265625,9.205423059228062,1.673581739501655,-2.9148329692125317
1772701765258112800,4.07511279296875,8.997427374523877,1.5574354864552615,-3.1889094380676744
1772701765268161500,4.08516162109375,8.366041442331671,1.6745241349183022,-3.356446271133423
1772701765278209800,4.095209716796875,7.601907666382193,1.7369114713788032,-3.5524960819780826
1772701765288258600,4.105258544921875,7.002847548255324,1.6561039504781365,-3.8569939925819634
1772701765298306800,4.115306884765625,6.4957625339925285,1.8215183845624328,-4.044101787558198
1772701765308355600,4.12535546875,6.292470496934652,1.9679766276337205,-4.093533634725213
1772701765318403800,4.13540380859375,5.942513149926066,1.8667321756429969,-3.9222237128615376
1772701765328452600,4.14545263671875,5.7803229385852815,1.6376181534558534,-3.7481262061059475
1772701765338500900,4.1555009765625,5.837876717409491,1.565870429584384,-3.7092864801019427
1772701765348549600,4.165549560546875,5.9309741033017636,1.4679038302205503,-3.530542608845234
1772701765358597600,4.17559765625,5.68149782269597,1.2285283801294862,-3.197182176372409
1772701765368646700,4.185646728515625,5.189908483728766,0.8104849004969,-2.6424142044365406
1772701765378694700,4.195694580078125,4.287489688161015,0.3573512566521764,-1.774051407727599
1772701765388743700,4.20574365234375,2.8070401184916496,-0.06522666980596259,-0.35875673953592774
1772701765398791400,4.21579150390625,0.9846826527565717,-0.6746967391956598,1.3843021485567093
1772701765408840700,4.2258408203125,-1.1682657807379961,-1.2132806882455944,3.1251468677312135
1772701765418888400,4.235888427734375,-3.3030811761707066,-1.3520841787800193,4.831462125316262
1772701765428937700,4.245937744140625,-5.469190704533458,-1.1668211348876356,6.37990561928153
1772701765438986500,4.255986572265625,-8.183960535606742,-0.8270935785356909,7.81595958238542
1772701765449034800,4.26603466796875,-12.02121405493021,-0.3008566680246964,10.155911181437968
1772701765459083500,4.27608349609375,-21.908418185591696,1.3251872578956185,16.415380741524697
1772701765469131800,4.2861318359375,-31.679727992141245,4.005559583196043,22.01779859776497
1772701765479180500,4.2961806640625,-30.366445253181457,2.377618628015369,17.12394168333411
1772701765489228800,4.306228759765625,-28.26936775999069,2.29590641335994,11.967995674961804
1772701765499277600,4.316277587890625,-22.573337554073333,2.9237115644559264,10.022890365958213
1772701765509325800,4.326325927734375,-14.308906474435329,2.316432922429591,8.293539685222505
1772701765519374600,4.33637451171875,-8.874009669169784,1.9433659179903566,6.230942553782462
1772701765529422800,4.3464228515625,-4.610512851014733,0.2566832163099199,3.5367981621086595
1772701765539471600,4.3564716796875,-2.2094693621397017,-1.7979310266174375,0.4472931011229753
1772701765549519600,4.36651953125,-1.108095097413659,-1.8417545323833822,-2.5705238572239875
1772701765559568600,4.376568603515625,0.08330079902112483,-0.8728160497907549,-3.66438233949244
1772701765569616600,4.38661669921875,0.7521575069516897,-0.8098715909041464,-3.9261014310777185
1772701765579665700,4.396665771484375,1.601338633328676,-1.1464940939128399,-4.038492130982876
1772701765589713700,4.406713623046875,2.9968600950360296,-1.2869938669711352,-3.998634167847037
1772701765599762700,4.4167626953125,4.697963755452633,-1.2496170531265436,-4.236654403936862
1772701765609811500,4.4268115234375,6.2912313105285165,-1.1017717396110296,-4.647676168239117
1772701765619859700,4.436859619140625,6.948831295907497,-0.7590754696466028,-4.940091426861286
1772701765629908500,4.446908447265625,7.327214526933431,-0.14162993699884974,-5.006675484359264
1772701765639956700,4.456956787109375,7.949819771298766,0.5390097001813352,-4.830817982193827
1772701765650005500,4.467005615234375,8.300731058031321,1.0415643044728786,-4.469937090110778
1772701765660053800,4.4770537109375,8.207718427813052,1.0804710312984882,-4.3040310731172555
1772701765670102500,4.4871025390625,7.612996631151438,0.8574936121702194,-4.48367919973731
1772701765680150800,4.49715087890625,6.825512374752759,0.5311668046612292,-5.169340327474474
1772701765690199600,4.507199462890625,6.164485337534546,-0.09736467881477437,-6.184732006749511
1772701765700247800,4.517247802734375,5.710756650406122,-0.749767323879525,-7.043205862128734
1772701765710296600,4.527296630859375,5.1434027531415225,-1.0588626452762633,-7.775621142256259
1772701765720344600,4.537344482421875,4.862119129386544,-0.8654636412013321,-8.241847491908073
1772701765730393600,4.5473935546875,5.021064075195789,-0.3375756390150636,-8.455611238619685
1772701765740441600,4.557441650390625,5.333067246863246,0.0014866948937997222,-7.684650831520557
1772701765750490600,4.56749072265625,5.39947185614109,-0.056565790700167415,-6.011848551958799
1772701765760538600,4.57753857421875,5.22399370868206,0.04548749345541,-4.961025493818521
1772701765770587600,4.587587646484375,5.061936183810234,0.2947206494877115,-3.930114173850417
1772701765780635600,4.5976357421875,4.82178653447628,0.6637373190902173,-2.759907195916772
1772701765790684700,4.6076845703125,4.31394573341012,1.0764017360329627,-1.6911311324566602
1772701765800733400,4.6177333984375,3.6499464023828505,1.5644054715983569,-0.5529173756331205
1772701765810781700,4.62778173828125,2.7546295477747917,1.8853312237814068,0.5570271490395069
1772701765820830500,4.63783056640625,0.7001976026117801,1.709938416518271,0.7345686587691307
1772701765830878700,4.647878662109375,-4.284460111206769,1.5709389650203287,0.6371311978459357
1772701765840927500,4.657927490234375,-8.251779103335737,1.8602115417025982,0.9669885906338691
1772701765850975700,4.667975830078125,-6.7789353324949735,1.777731995936483,0.9374287341505289
1772701765861024500,4.6780244140625,-4.140839575779438,1.9620900538131594,2.147780090945959
1772701765871072800,4.68807275390625,-3.985653690242767,2.1403885193899272,3.6239462842077015
1772701765881121500,4.69812158203125,-5.182290409940481,1.4267881221085785,3.6249417249858378
1772701765891169500,4.70816943359375,-7.549258026212454,1.519043796479702,3.3451889640599486
1772701765901218600,4.718218505859375,-9.425912899324297,1.7059527078829704,3.383946856999397
1772701765911266600,4.7282666015625,-9.648601710769533,0.5350337092224509,3.449332060101628
1772701765921315600,4.738315673828125,-9.926982014298439,0.11081826295666396,5.224328639724851
1772701765931363600,4.748363525390625,-11.224190401291846,0.20090740694366394,8.142889105027914
1772701765941412600,4.75841259765625,-13.068821073633432,0.2685149622704834,10.808536885535716
1772701765951460600,4.768460693359375,-14.850014754331111,0.5139115723472089,13.07880120037794
1772701765961509600,4.778509521484375,-15.696086808776855,0.7088561984289438,14.016159207379816
1772701765971558700,4.78855859375,-16.109615002942085,-0.05335786150433123,14.371637363636493
1772701765981606700,4.798606689453125,-16.70073263763189,-0.6319577407307923,14.315926582330464
1772701765991655700,4.80865576171875,-17.139806776463985,-0.6130111943289637,14.127580769991875
1772701766001703700,4.81870361328125,-17.577824099719525,0.212847508649528,13.396603413712977
1772701766011752700,4.828752685546875,-17.559018861484528,0.9653934303969144,12.81895082527399
1772701766021800700,4.83880078125,-16.21132298079133,1.3814070116370916,11.723107891190052
1772701766031849700,4.848849609375,-13.462051160657404,1.622204895746708,10.211852264368533
1772701766041897500,4.8588974609375,-9.446654658579826,1.6649581419326365,7.936760383239388
1772701766051946800,4.86894677734375,-4.6424563877642155,1.9072218608111142,5.72040301515162
1772701766061994500,4.878994384765625,0.04353168321251869,1.8410076595388352,3.897179287976026
1772701766072043800,4.889043701171875,3.8097400739759206,1.1622903595902025,2.0801479856997727
1772701766082091500,4.899091552734375,6.807768043747544,0.14803250665068626,0.10245499682426452
1772701766092140800,4.909140869140625,9.159245245420932,-0.8179866544291376,-2.1240952639758586
1772701766102188500,4.9191884765625,11.054383285206555,-1.1790959484405814,-3.9087569130450484
1772701766112237600,4.929237548828125,12.373725178074835,-1.1925438974261282,-5.138081850379705
1772701766122286600,4.93928662109375,13.798127866351603,-1.3502083019055426,-6.180729200848937
1772701766132334600,4.94933447265625,14.993337183594702,-1.4439835870593785,-6.209719148489833
1772701766142383600,4.959383544921875,16.305814451390503,-1.3073229537725448,-7.035320077314973
1772701766152431600,4.969431640625,17.578974438798426,-1.1255401532113551,-7.823367228293418
1772701766162480600,4.979480712890625,18.755661426401137,-1.2312569283105432,-8.051329011705517
1772701766172528600,4.989528564453125,19.78223150229454,-1.2604147798642515,-8.561424898222088
1772701766182577700,4.99957763671875,20.61829186581373,-1.1025832021243869,-9.34670141544342
1772701766192625700,5.009625732421875,20.02727009271383,-0.8350461449753492,-10.391784468626975
1772701766202674400,5.01967431640625,16.89391244599819,-0.5346228999318555,-8.055878345572948
1772701766212722200,5.02972216796875,14.465382984304426,-0.680779493175447,-6.564903874757886
1772701766222771500,5.039771484375,13.038657406038045,-0.8531658851642161,-6.02872428343594
1772701766232819200,5.049819091796875,11.530393362247944,-0.5189831765230745,-5.480487174573541
1772701766242868500,5.059868408203125,10.069329461050033,-0.1572093541882932,-5.127390945017337
1772701766252916200,5.069916259765625,8.797667603245378,0.08700535262748599,-4.978365920197963
1772701766262965200,5.07996533203125,7.778247399106621,0.0345665787294507,-4.70376864233911
1772701766273014300,5.09001416015625,6.926678500810265,-0.27708997145742176,-4.4557291165381665
1772701766283062300,5.100062255859375,6.203240892386436,-0.7701872307695448,-4.34682684327066
1772701766293111300,5.110111328125,5.748598597544431,-1.051377988609299,-4.282003365704417
1772701766303159300,5.1201591796875,5.830359181386232,-0.6142950966596603,-4.26297425558567
1772701766313208300,5.130208251953125,6.058616732874512,-0.2983975479021668,-4.325828478905558
1772701766323256300,5.14025634765625,5.560201347279548,-0.2989274169951677,-4.187977759051322
1772701766333305300,5.150305419921875,4.8055415021181105,-0.3347594856157899,-3.8100305813550945
1772701766343353300,5.160353271484375,4.090709809476137,-0.5098274448387324,-3.063953271099925
1772701766353402400,5.17040234375,3.400890393015742,-0.6439381013818085,-2.035197667860985
1772701766363450400,5.180450439453125,2.61009482011199,-0.4936538702815771,-0.6879454392820596
1772701766373499400,5.19049951171875,1.4297037172943352,-0.37969869753867386,0.9616443069964646
1772701766383547400,5.20054736328125,-0.06454115349352359,-0.45123117122426626,2.774686831897497
1772701766393596400,5.210596435546875,-2.004379335749149,-0.6150112090397626,4.544798562088609
1772701766403644400,5.22064453125,-4.533924116852879,-0.7098468169014901,5.909915533182025
1772701766413693400,5.230693359375,-8.380210837459563,-0.4550394774660468,7.2552598823130126
1772701766423742200,5.2407421875,-13.478153569674491,0.2136637204032391,8.778627971732616
1772701766433790200,5.250790283203125,-20.68640503257513,2.074482215023041,13.248560385668277
1772701766443839200,5.260839111328125,-29.715601171803474,4.2806873146697875,19.57139211859703
1772701766453887200,5.27088720703125,-28.95786907958984,4.404595141628384,18.708443748152256
1772701766463936300,5.280936279296875,-20.731841088104247,3.4172321637466547,14.757267497050762
1772701766473984300,5.290984375,-16.379968067359922,2.82261236615479,10.521240869623423
1772701766484033300,5.301033203125,-11.596417447775602,1.1743073989897965,5.916062365373969
1772701766494081300,5.311081298828125,-11.579677909898757,1.1112521001398563,5.949886309042572
1772701766504130300,5.32113037109375,-8.03373724091351,-0.15691270932927726,3.3285353509008884
1772701766514178300,5.33117822265625,-5.506291477915644,-0.39029695618152616,0.32257541908621784
1772701766524227300,5.341227294921875,-4.150951804471016,-0.10374138337299227,-1.1973071663051842
1772701766534275300,5.351275390625,-3.261685920464992,-0.0073993164710700506,-1.6179156741201877
1772701766544324400,5.361324462890625,-1.9311048407018183,0.26929676029793914,-2.179393957349658
1772701766554372400,5.371372314453125,-0.26623861483633515,0.42776407865807414,-2.810970443677902
1772701766564421400,5.38142138671875,1.0143933158874512,0.45146008460931475,-3.7862592451453208
1772701766574469400,5.391469482421875,2.2164660891592503,0.38837088348977267,-4.55829751060903
1772701766584518400,5.401518310546875,3.8344472297310825,0.3398639691479504,-5.395638561588526
1772701766594567400,5.4115673828125,5.316797664585709,0.06595087416097521,-5.803163715946674
1772701766604615200,5.421615234375,6.779096660536527,-0.19841507867127656,-5.878064935413002
1772701766614664200,5.431664306640625,7.806713030612468,-0.2224342521622777,-5.872361755335331
1772701766624712200,5.441712158203125,8.456668638718128,0.15231421169103124,-5.421600101318955
1772701766634761200,5.45176123046875,8.743404098138212,0.8987516513623297,-4.373441878473758
1772701766644809200,5.461809326171875,7.995868405768275,1.6414714678831397,-3.424986138874292
1772701766654858200,5.471858154296875,6.741849756681919,1.3178534078761934,-3.2473978673934933
1772701766664906200,5.48190625,6.23437837345004,0.9370289211779832,-3.8544390474021433
1772701766674955300,5.491955322265625,5.850238770854473,1.1079129457797854,-4.233082975190878
1772701766685003300,5.502003173828125,5.248374116700887,1.1160425492867827,-4.505879341107606
1772701766695052300,5.51205224609375,4.869893855041266,0.4053943163419142,-4.565667162594199
1772701766705100300,5.522100341796875,4.6786844699651,-0.3784846455737948,-4.503244900950789
1772701766715149300,5.5321494140625,4.478951586693525,-0.3106455465134233,-4.165849513873457
1772701766725197300,5.542197265625,4.043419650512933,0.059035249553620814,-2.648154793915152
1772701766735246300,5.552246337890625,3.3688533327639103,0.5252510047461837,-0.36310382882952685
1772701766745295400,5.56229541015625,2.6633652225285767,1.1083519947841762,1.6760241642177105
1772701766755343400,5.57234326171875,2.2807395316272974,1.5756882053740322,3.2111025651752945
1772701766765392400,5.582392333984375,2.140157925504446,1.6823422613233328,3.4567952355891465
1772701766775440100,5.592440185546875,1.382385501280427,1.5386837319731712,2.6587814018696543
1772701766785489400,5.602489501953125,-2.0125345851540564,1.293552640964836,1.2589467531383036
1772701766795537200,5.612537109375,-5.88252776004076,1.2152782918035983,0.4159621433138847
1772701766805586400,5.62258642578125,-5.325168602567911,0.9472908605385572,-0.6304658947378396
1772701766815634200,5.63263427734375,-1.9119196632385254,-0.03262711683316156,-1.9267916536778211
1772701766825683500,5.642683349609375,-0.240016962864995,-0.6109084498960524,-2.6975831339508294
1772701766835731200,5.652731201171875,0.42695700005888937,-0.11418719140049069,-3.116146984195709
1772701766845780500,5.662780517578125,0.9588543840169906,0.4303912488238886,-2.8540958841770885
1772701766855828200,5.672828125,1.2225947522968053,0.02565978030487895,-2.4641256757318972
1772701766865877500,5.68287744140625,0.35657062766849995,-0.43521647702325134,-2.958586186221242
1772701766875926300,5.69292626953125,0.2721194895684719,-0.09863364843782037,-2.5129846914470195
1772701766885974500,5.702974609375,0.4544774596691131,0.30415154485162343,-2.104181772238016
1772701766896023300,5.713023193359375,0.3422305521488189,0.3369329937299713,-1.4671552038103342
1772701766906071600,5.723071533203125,0.16474983269572258,-0.44453116212897,-0.8538584705382585
1772701766916120300,5.733120361328125,-0.6004419278740882,-0.9682480161104351,-0.255326760199666
1772701766926168300,5.743168212890625,-2.035655933022499,-0.7852554744333028,0.6218441968649625
1772701766936217300,5.75321728515625,-4.31743299100399,-0.3434098250612616,1.3080699727475642
1772701766946265300,5.763265380859375,-6.883429141670465,0.29805048803016543,2.0838953555345534
1772701766956314400,5.773314453125,-9.61921779537499,0.5981601736124604,3.37366453243792
1772701766966362000,5.783362060546875,-12.281411636036633,0.3307258461855352,4.824226328843832
1772701766976411400,5.793411376953125,-13.96896958618164,0.5516937155896797,7.8218831272155045
1772701766986460200,5.803460205078125,-15.127465083533524,1.3092574289664625,10.645296288359164
1772701766996508400,5.81350830078125,-15.425712701570987,1.300603290128708,11.441409256893396
1772701767006557200,5.82355712890625,-15.10610197750926,0.9431498152110726,11.638733325457572
1772701767016605400,5.83360546875,-14.881601148205995,0.11166402959842234,11.283797605514525
1772701767026654200,5.843654296875,-15.515578265935181,-1.1020920576065778,10.847717387801408
1772701767036702500,5.853702392578125,-16.41162343481779,-2.3202193091005086,10.85914712883234
1772701767046751200,5.863751220703125,-16.748600304222105,-2.861754289975762,10.788119535928963
1772701767056799500,5.873799560546875,-16.093124471390247,-2.414102438542992,10.556816040873526
1772701767066848300,5.88384814453125,-14.908193387055396,-1.584864322259277,9.705075877663493
1772701767076896500,5.893896484375,-13.127107258385418,-0.7775213730499148,8.027986130040883
1772701767086945300,5.9039453125,-10.337532653957604,-0.14419375047171487,6.418924208983778
1772701767096994300,5.913994384765625,-6.981083460214734,0.1626073773069307,5.112164734312891
1772701767107042300,5.924042236328125,-3.8114310958027837,0.20820136334411798,3.518537113752961
1772701767117091300,5.93409130859375,-0.7272995445489883,0.21235409910939632,1.6408634189873932
1772701767127139300,5.944139404296875,2.6031799261569977,0.2929081201730296,-0.16797873161435126
1772701767137188400,5.954188232421875,5.841919270798564,0.29073464859146625,-1.6792051323413848
1772701767147236400,5.964236328125,8.569678931826353,0.4406474525634199,-2.8273636523351073
1772701767157285000,5.97428515625,10.558672482395172,0.6803931972716003,-3.545771742159128
1772701767167333400,5.98433349609375,12.021876902753114,0.7268972473584115,-3.9085403476849194
1772701767177382100,5.994382080078125,13.247405370414256,0.888348038508743,-4.124137155042589
1772701767187430400,6.004430419921875,14.133153601688146,0.8334979656852781,-4.193877046222984
1772701767197480000,6.01447998046875,14.566996269607543,0.7590599798165262,-4.156877395127713
1772701767207528200,6.024528076171875,14.680519772934913,0.6044734118798747,-4.144122835233808
1772701767217577000,6.034576904296875,14.651590615570544,0.4221518282668665,-3.9971211329355834
1772701767227626000,6.0446259765625,14.838274047654867,0.3814427647270262,-3.992080508419871
1772701767237674000,6.054674072265625,15.143472800004481,0.3759077442904934,-4.324544576574862
1772701767247723000,6.064722900390625,15.52569049462676,0.5033863058753312,-4.650013671275973
1772701767257771000,6.07477099609375,15.736163967621325,0.6672296181853861,-4.488592398481071
1772701767267820000,6.084820068359375,15.68029887253642,0.7642994879052043,-3.9088580353319644
1772701767277868000,6.094867919921875,14.637342309987543,0.6161874132122844,-3.7741692866399883
1772701767287917000,6.1049169921875,13.1651888594985,0.6139886610589921,-3.854661457981169
1772701767297965000,6.114965087890625,12.343109090536831,0.588514904845506,-4.088138205422461
1772701767308014000,6.12501416015625,11.548965960770845,0.5616380038358271,-4.304292062141001
1772701767318062000,6.13506201171875,10.711849950718879,0.6160373372171074,-4.393305101329088
1772701767328111000,6.145111083984375,10.061524924778938,0.6523601850293577,-4.432529442736506
1772701767338160000,6.15516015625,9.611354806914925,0.7382627640467136,-4.416656166300177
1772701767348208000,6.1652080078125,9.207131616711616,0.891663008275628,-4.31388114374131
1772701767358257200,6.175257080078125,8.920027908501028,0.9952102573160082,-4.163414980202913
1772701767368305000,6.185304931640625,8.825815839365124,1.1170184085816144,-4.157957591579854
1772701767378354200,6.195354248046875,8.693737857693433,1.2415963898867368,-4.124211681583524
1772701767388402000,6.20540185546875,8.33268102452159,1.2064041535396128,-3.7115497488588094
1772701767398451200,6.215451171875,7.502513810694217,1.0376233848273753,-3.334114027816057
1772701767408499000,6.2254990234375,6.414723834684491,0.7353221074849366,-2.828527727678418
1772701767418548200,6.23554833984375,5.02102491222918,0.21601338880192486,-1.9218413377940653
1772701767428596000,6.245595947265625,3.444550671043992,-0.4124252378920093,-0.5674789849489927
1772701767438645200,6.255645263671875,1.5523796643704175,-1.056236169230193,0.9082681061178445
1772701767448694000,6.265694091796875,-0.9117425042301416,-1.5605946811385452,2.5149650516092774
1772701767458742000,6.275741943359375,-3.5800948675215243,-1.7568712864764033,4.402213799449801
1772701767468791000,6.285791015625,-6.799286631128192,-1.5896468803606927,7.139962355050444
1772701767478839000,6.295839111328125,-11.344486175233126,-1.8944161552518606,11.20896477510929
1772701767488888000,6.30588818359375,-19.49143303121924,-2.017884129488468,18.084706284886597
1772701767498936000,6.31593603515625,-26.13011116724014,1.437233966668695,25.851242787933348
1772701767508985000,6.325985107421875,-26.933192805743214,3.4253511727944015,23.214207353925705
1772701767519032800,6.33603271484375,-30.47458647894859,3.8882264584526416,13.945623781907557
1772701767529082000,6.34608203125,-25.659898378300664,3.678554657229781,10.241929422724246
1772701767539129900,6.3561298828125,-16.58934380824566,2.386313683385402,8.142338485407828
1772701767549179100,6.36617919921875,-12.722069829189776,0.012590491905994712,2.017170428261161
1772701767559228200,6.376228271484375,-10.834159987092017,-3.601483107987046,-4.108516099801659
1772701767569276200,6.386276123046875,-8.99896817422509,-4.914312257960439,-7.667745873948931
1772701767579325000,6.396324951171875,-6.656482672780752,-3.476971469916403,-7.842299307778477
1772701767589373200,6.406373291015625,-4.049257270625233,-2.5310467100992797,-4.628397467273474
1772701767599422000,6.416421875,-1.13399818495512,-2.310252334098518,-3.971487802246213
1772701767609470200,6.42647021484375,0.11845686807632445,-1.3513742769449948,-4.459754718792438
1772701767619519000,6.43651904296875,1.2356395273089409,-0.009988090855255722,-2.9188188239783046
1772701767629567200,6.446567138671875,2.0265385605871677,0.6430985818177462,-2.1075825205922127
1772701767639616000,6.456615966796875,3.6709295691788193,0.7462245367061346,-2.093514247751236
1772701767649664300,6.466664306640625,6.402336062276363,1.1666028890270739,-2.5337363875746726
1772701767659713000,6.476713134765625,8.117768692296742,1.4868522763185201,-2.154613736358285
1772701767669762000,6.486761962890625,8.694087401783467,1.8854094035841524,-2.343594339469075
1772701767679810000,6.49681005859375,8.9527938675493,2.305516537748277,-2.8583851058036087
1772701767689859000,6.506859130859375,9.303121216914057,2.2290600516639647,-3.221616944926977
1772701767699907000,6.516906982421875,9.580527122452855,1.7228709633275865,-4.100545559313893
1772701767709956000,6.5269560546875,9.594182722839713,0.9406096292089671,-5.027637608367204
1772701767720004000,6.537004150390625,9.440601934412122,0.3103694695184007,-5.742040846464038
1772701767730053000,6.54705322265625,8.835271649974585,-0.07375856593695934,-6.02094721969366
1772701767740101000,6.55710107421875,7.505855522337556,-0.44212366259582336,-5.494754184857011
1772701767750150000,6.56714990234375,6.723070237410068,-0.8275465099349617,-4.492719415283203
1772701767760198100,6.5771982421875,6.398460097625851,-1.0921516783505678,-3.6099078219830987
1772701767770247000,6.587246826171875,5.746357540619373,-1.1157929584398865,-2.3982342766731977
1772701767780296200,6.597296142578125,4.71822211510539,-0.9085610977150499,-0.7120856088042259
1772701767790344000,6.607343994140625,3.224132727140188,-0.49616702214628455,1.3061620932996272
1772701767800393200,6.617393310546875,1.6523060194998977,0.11337627687640488,3.3672283619105814
1772701767810441000,6.62744091796875,0.44941374653875826,0.5697535788174718,4.572101579555869
1772701767820490200,6.637490234375,-0.28866613522171974,0.3831278682697564,4.49162460578382
1772701767830538000,6.6475380859375,-1.531242768317461,0.00522168017104268,3.7129257133871314
1772701767840587300,6.657587158203125,-4.69408954436779,0.4658188648294657,2.182605320611596
1772701767850635000,6.667635009765625,-7.905355191150307,1.647187507442385,0.5523375299185515
1772701767860684000,6.67768408203125,-6.894249810892343,1.5573897476173937,-1.3335323307842015
1772701767870732000,6.68773193359375,-2.7474866902828214,-0.025767478463053703,-2.93318754107058
1772701767880781000,6.697781005859375,-0.07300795306563376,-1.443003636111319,-4.085099568378925
1772701767890830000,6.707830078125,0.9914730435490607,-2.0003543180167673,-4.407292125627398
1772701767900878000,6.717878173828125,1.3768261135876179,-1.22939332639575,-4.368799021103978
1772701767910927000,6.727927001953125,1.475693315052986,0.3957555138483643,-5.174408716779947
1772701767920974800,6.737974853515625,1.5697329502314328,1.2169778622630982,-5.943525541839003
1772701767931024100,6.748024169921875,1.753633473598957,0.48756351751722393,-5.413194676545262
1772701767941072000,6.75807177734375,1.7122668594658375,-0.07026603394635021,-4.784132803386449
1772701767951121200,6.76812109375,1.1536322752296924,-0.10485862389989196,-3.706165717732906
1772701767961169000,6.7781689453125,0.29805121868252754,0.0031373481776565313,-2.294776240286231
1772701767971218200,6.78821826171875,-1.1570686794191598,0.44193310845978556,-0.7477204012870788
1772701767981266000,6.798265869140625,-3.562849133688211,1.2216113672826439,1.3429618379086254
1772701767991315200,6.808315185546875,-7.0723197284102435,2.299056109562516,3.905913798573613
1772701768001364000,6.818364013671875,-10.787246260225773,3.3912007736504077,6.115985218259691
1772701768011412200,6.828412109375,-14.388523031985759,4.491835033664107,7.682929999077319
1772701768021461000,6.8384609375,-18.969808034950493,5.59097174859643,9.829245278167724
1772701768031509200,6.84850927734375,-23.600279385888577,5.727617768836021,12.105518478035926
1772701768041558000,6.85855810546875,-27.93573669388294,4.6784880706101655,13.564928182286023
1772701768051606300,6.868606201171875,-30.96954091043472,3.857264333955943,13.912184453642368
1772701768061655000,6.878655029296875,-30.20233488743305,3.3794425313174723,14.164978480494021
1772701768071703000,6.888703125,-27.026742027056216,3.0071146548077463,13.470952259993553
1772701768081752000,6.898751953125,-23.605334331190583,2.188562475450337,11.850841121655701
1772701768091801000,6.908801025390625,-19.446739318490028,1.1941340892270207,10.757999122953414
1772701768101849000,6.91884912109375,-14.116795172083377,0.5071718157634139,9.394938499867916
1772701768111898000,6.928898193359375,-8.559772454839944,-0.1133346662243828,7.056456973367929
1772701768121946000,6.938946044921875,-3.452546930494904,-0.6286448898557573,4.970865919831395
1772701768131995000,6.948994873046875,1.212614041030407,-1.3861933691307902,3.795018890184164
1772701768142043100,6.959043212890625,5.290933155488967,-2.004609052851796,2.5471815600812433
1772701768152092000,6.969091796875,8.64680191899538,-2.905093080964684,0.7197709026098251
1772701768162140200,6.97914013671875,10.912958213996886,-4.116685669992864,-1.5714584588497875
1772701768172189000,6.98918896484375,12.560868044364451,-5.12475708938241,-3.5811253796130416
1772701768182237200,6.9992373046875,13.822814563840627,-5.976985328370333,-5.117385683831572
1772701768192286000,7.009285888671875,15.03836407380104,-6.57798839725852,-7.147850477951764
1772701768202334700,7.019334716796875,17.963596856474876,-6.770566732600331,-9.59603331914246
1772701768212382700,7.0293828125,19.83760442994833,-6.6447378744512795,-11.456623192638158
1772701768222431700,7.039431640625,18.063622580325603,-5.961060614007711,-12.560986117786168
1772701768232479700,7.049479736328125,15.480225213003157,-4.658514957639575,-13.022443937861919
1772701768242528800,7.05952880859375,13.821062167215347,-3.507074347235262,-13.082108425229787
1772701768252576500,7.069576416015625,12.27162790864706,-2.417633096887171,-12.844344794249533
1772701768262625800,7.079625732421875,11.141387030398844,-1.5365966965660451,-11.808407170552014
1772701768272673500,7.089673583984375,10.051513233852386,-1.4396389819838107,-7.85230982966125
1772701768282722800,7.099722900390625,9.014081572204828,-1.3678449347525834,-7.15571229736805
1772701768292771600,7.109771484375,8.266868535917997,-1.058341324815899,-6.951746891093253
1772701768302819800,7.11981982421875,7.664539771384001,-0.40421003846079107,-6.4950429875463245
1772701768312868600,7.12986865234375,7.44350106523335,0.2685301233069971,-5.964912613260745
1772701768322916900,7.139916748046875,7.326969612261652,0.7667022381979972,-5.564000739562511
1772701768332965600,7.149965576171875,6.803547211182117,1.0722043574083595,-5.41193094021976
1772701768343014000,7.160013916015625,6.243287071570753,1.3861743721693753,-5.457874360749125
1772701768353062700,7.170062744140625,5.739208837908506,1.681914683561027,-5.657629455852509
1772701768363110700,7.180110595703125,4.927151281267404,1.6150507862083614,-5.868653548467159
1772701768373159700,7.19015966796875,4.31280650024712,1.3494972310267388,-6.140322371658683
1772701768383207700,7.200207763671875,4.265185501894354,1.2643690704479813,-6.524314674738049
1772701768393256700,7.210256591796875,4.955979900866747,1.1838061719581483,-6.774313517913222
1772701768403305700,7.2203056640625,5.470910367932915,1.1599465729430318,-6.759428083470463
1772701768413353700,7.230353759765625,5.886986493015289,1.0571235465239732,-6.627248979511856
1772701768423402800,7.24040283203125,6.414674734845757,1.1197789593361318,-6.568686900427937
1772701768433450800,7.25045068359375,6.7787710818439715,1.2479869677066802,-6.241060627692938
1772701768443499800,7.260499755859375,6.644121788379549,1.3442920635990798,-5.532049019506573
1772701768453547800,7.2705478515625,6.357663392335176,1.2274943609066307,-4.824550738492608
1772701768463596500,7.280596435546875,5.804145128199457,0.8216666581161319,-3.9984558886706827
1772701768473644800,7.290644775390625,5.127063028237223,0.319823709225282,-3.1631817070931194
1772701768483693600,7.300693603515625,4.531747357335687,-0.059464745278377085,-2.41512695928514
1772701768493742600,7.31074267578125,3.654376493784785,-0.2356450679237023,-1.4708569809377192
1772701768503790600,7.32079052734375,2.1965824080377816,-0.2913318472996354,0.19207506199479102
1772701768513839600,7.330839599609375,-0.08194353919327259,0.25440606515817343,2.6811779425948856
1772701768523887600,7.3408876953125,-3.7077258066564798,1.6471191183812914,7.196798925516009
1772701768533936600,7.3509365234375,-8.752794442296027,2.6953014527544377,14.163568613696098
1772701768543984600,7.360984619140625,-14.281295998454093,2.807856111049652,18.051583767485617
1772701768554033700,7.37103369140625,-19.26512486023307,2.2400629455849526,19.545085126429797
1772701768564081700,7.38108154296875,-28.421465031862258,2.6443393272802234,22.753360943746564
1772701768574130700,7.391130615234375,-33.390251807332035,3.4180233141243455,19.47864252322912
1772701768584179700,7.4011796875,-26.46294026931524,3.2050252910882233,15.614045654428004
1772701768594227700,7.411227783203125,-19.865027858924865,2.272317740240693,12.11711071615219
1772701768604276700,7.42127685546875,-14.970622662961482,1.7515365013197064,7.44857296167016
1772701768614324700,7.43132470703125,-10.324100340932606,0.8722242944426835,4.350674166348576
1772701768624373800,7.441373779296875,-8.341921146553755,-0.25979426100254055,1.153547519555688
1772701768634421500,7.45142138671875,-7.064298919039964,-0.26324922376200555,-1.468647488194704
1772701768644470800,7.461470703125,-5.295387796810269,0.10241356883533298,-2.2461451881080863
1772701768654518500,7.4715185546875,-3.7391158011764287,-0.05934533841609955,-2.146868236798048
1772701768664567800,7.48156787109375,-2.311887534084916,-0.06128558576367795,-2.357578441157937
1772701768674616800,7.491616943359375,-0.508316601884365,0.02984115764275193,-2.8013877918183803
1772701768684664800,7.501664794921875,1.0728981118261813,0.13271748515162615,-3.2217192362576723
1772701768694713600,7.511713623046875,3.020330402472615,0.026263445286452768,-3.6425083613365885
1772701768704761900,7.521761962890625,5.390012538400292,-0.18774234828641637,-4.036873005348443
1772701768714810600,7.531810546875,6.862917099517584,-0.39371633617095647,-4.41564318986535
1772701768724859000,7.54185888671875,7.844331690388917,-0.31194713063128293,-4.983847566479445
1772701768734907600,7.55190771484375,8.268155653119086,0.2909212937373668,-5.494597532990574
1772701768744956000,7.561955810546875,8.724991074091195,1.1423084057260304,-5.225022467207908
1772701768755004700,7.572004638671875,9.144931473386286,1.6858046767368913,-4.385884011417627
1772701768765053700,7.5820537109375,9.34869521960914,1.3807372956819832,-4.083122715348005
1772701768775101700,7.592101806640625,8.720234819474816,0.7105630754120648,-4.510792832112312
1772701768785150700,7.602150634765625,7.624819755414128,0.10945663748094811,-5.00295383348763
1772701768795198700,7.61219873046875,6.241603648528456,-0.5746653893217444,-5.955664307922125
1772701768805247700,7.622247802734375,5.261650362381339,-0.6080590518143028,-5.9528147637099025
1772701768815295700,7.632295654296875,5.04450515653789,-0.13768888035602866,-5.0047968310058115
1772701768825344800,7.6423447265625,4.733782087808847,-0.11120916197039186,-4.75264986988604
1772701768835392800,7.652392822265625,4.565845441770553,-0.34068803541455417,-4.899354927325248
1772701768845441500,7.662441650390625,4.676266887429357,-0.41584132994581013,-4.605084980747104
1772701768855490600,7.672490478515625,4.812318448907137,-0.7610154977984726,-3.689379418104887
1772701768865538600,7.68253857421875,4.58431516444087,-1.4266246021099387,-2.8135581220835446
1772701768875587600,7.692587646484375,3.9426194351583717,-1.7591743027217686,-2.03442259183526
1772701768885635600,7.702635498046875,3.1297604990065095,-0.9903615021105855,-1.5619728376239537
1772701768895684600,7.7126845703125,1.8075497727036476,0.8459998659923672,-1.5299889688640833
1772701768905732600,7.722732666015625,0.5567319654852152,2.2355460526823996,-1.5858412044674157
1772701768915781600,7.73278173828125,-1.5297007995724676,2.8586674298763275,-0.8158359061360358
1772701768925829600,7.74282958984375,-3.0088509770810603,3.003948007470369,0.1355874510973692
1772701768935878700,7.752878662109375,-3.0934564289599655,2.846557305365801,0.38297406594753264
1772701768945927700,7.762927734375,-1.9326058929145336,2.2075272881612182,0.15857728154063225
1772701768955975700,7.7729755859375,-1.353902918639779,1.4352400163725019,-0.11179507209956645
1772701768966024700,7.783024658203125,-1.859810121294856,1.0050456418275833,-0.43951895999014373
1772701768976072700,7.79307275390625,-2.84342602160275,1.1244658750433474,-0.5559779322475195
1772701768986121700,7.803121826171875,-3.9633904205083845,1.0832196724195033,0.10158639729619026
1772701768996169700,7.813169677734375,-5.937493275937437,0.8875783693104982,1.7489081986427306
1772701769006218800,7.82321875,-8.604626326566935,1.1908123974584042,4.37150068127811
1772701769016266500,7.8332666015625,-11.12272792263627,1.8193861948393284,7.129017182666063
1772701769026315800,7.843315673828125,-12.82724869801998,2.440558045400679,9.115860861724615
1772701769036364800,7.85336474609375,-13.894022189486027,3.029568186417222,9.819138894695042
1772701769046412800,7.863412841796875,-14.536538002979755,2.7948148431688544,10.328127696752547
1772701769056461800,7.8734619140625,-15.375029977560043,2.10285023137331,10.754262859034538
1772701769066509800,7.883509765625,-17.078310397493837,1.8522504996955393,11.256340274268387
1772701769076558600,7.89355859375,-18.756708889627454,1.8438558885768055,11.891380052793025
1772701769086606800,7.90360693359375,-19.55376293840408,1.863092211705446,11.699091055786608
1772701769096655600,7.913655517578125,-19.77524062049389,2.029456493860483,11.419569181007146
1772701769106704600,7.92370458984375,-19.07287677975893,1.88319888792783,11.080407368779182
1772701769116752600,7.933752685546875,-17.330407674252985,1.8845190306156872,10.168266805142164
1772701769126801700,7.9438017578125,-14.699687414741515,1.6242003073476254,8.64780788116753
1772701769136849700,7.953849609375,-11.361985591566562,1.1288777732014657,6.797135590574145
1772701769146898700,7.963898681640625,-7.63281659938693,0.7892724549897014,5.066659120678901
1772701769156946700,7.97394677734375,-3.857404911470413,0.5035612240508198,3.5383740331232545
1772701769166995700,7.98399560546875,-0.22415011616945266,0.21653160398975013,2.1526941664725543
1772701769177043700,7.994043701171875,3.133255939906835,-0.21985636449828744,1.0077718519210814
1772701769187092700,8.0040927734375,6.145363288435339,-0.9338790788449346,-0.08309095566272735
1772701769197141800,8.014141845703126,8.595802384120226,-1.7024482068933546,-1.3675947593837976
1772701769207191000,8.02419091796875,10.464288563823699,-2.4724562817037103,-2.7475071485489604
1772701769217239800,8.03423974609375,11.803872449731825,-2.9323429069399833,-4.14046255916059
1772701769227288000,8.0442880859375,12.805767518574,-3.161104608558118,-5.003092365175485
1772701769237336800,8.0543369140625,13.748847994875907,-3.3553748425096273,-5.793879170250892
1772701769247384800,8.064384765625,14.364917699992656,-3.484250813269615,-6.454294797572493
1772701769257433900,8.074433837890625,14.934603255075215,-3.5317098990589377,-7.371229025226831
1772701769267481900,8.08448193359375,15.467806460934877,-3.5410987819120288,-8.213269047677516
1772701769277531000,8.09453076171875,15.43643166398406,-3.3840614232897757,-9.000084026512503
1772701769287580000,8.104579833984374,15.07624343034029,-3.4137864072069526,-9.447708551546931
1772701769297628000,8.1146279296875,14.417103814303875,-3.425174939444661,-8.872425614848732
1772701769307676700,8.1246767578125,13.218010933625697,-2.887157611301541,-8.3273075147897
1772701769317725000,8.134724853515625,12.25191666148305,-2.5583248853862286,-7.897057902926206
1772701769327773700,8.144773681640626,11.089645152723788,-2.281916466452181,-7.201139585068821
1772701769337822000,8.154822021484375,10.018787022292614,-1.984428873001784,-6.500556782531738
1772701769347870700,8.16487060546875,9.203885766658187,-1.732221267735958,-6.152559337419271
1772701769357919000,8.1749189453125,8.571768013060092,-1.4852275977261364,-5.956280393993854
1772701769367967700,8.1849677734375,7.973271374034881,-1.2684551707178353,-5.721599531459808
1772701769378017000,8.19501708984375,7.404910930076241,-1.1477240740992127,-5.473752313360571
1772701769388064800,8.205064697265625,6.91779142999947,-1.0359677265748382,-5.450305971321463
1772701769398114000,8.215114013671876,6.5239943567425005,-1.0833837038747967,-5.5102790862470865
1772701769408161800,8.225161865234375,6.258533740541338,-1.0134649489961565,-5.5224365570306775
1772701769418211000,8.235211181640626,6.058461250051856,-0.9073360859647392,-5.612636467915773
1772701769428258800,8.2452587890625,5.861659744057059,-0.7794798867065459,-5.592526576822996
1772701769438308000,8.25530810546875,5.66253067189753,-0.6942610521696507,-5.3740697038590906
1772701769448356900,8.26535693359375,5.357765050268173,-0.7192390607554465,-5.106943784794211
1772701769458405000,8.275405029296875,5.074356104922295,-0.6245584242597222,-4.899789811611175
1772701769468454000,8.285453857421874,4.906183896562457,-0.4644963109888136,-4.74864063424468
1772701769478502000,8.295501953125,4.891546883922815,-0.37722441637963056,-4.3397582200586795
1772701769488551000,8.305551025390624,4.896111999881267,-0.4909714993298053,-3.454533720397949
1772701769498599000,8.315598876953125,4.581861341547966,-0.8089887436550111,-2.18918119187057
1772701769508648000,8.32564794921875,3.7912218359887597,-0.8787590299736708,-0.6368167250692844
1772701769518696000,8.335696044921875,2.150176630693674,-0.6026380496788769,0.9002467122256755
1772701769528745000,8.345744873046876,-0.283451030921936,-0.34608941953405736,2.761978741493821
1772701769538793700,8.355793701171875,-3.611609949725866,0.2151353273257613,5.363135637390613
1772701769548842000,8.365842041015625,-7.354569566848873,1.2383183911293745,7.969675979891419
1772701769558890800,8.375890869140624,-11.206306369554996,2.4385817768916485,10.421005886936188
1772701769568939000,8.38593896484375,-15.928842256206273,3.2619057006955146,13.331747202920912
1772701769578987800,8.39598779296875,-21.696629538345334,3.3748946587547657,16.67809527388811
1772701769589036000,8.4060361328125,-24.414974305295942,2.649886440013349,17.212647556269168
1772701769599084800,8.416084716796876,-21.851579277038574,2.358075430894643,14.001013076174258
1772701769609134000,8.426134033203125,-17.56427254422903,2.466289575767517,11.802509344685078
1772701769619181800,8.436181884765626,-14.054775061500072,1.0719897648096084,9.521883794826268
1772701769629231000,8.446231201171875,-12.018035424894094,0.04938303958922624,6.768634303233027
1772701769639278800,8.45627880859375,-9.272372442907095,-0.48201706237122416,4.373635355219244
1772701769649327900,8.466327880859374,-7.275406598284841,-0.7305103232890368,2.5614748738497495
1772701769659375900,8.4763759765625,-5.855512911865115,-0.7453979496888816,1.4232611170262097
1772701769669425000,8.4864248046875,-4.562617711895704,-0.6870167070645838,0.590417961987853
1772701769679473000,8.496472900390625,-3.1598113538771866,-0.4672857955768704,-0.19461714769303798
1772701769689521700,8.506521728515626,-1.7225222960203885,-0.21702771694362163,-0.9481395132571458
1772701769699571000,8.516571044921875,-0.33524142391383643,0.02842179236412048,-1.9429472541868686
1772701769709618700,8.52661865234375,1.2687293114840983,0.07745002716630697,-2.81985225379169
1772701769719668000,8.53666796875,2.757320102033019,0.021372604504972696,-3.4893268013596535
1772701769729715700,8.5467158203125,3.8840526798993347,-0.17289664306584746,-3.7488960214346645
1772701769739765000,8.556764892578125,4.833174189931154,-0.35476452809460457,-3.5464679077297445
1772701769749812700,8.566812744140625,5.322625347825885,-0.28001904717925935,-3.4534921023905274
1772701769759862000,8.576862060546874,5.917707209971547,-0.0695364958290942,-3.3176398628771304
1772701769769910800,8.586910888671875,6.408606228587031,0.20975578971188513,-3.432579078221321
1772701769779959000,8.596958984375,6.5206579057961696,0.12448648536307737,-3.350585854667425
1772701769790007800,8.6070078125,6.400545671728253,-0.008303845829050988,-3.5934377486974
1772701769800056000,8.61705615234375,6.28281302627325,0.10873298111520707,-4.053792575967312
1772701769810104800,8.627104736328125,6.0409039660513395,0.4326245243012905,-4.6230368170231575
1772701769820153000,8.637153076171876,5.571606538391113,0.7344315883859992,-5.079076119181513
1772701769830201900,8.647201904296875,5.062276960071921,0.8083033186741173,-5.417932226461172
1772701769840251000,8.6572509765625,4.695438036367297,0.6285219210632145,-5.647427210789918
1772701769850299000,8.667298828125,4.669101233583689,0.2941860311543569,-5.659484143808483
1772701769860348000,8.677347900390625,4.5824984704077245,0.03159355426803231,-5.573279440039396
1772701769870396000,8.68739599609375,4.253415569123625,-0.1667719131078571,-5.459416914016008
1772701769880445000,8.69744482421875,4.040388319993019,-0.155188771613501,-5.193652930954098
1772701769890493000,8.707492919921876,4.096797020435333,-0.03293671250529587,-4.3875563285440204
1772701769900542000,8.7175419921875,4.118614884489775,0.04785871609877795,-3.5383985830426212
1772701769910590000,8.72758984375,3.881149944195151,0.14493501555938273,-2.801039416772127
1772701769920638700,8.737638671875,3.5967104867577553,0.3604770970551297,-2.272171609768271
1772701769930688000,8.74768798828125,3.187297326695919,0.5739314490240067,-1.8082582132339478
1772701769940735700,8.75773583984375,2.6247651504993437,0.6105888990854844,-1.2092723293870686
1772701769950785000,8.767784912109375,1.8113731303840874,0.6232149006962776,-0.5305564907431602
1772701769960832800,8.777832763671874,0.8728659533470868,0.6868260798633098,-0.08011690828800201
1772701769970882000,8.787882080078125,-0.08799275622963905,0.7275923900157213,0.2458335401892662
1772701769980929800,8.7979296875,-0.6813041015714406,0.48568745797965673,0.9015086949855089
1772701769990979000,8.80797900390625,-0.6685387280225753,0.11065901727434248,1.3312602941989897
1772701770001027800,8.81802783203125,-1.092041203713417,0.09502455456256866,1.6707418399006126
1772701770011076000,8.828076171875,-2.047319482809305,0.28904844907019284,2.289355968803167
1772701770021124900,8.838124755859376,-3.4923943722367286,0.6754881087690592,3.031457361164689
1772701770031172900,8.8481728515625,-5.642903011363744,1.1454445848599075,3.25029475787878
1772701770041222000,8.858221923828125,-7.662171288686991,1.4692080446869134,3.8099037401050326
1772701770051270000,8.868269775390624,-9.490821132564545,1.1355528670512138,4.979954650694132
1772701770061319000,8.87831884765625,-11.585254248726367,0.7516501419514418,6.500845536345243
1772701770071368000,8.888367919921874,-13.594708403521775,0.9636118076771497,8.22523830241263
1772701770081416000,8.898416015625,-15.166736771214007,1.168660186883062,10.25693526867628
1772701770091465000,8.90846484375,-16.033635340589285,1.3872712274953722,11.77680674815178
1772701770101513000,8.918512939453125,-15.774372994506358,1.1421886518038809,12.027657824242114
1772701770111562000,8.92856201171875,-15.196538035237788,0.22636107021719215,11.163147611308098
1772701770121610000,8.93860986328125,-14.851741431993245,-0.24852416751272974,10.504419498682022
1772701770131658800,8.94865869140625,-14.772275681090354,0.25106314793843776,10.37486139087677
1772701770141707800,8.958707763671875,-15.08900003606081,0.8073434606660157,10.798139410161971
1772701770151755800,8.968755859375,-15.162369223654268,1.1471245007708668,11.325303335857392
1772701770161804800,8.9788046875,-14.8949820233047,1.4936829991213976,11.606947025096416
1772701770171852800,8.988852783203125,-14.638401463651656,1.637981579940766,11.630479876375198
1772701770181901800,8.99890185546875,-13.614443031561374,1.3711620964765547,10.616965681409836
1772701770191949800,9.00894970703125,-10.99389111484289,0.6138447225436567,8.785878965774177
1772701770201997800,9.018997802734376,-7.2326242721349,-0.18928170494921503,6.744710991331934
1772701770212046800,9.029046875,-3.5483149969011545,-0.23896933524189515,4.7731379466414445
1772701770222094800,9.0390947265625,-0.07213876901566982,-0.06883103270716964,2.947954902091622
1772701770232144000,9.049143798828124,3.2925147739708422,-0.07481145882364362,0.9778501763880252
1772701770242192000,9.05919189453125,6.275464417076111,-0.176470336834155,-1.1421224546998738
1772701770252241000,9.069240966796874,8.899646799251437,-0.3462349289519712,-2.9074574720084665
1772701770262289000,9.079288818359375,10.848331135785578,-0.6960907518148421,-3.923569866773486
1772701770272338000,9.089337890625,12.168070503538846,-0.8044499311815947,-5.063152573862672
1772701770282386000,9.099385986328125,13.391017722535132,-0.532339501702413,-6.378653573393821
1772701770292435000,9.10943505859375,14.855343255877495,-0.14811918028714136,-7.69932349999547
1772701770302483700,9.119483642578125,15.933385160332918,-0.05173181293876841,-9.115081694045662
1772701770312531700,9.12953173828125,16.29030007139444,-0.15434685916295274,-10.432661253416537
1772701770322580700,9.139580810546875,16.565584162473677,-0.0003724500415846705,-11.513149966502189
1772701770332628700,9.149628662109375,16.405923177349568,0.13020871720109134,-11.990975568532942
1772701770342677800,9.159677734375,15.941527550256252,0.20008427225882186,-12.307189051371813
1772701770352725800,9.169725830078125,14.786714540809392,0.5860384317293763,-11.89239712088108
1772701770362774800,9.17977490234375,12.954735260248183,0.747277187564224,-9.026566959768534
1772701770372823800,9.18982373046875,11.37769520187378,0.7142381106629967,-8.11331872715056
1772701770382871800,9.199871826171876,10.45119293540716,0.8023574889469891,-7.577165439313649
1772701770392920800,9.2099208984375,9.773597040703892,0.809929312440753,-7.143018820011616
1772701770402968800,9.21996875,9.087509211987257,0.9011365006722509,-6.790228295403718
1772701770413017900,9.230017822265625,8.277918337720632,1.1192943906895816,-6.291936828449368
1772701770423065900,9.24006591796875,7.33635644928813,1.2196548994526266,-5.743357189759612
1772701770433115000,9.250114990234374,6.635171004682779,1.0321763714678585,-5.293467642402649
1772701770443164000,9.260163818359375,6.041851476034521,0.7680955191873013,-5.0345975105077025
1772701770453212000,9.2702119140625,5.320219455727934,0.5575357561487704,-4.8197465530812735
1772701770463261000,9.280260986328125,4.242652767568827,0.7037577793113887,-4.699575282302498
1772701770473309000,9.290308837890626,2.977572626242041,1.128283606700599,-4.848689738970995
1772701770483358000,9.30035791015625,2.443172904074192,1.4091468130864202,-5.1971477873325345
1772701770493405700,9.31040576171875,2.411466098690033,1.3768499328546224,-5.235639722812175
1772701770503455000,9.320455078125,2.6641619258642195,1.1431327277209609,-5.431371553748845
1772701770513502700,9.330502685546875,3.7940111744463443,0.6821614490531385,-5.299520366570353
1772701770523551700,9.3405517578125,4.270097239333391,0.29711174587532874,-5.01011422663629
1772701770533600800,9.350600830078125,4.592038452169299,-0.20177922134213147,-4.716014375928044
1772701770543648800,9.360648681640624,4.534026408183575,-0.516856101366505,-4.370247466346621
1772701770553697800,9.37069775390625,4.4641795494973655,-0.561048805771023,-3.746448043760657
1772701770563745800,9.380745849609376,4.387987121176719,-0.22385778215937316,-2.9134868153005837
1772701770573794800,9.390794921875,4.208032705086469,-0.04863185589574277,-2.0474153443992136
1772701770583843600,9.400843505859376,3.699889121681452,-0.25916692288443444,-1.28532505697608
1772701770593891800,9.410891845703125,2.636258604416251,-0.1615169882543385,-0.4622077616602182
1772701770603940600,9.420940673828126,0.5726338834941387,0.46792336282804603,0.8878244530260563
1772701770613988900,9.43098876953125,-2.9933973873615263,1.5934261066384612,3.337145942857861
1772701770624037600,9.44103759765625,-7.128401096594334,3.0885236487329006,6.866128462779521
1772701770634086000,9.4510859375,-11.472702220779656,4.493925283941627,9.762221075686812
1772701770644134700,9.461134765625,-15.20856515763998,5.111949630257487,9.92274423059821
1772701770654183000,9.471182861328124,-17.10003590708971,5.105768311274051,9.543411736023426
1772701770664231700,9.481231689453125,-17.04394752464294,5.827184643003344,10.234456894886494
1772701770674281000,9.491281005859374,-14.718887789773941,6.092800157505273,11.151901410150527
1772701770684328700,9.50132861328125,-11.99741699975729,5.39100564109087,11.778393140560388
1772701770694378000,9.5113779296875,-10.700912377119064,4.872958795569837,11.996869887268543
1772701770704425700,9.52142578125,-9.119735072809457,4.2358550702527165,10.066729507684707
1772701770714475000,9.53147509765625,-9.22236016550362,4.37885718152076,7.768098930057882
1772701770724523800,9.541523681640625,-9.700205641278624,4.531325040270388,5.096552154639363
1772701770734572000,9.551572021484375,-8.850437070402503,3.508279631371796,2.0366320845782755
1772701770744620800,9.561620849609374,-6.11882248751223,2.040153536702692,0.7287953360646963
1772701770754668800,9.571668701171875,-3.961507675501704,0.18166677296608685,-0.10781155542135239
1772701770764717800,9.5817177734375,-2.3496003018856046,-1.3848612437441945,-0.94712478325665
1772701770774765800,9.591765869140625,-0.8216343632817268,-1.9259642629429696,-1.9288386493355034
1772701770784814800,9.60181494140625,0.7810463323056698,-2.0950611849322915,-2.4793027865976094
1772701770794863900,9.61186376953125,2.593695473974943,-2.408383037982881,-3.068175272709131
1772701770804911900,9.621911865234376,3.8475814365923404,-2.581407070288062,-3.3415491462528704
1772701770814960600,9.631960693359375,4.4010278045356275,-2.6104534242913124,-2.8446628699213266
1772701770825009000,9.6420087890625,4.84079226371944,-2.290253794425726,-2.434776831650734
1772701770835057700,9.6520576171875,4.924748896300793,-1.6924579971462488,-2.276098427823186
1772701770845106000,9.66210595703125,4.511885303524136,-1.0361556503623723,-1.8689438603430986
1772701770855154700,9.67215478515625,4.1210675383389,-0.7659200748443603,-1.7437287501782177
1772701770865204000,9.682203857421875,3.609303426349163,-0.9721239076957106,-1.7780249875336884
1772701770875251700,9.692251708984376,1.5712147132217884,-1.5353358828499912,-2.2807219959706067
1772701770885301000,9.702301025390625,0.08133154477477073,-1.372021343654394,-2.313826977714896
1772701770895348700,9.7123486328125,-0.31806933983862395,-0.7822773354053497,-2.112885303175449
1772701770905398000,9.72239794921875,0.03206862443387508,-0.4770987490609288,-1.9109733222991228
1772701770915446800,9.73244677734375,0.19860066437125204,-0.3994014691352844,-1.467093829011917
1772701770925494800,9.742494873046875,-0.24804069484472274,0.17597089941203592,-0.7762187660187483
1772701770935543800,9.752543701171875,-0.9507803831547498,0.9484346968114375,-0.15858838745653628
1772701770945591800,9.762591796875,-1.4765665907561778,1.3455989084139466,0.27486966505944727
1772701770955640800,9.772640869140625,-1.7960329379111528,1.2666539665147662,0.5094792159229516
1772701770965688800,9.782688720703124,-2.1227543707609176,1.3338117322474716,0.5972504383563995
1772701770975737900,9.79273779296875,-2.288595505824685,1.4498159464746714,0.669917615160346
1772701770985787000,9.802786865234374,-1.9238304657846688,1.219512860633433,0.7497247268468141
1772701770995835000,9.8128349609375,-1.3625959281831979,0.8564303668528794,0.8393143968790769
1772701771005884000,9.8228837890625,-0.9443547340214252,0.5615533942922949,1.0648720417588948
1772701771015932000,9.832931884765625,-0.7593477107167244,0.2967915740102529,1.1754431250214576
1772701771025980700,9.842980712890625,-0.6116653326779603,0.05324468345344066,1.0975275261700153
1772701771036029000,9.85302880859375,-0.6113631348609924,-0.04992547590285539,0.8809376161217689
1772701771046077700,9.86307763671875,-0.7389251004129648,0.014040215790271758,0.4970809221208095
1772701771056126700,9.873126708984374,-0.9704746791839599,-0.010452128170430659,0.10251987875401973
1772701771066174700,9.8831748046875,-1.0271686263084412,-0.28450083223581313,-0.2683808875620365
1772701771076223700,9.8932236328125,-0.7938847710907458,-0.5234422748237848,-0.4350976364165544
1772701771086271700,9.903271728515625,-0.4250771776616573,-0.4145344485983252,-0.5198977340847254
1772701771096320800,9.91332080078125,-0.02058627643287182,-0.31582945195734496,-0.6500175674259662
1772701771106368800,9.92336865234375,0.456508673235774,-0.31470044792741536,-0.7338409290164709
1772701771116417800,9.933417724609376,0.8201105147153138,-0.2412280922204256,-0.8720692500114441
1772701771126466800,9.943466796875,0.9869354001194238,0.008616437175869941,-0.9515911150157451
1772701771136514800,9.953514892578125,1.2086790396690368,0.06667348934710025,-0.8155605963259935
1772701771146563800,9.963563720703124,1.3437287306278942,0.0764051942884922,-0.4456155232995748
1772701771156611800,9.97361181640625,1.2348814024180172,0.15566577800810336,-0.18203940567076204
1772701771166660900,9.983660888671874,0.9440051899313926,0.09881576353907584,0.08754267437458038
1772701771176708900,9.993708984375,0.6514601674497127,-0.07799450930655003,0.2847591909110546
1772701771186758000,10.0037578125,0.3959861077338457,-0.08298281911313533,0.27462533490955826
1772701771196807000,10.013806884765625,0.04431669611036777,-0.1859276452809572,0.3463835801750421
1772701771206855000,10.02385498046875,-0.4103209225565195,-0.2485001290500164,0.295375861993432
1772701771216903700,10.033903564453125,-0.7869114249467849,-0.13631371954530477,0.09603402386605739
1772701771226952000,10.043951904296875,-0.6940455097228289,-0.06616378625929355,-0.18838848243653772
1772701771237000700,10.054000732421875,-0.32257892621755596,-0.14340952302515506,-0.1466021815866232
1772701771247049700,10.0640498046875,0.17502572751641274,-0.311168766669929,0.0017886369824409484
1772701771257097700,10.07409765625,0.5503542471468448,-0.27817659765034913,0.19477438408136366
1772701771267146800,10.084146728515625,0.5043307471185923,-0.2146095498859882,0.34646249063014983
1772701771277194800,10.09419482421875,0.281796833974123,-0.20889701745808123,0.3158598470956087
1772701771287243800,10.104243896484375,0.053232408493757245,-0.09537877482771873,0.303953136202693
1772701771297291800,10.114291748046876,-0.0834288093149662,-0.05731763198077678,0.3453197503358125
1772701771307340800,10.1243408203125,-0.1124772091448307,-0.011544891843199729,0.32999767804145813
1772701771317389800,10.134389892578126,-0.18003098845779894,-0.10576572880744933,0.33686171859204767
1772701771327437800,10.144437744140625,-0.0843044231057167,-0.18802081816792487,0.27113749279379845
1772701771337486800,10.15448681640625,-0.08171849826574325,-0.10617693995684385,0.06150047062337398
1772701771347534800,10.164534912109374,-0.15046411771178245,-0.07018646590411663,-0.08728490022122859
1772701771357584000,10.174583984375,-0.13543956705927848,-0.14519143800586462,-0.13356325179338455
1772701771367631600,10.184631591796874,-0.029721769046783447,-0.11814619469195603,-0.08965279839634895
1772701771377681000,10.194680908203125,-0.009682020580768584,-0.11731792717427014,0.012713935622572899
1772701771387730000,10.20472998046875,-0.036793314868211746,-0.1255544251218438,0.05826280387639999
1772701771397778000,10.21477783203125,-0.06954875252246856,-0.06327157194912433,-0.03980184903442859
1772701771407826700,10.22482666015625,-0.07787526684105396,-0.018610300184786318,-0.19176994156837462
1772701771417874700,10.234874755859375,-0.16818565236330033,0.050642099739611146,-0.2238122625172138
1772701771427923700,10.244923828125,-0.2268576215624809,0.0056380058869719505,-0.19768062691688537
1772701771437972700,10.25497265625,-0.2612228325009346,0.04947510178685188,-0.09237316327095031
1772701771448020700,10.265020751953125,-0.19125906943678855,-0.010191869799047707,0.09388356783390045
1772701771458069800,10.27506982421875,0.02598492060601711,-0.17931757949143648,0.10775953297317027
1772701771468117800,10.28511767578125,0.1972825675100088,-0.11102233416140078,-0.04639467142820358
1772701771478166800,10.295166748046874,0.11893851411342621,-0.051294572298973794,-0.11807108362913131
1772701771488214800,10.30521484375,0.058876551860570905,0.09892433848008512,-0.17236849100589752
1772701771498263800,10.315263916015626,0.15598375791609287,0.25543153574839234,-0.24138299052119253
1772701771508312600,10.3253125,0.5298410359501838,0.1288946754604578,-0.2937427078336477
1772701771518360800,10.33536083984375,1.4070973332107066,0.017323036853224037,-0.3657850307375192
1772701771528409600,10.34540966796875,0.26156477780640125,-0.1364900990255177,-0.12504559881687163
1772701771538457900,10.355457763671875,-0.5437380438774824,-0.3223619224660098,0.05364975712299347
1772701771548506600,10.365506591796875,-1.04539168074131,-0.004586743268370628,-0.04036883526742458
1772701771558555000,10.375554931640625,-0.6842571061581373,0.19001608363837003,-0.04096270950734615
1772701771568603600,10.385603759765624,-0.32493688752055166,0.15772899414822458,0.1333043085962534
1772701771578653000,10.39565283203125,0.09067804979085922,0.07350947284698486,0.24608371555805206
1772701771588700700,10.40570068359375,0.5350654926002025,0.13577829749435186,0.21532851181030271
