time,seconds_elapsed,z,y,x
1772701761232427800,0.049427734375,-0.6649932861328125,0.084808349609375,0.7244110107421875
1772701761242476800,0.059476806640625,-0.6611480712890625,0.0778350830078125,0.7186737060546875
1772701761252524800,0.06952490234375,-0.6634674072265625,0.0742340087890625,0.7170257568359375
1772701761262573800,0.07957373046875,-0.66949462890625,0.0708770751953125,0.719085693359375
1772701761272621800,0.089621826171875,-0.6749420166015625,0.0697479248046875,0.725128173828125
1772701761282670800,0.0996708984375,-0.6790924072265625,0.0707550048828125,0.730682373046875
1772701761292718800,0.10971875,-0.6819915771484375,0.0666961669921875,0.7347412109375
1772701761302767900,0.119767822265625,-0.681182861328125,0.06939697265625,0.7361297607421875
1772701761312815600,0.129815673828125,-0.6838226318359375,0.0743408203125,0.733673095703125
1772701761322865000,0.139864990234375,-0.688232421875,0.0786285400390625,0.7291259765625
1772701761332912600,0.14991259765625,-0.692230224609375,0.081939697265625,0.724029541015625
1772701761342961700,0.159961669921875,-0.6956329345703125,0.0877532958984375,0.724700927734375
1772701761353009700,0.170009765625,-0.6998748779296875,0.0872650146484375,0.72607421875
1772701761363058700,0.18005859375,-0.6970977783203125,0.0801239013671875,0.7279510498046875
1772701761373106700,0.190106689453125,-0.6936492919921875,0.08038330078125,0.730804443359375
1772701761383155700,0.20015576171875,-0.69805908203125,0.0791778564453125,0.7279510498046875
1772701761393203700,0.21020361328125,-0.69512939453125,0.0781097412109375,0.7190704345703125
1772701761403252700,0.220252685546875,-0.694183349609375,0.07733154296875,0.71124267578125
1772701761413300700,0.23030078125,-0.6960296630859375,0.0720062255859375,0.712493896484375
1772701761423349800,0.240349853515625,-0.695281982421875,0.0712890625,0.716064453125
1772701761433397800,0.250397705078125,-0.6861419677734375,0.0742645263671875,0.7097930908203125
1772701761443446800,0.26044677734375,-0.680023193359375,0.07550048828125,0.700836181640625
1772701761453494800,0.270494873046875,-0.674774169921875,0.07330322265625,0.6992950439453125
1772701761463543800,0.280543701171875,-0.665008544921875,0.0695953369140625,0.6976165771484375
1772701761473591800,0.290591796875,-0.6557159423828125,0.065887451171875,0.6892242431640625
1772701761483640600,0.300640625,-0.6469573974609375,0.061370849609375,0.6809844970703125
1772701761493688800,0.310688720703125,-0.636932373046875,0.05224609375,0.675506591796875
1772701761503737600,0.320737548828125,-0.623291015625,0.0361175537109375,0.6726226806640625
1772701761513785900,0.330785888671875,-0.6115875244140625,0.0199127197265625,0.6712646484375
1772701761523834600,0.340834716796875,-0.5939483642578125,0.0152740478515625,0.6664886474609375
1772701761533883000,0.3508828125,-0.5820770263671875,0.0345916748046875,0.655670166015625
1772701761543931600,0.360931640625,-0.57391357421875,0.0453643798828125,0.645111083984375
1772701761553980000,0.37097998046875,-0.573455810546875,0.0367584228515625,0.6232452392578125
1772701761564028700,0.381028564453125,-0.57867431640625,0.0197906494140625,0.593048095703125
1772701761574077000,0.391076904296875,-0.57916259765625,-0.003265380859375,0.5624237060546875
1772701761584125700,0.401125732421875,-0.5895843505859375,-0.0140838623046875,0.539794921875
1772701761594173700,0.411173583984375,-0.6142425537109375,-0.0175628662109375,0.536651611328125
1772701761604222700,0.42122265625,-0.61676025390625,-0.0304412841796875,0.5518341064453125
1772701761614270700,0.431270751953125,-0.6021270751953125,-0.0269317626953125,0.57635498046875
1772701761624319700,0.44131982421875,-0.5726776123046875,-0.0079803466796875,0.5970001220703125
1772701761634367700,0.45136767578125,-0.54119873046875,0.0011749267578125,0.60308837890625
1772701761644416800,0.461416748046875,-0.5096588134765625,0.028045654296875,0.6019134521484375
1772701761654464800,0.47146484375,-0.486175537109375,0.0718536376953125,0.584564208984375
1772701761664513800,0.481513671875,-0.455780029296875,0.123016357421875,0.5614471435546875
1772701761674561800,0.491561767578125,-0.4357147216796875,0.1640472412109375,0.54656982421875
1772701761684610800,0.50161083984375,-0.4448394775390625,0.1565093994140625,0.5654754638671875
1772701761694658800,0.511658935546875,-0.38238525390625,0.0830535888671875,0.6353607177734375
1772701761704707800,0.521707763671875,-0.3660736083984375,0.084259033203125,0.6593780517578125
1772701761714755800,0.531755859375,-0.385223388671875,0.1087646484375,0.6467437744140625
1772701761724804900,0.541804931640625,-0.424591064453125,0.2266998291015625,0.619049072265625
1772701761734852900,0.551852783203125,-0.49853515625,0.2946624755859375,0.6167755126953125
1772701761744902000,0.56190185546875,-0.6007537841796875,0.275390625,0.666900634765625
1772701761754950000,0.571949951171875,-0.7115936279296875,0.2278900146484375,0.72576904296875
1772701761764998700,0.58199853515625,-0.8241729736328125,0.15325927734375,0.7867431640625
1772701761775047000,0.592046875,-0.91558837890625,0.07159423828125,0.834014892578125
1772701761785095700,0.602095703125,-0.99078369140625,-0.01275634765625,0.8573150634765625
1772701761795144000,0.61214404296875,-1.0900115966796875,-0.0092010498046875,0.935699462890625
1772701761805192700,0.622192626953125,-1.2021484375,0.1397247314453125,1.06817626953125
1772701761815241000,0.632240966796875,-1.356170654296875,0.342376708984375,1.25115966796875
1772701761825289700,0.642289794921875,-1.58538818359375,0.589324951171875,1.4678955078125
1772701761835338000,0.652337890625,-2.01837158203125,0.83026123046875,1.8107452392578125
1772701761845386800,0.66238671875,-2.5108642578125,0.99273681640625,2.31085205078125
1772701761855435000,0.67243505859375,-2.6878509521484375,0.900665283203125,2.4961700439453125
1772701761865483800,0.68248388671875,-2.590484619140625,0.6375885009765625,2.1346282958984375
1772701761875531800,0.69253173828125,-2.449859619140625,0.5621490478515625,1.8754119873046875
1772701761885580800,0.702580810546875,-2.2991180419921875,0.5728607177734375,1.562591552734375
1772701761895628800,0.71262890625,-2.1318817138671875,0.5484771728515625,1.2655181884765625
1772701761905677800,0.722677734375,-1.7226409912109375,0.4575653076171875,1.1029052734375
1772701761915725800,0.732725830078125,-1.261962890625,0.36004638671875,0.9914093017578125
1772701761925774800,0.74277490234375,-0.9152374267578125,0.2735748291015625,0.8492431640625
1772701761935822800,0.75282275390625,-0.6172637939453125,0.1778411865234375,0.709686279296875
1772701761945872000,0.762871826171875,-0.36566162109375,0.0806427001953125,0.5888824462890625
1772701761955919600,0.772919677734375,-0.1335906982421875,0.0221710205078125,0.4567108154296875
1772701761965969000,0.782968994140625,0.075225830078125,0.016510009765625,0.3365478515625
1772701761976016600,0.7930166015625,0.2659149169921875,0.059295654296875,0.21356201171875
1772701761986066000,0.80306591796875,0.4127044677734375,0.09893798828125,0.101165771484375
1772701761996113700,0.81311376953125,0.522735595703125,0.0997314453125,0.020751953125
1772701762006163000,0.823162841796875,0.5848846435546875,0.060638427734375,-0.078521728515625
1772701762016210700,0.833210693359375,0.5649871826171875,0.00250244140625,-0.175750732421875
1772701762026259700,0.843259765625,0.5112152099609375,-0.0609893798828125,-0.2188262939453125
1772701762036307700,0.8533076171875,0.490020751953125,-0.1136627197265625,-0.24468994140625
1772701762046356700,0.863356689453125,0.491363525390625,-0.1319580078125,-0.2465972900390625
1772701762056404700,0.87340478515625,0.5517425537109375,-0.150390625,-0.2348480224609375
1772701762066453800,0.883453857421875,0.5868072509765625,-0.1604766845703125,-0.2022857666015625
1772701762076501800,0.893501708984375,0.5354461669921875,-0.140899658203125,-0.1680145263671875
1772701762086550800,0.90355078125,0.428192138671875,-0.0864105224609375,-0.1068115234375
1772701762096598800,0.913598876953125,0.388397216796875,-0.045684814453125,-0.0421295166015625
1772701762106647800,0.923647705078125,0.3019866943359375,0.0030059814453125,-0.0064697265625
1772701762116695800,0.93369580078125,0.241485595703125,0.04931640625,0.036285400390625
1772701762126744800,0.943744873046875,0.1678924560546875,0.084442138671875,0.083587646484375
1772701762136792600,0.95379248046875,0.0950164794921875,0.112457275390625,0.131561279296875
1772701762146841900,0.963841796875,0.0394134521484375,0.1329345703125,0.18218994140625
1772701762156889600,0.9738896484375,-0.0360107421875,0.141571044921875,0.23553466796875
1772701762166939000,0.98393896484375,-0.1045989990234375,0.14501953125,0.300933837890625
1772701762176986600,0.993986572265625,-0.174560546875,0.13800048828125,0.3802337646484375
1772701762187036000,1.004035888671875,-0.2547454833984375,0.111236572265625,0.5001373291015625
1772701762197083400,1.01408349609375,-0.3730926513671875,0.05499267578125,0.672027587890625
1772701762207132400,1.02413232421875,-0.68585205078125,-0.0323333740234375,0.89691162109375
1772701762217180400,1.034180419921875,-1.189788818359375,-0.040740966796875,1.3459930419921875
1772701762227229400,1.0442294921875,-1.9937591552734375,0.1458740234375,2.7865447998046875
1772701762237277400,1.05427734375,-3.2247772216796875,0.58795166015625,3.6844635009765625
1772701762247326500,1.064326416015625,-3.7127838134765625,0.6843719482421875,3.0233154296875
1772701762257374200,1.074374267578125,-3.861541748046875,0.578765869140625,2.038055419921875
1772701762267423500,1.084423583984375,-3.8062286376953125,0.15380859375,1.1073455810546875
1772701762277471200,1.09447119140625,-2.9669189453125,0.0451202392578125,0.992340087890625
1772701762287520500,1.1045205078125,-2.212890625,0.19451904296875,0.833526611328125
1772701762297568300,1.114568359375,-1.64276123046875,0.4414825439453125,0.788116455078125
1772701762307617500,1.124617431640625,-1.22772216796875,0.382293701171875,0.4492034912109375
1772701762317665300,1.134665283203125,-0.982940673828125,-0.091949462890625,-0.3125762939453125
1772701762327714600,1.144714599609375,-0.8190155029296875,-0.3802490234375,-0.5961456298828125
1772701762337762300,1.15476220703125,-0.65106201171875,-0.400238037109375,-0.7010040283203125
1772701762347811600,1.1648115234375,-0.594512939453125,-0.230560302734375,-0.3947601318359375
1772701762357859300,1.174859375,-0.6486053466796875,-0.0576934814453125,-0.20001220703125
1772701762367908400,1.184908447265625,-0.4843597412109375,0.0156097412109375,-0.10504150390625
1772701762377956400,1.194956298828125,-0.271148681640625,0.00030517578125,0.054046630859375
1772701762388005400,1.20500537109375,-0.2357330322265625,-0.0196990966796875,0.2750396728515625
1772701762398053400,1.215053466796875,-0.2497100830078125,0.0098419189453125,0.398193359375
1772701762408102400,1.225102294921875,-0.24420166015625,0.0959320068359375,0.3123779296875
1772701762418150400,1.235150390625,-0.2219696044921875,0.1649169921875,0.2686309814453125
1772701762428199200,1.24519921875,-0.0843505859375,0.198089599609375,0.26312255859375
1772701762438247400,1.255247314453125,0.06463623046875,0.205596923828125,0.247650146484375
1772701762448296200,1.265296142578125,0.1242218017578125,0.1593475341796875,0.2824554443359375
1772701762458344400,1.275344482421875,0.10528564453125,0.0879974365234375,0.30609130859375
1772701762468393200,1.285393310546875,0.0549163818359375,0.038543701171875,0.36492919921875
1772701762478441500,1.29544140625,0.0014801025390625,0.023162841796875,0.462158203125
1772701762488490200,1.305490234375,-0.0476226806640625,0.04473876953125,0.57098388671875
1772701762498538500,1.31553857421875,-0.1603240966796875,0.117156982421875,0.736724853515625
1772701762508587300,1.325587158203125,-0.3417816162109375,0.18511962890625,0.9779510498046875
1772701762518635500,1.335635498046875,-0.617584228515625,0.244873046875,1.1623687744140625
1772701762528684300,1.345684326171875,-1.17529296875,0.318817138671875,1.22576904296875
1772701762538732300,1.355732177734375,-1.5859375,0.376953125,1.1410675048828125
1772701762548781300,1.36578125,-1.817291259765625,0.340423583984375,0.9468231201171875
1772701762558829300,1.375829345703125,-1.6571044921875,0.22900390625,0.8596649169921875
1772701762568878300,1.38587841796875,-1.3550872802734375,0.1197662353515625,0.776519775390625
1772701762578926300,1.39592626953125,-1.1492919921875,0.004058837890625,0.663665771484375
1772701762588975400,1.405975341796875,-0.956512451171875,-0.0337677001953125,0.54559326171875
1772701762599023400,1.4160234375,-0.783050537109375,-0.0036773681640625,0.435302734375
1772701762609072400,1.426072265625,-0.7001190185546875,0.03875732421875,0.3427886962890625
1772701762619120400,1.436120361328125,-0.6909942626953125,-0.0050201416015625,0.367828369140625
1772701762629169400,1.44616943359375,-0.6608123779296875,-0.016510009765625,0.408935546875
1772701762639217400,1.456217529296875,-0.594268798828125,0.0269622802734375,0.45111083984375
1772701762649266400,1.466266357421875,-0.5376434326171875,0.0755767822265625,0.464599609375
1772701762659314400,1.476314453125,-0.5133819580078125,0.1042327880859375,0.4627685546875
1772701762669363500,1.486363525390625,-0.5121612548828125,0.1118316650390625,0.43182373046875
1772701762679411500,1.496411376953125,-0.5182647705078125,0.0975341796875,0.398590087890625
1772701762689460500,1.50646044921875,-0.505126953125,0.0880126953125,0.3525390625
1772701762699509500,1.516509521484375,-0.4528045654296875,0.1011810302734375,0.3023681640625
1772701762709557200,1.52655712890625,-0.39013671875,0.1159210205078125,0.2848052978515625
1772701762719606300,1.536606201171875,-0.34857177734375,0.09716796875,0.2991180419921875
1772701762729654300,1.546654296875,-0.3388824462890625,0.075439453125,0.3262481689453125
1772701762739703300,1.556703369140625,-0.39520263671875,0.057891845703125,0.3826446533203125
1772701762749751300,1.566751220703125,-0.526947021484375,0.0429229736328125,0.4509124755859375
1772701762759800300,1.57680029296875,-0.7288055419921875,0.0352325439453125,0.54595947265625
1772701762769848300,1.586848388671875,-0.933746337890625,0.0263824462890625,0.6533355712890625
1772701762779897300,1.5968974609375,-1.109710693359375,0.070068359375,0.763946533203125
1772701762789945300,1.6069453125,-1.2831878662109375,0.13787841796875,0.9571533203125
1772701762799994400,1.616994384765625,-1.5078582763671875,0.194427490234375,1.1671295166015625
1772701762810042400,1.62704248046875,-1.806610107421875,0.2397308349609375,1.34246826171875
1772701762820091400,1.63709130859375,-2.17010498046875,0.223968505859375,1.4532318115234375
1772701762830139400,1.647139404296875,-2.4796600341796875,0.159454345703125,1.5878753662109375
1772701762840188400,1.6571884765625,-2.6041412353515625,0.188385009765625,1.73492431640625
1772701762850236400,1.667236328125,-2.5227508544921875,0.3065032958984375,1.766754150390625
1772701762860285400,1.677285400390625,-2.343017578125,0.3749847412109375,1.78375244140625
1772701762870333400,1.68733349609375,-2.2099456787109375,0.4300537109375,1.8448944091796875
1772701762880382200,1.69738232421875,-2.1262969970703125,0.544891357421875,1.883544921875
1772701762890430500,1.707430419921875,-2.0447540283203125,0.613983154296875,1.82440185546875
1772701762900479200,1.717479248046875,-1.940887451171875,0.59344482421875,1.6143646240234375
1772701762910527500,1.727527587890625,-1.748199462890625,0.4810028076171875,1.3550262451171875
1772701762920576300,1.737576171875,-1.4145355224609375,0.3946685791015625,1.1461944580078125
1772701762930624500,1.74762451171875,-0.999969482421875,0.336395263671875,0.972381591796875
1772701762940673300,1.75767333984375,-0.6052093505859375,0.2501220703125,0.7878570556640625
1772701762950721500,1.767721435546875,-0.259246826171875,0.113861083984375,0.6068878173828125
1772701762960770300,1.777770263671875,0.097259521484375,-0.087646484375,0.37677001953125
1772701762970818600,1.787818603515625,0.30145263671875,-0.2213287353515625,0.1529693603515625
1772701762980867300,1.797867431640625,0.264617919921875,-0.2425689697265625,0.028045654296875
1772701762990915300,1.807915283203125,0.229705810546875,-0.184326171875,0.046356201171875
1772701763000964400,1.81796435546875,0.310546875,-0.0979461669921875,0.1122283935546875
1772701763011012400,1.828012451171875,0.4017181396484375,-0.0269775390625,0.1417083740234375
1772701763021061400,1.838061279296875,0.4133148193359375,0.01800537109375,0.1345672607421875
1772701763031109400,1.848109375,0.408538818359375,0.0355224609375,0.0971221923828125
1772701763041158400,1.858158447265625,0.4179229736328125,0.0194549560546875,0.059661865234375
1772701763051206400,1.868206298828125,0.44927978515625,-0.0027923583984375,0.0345458984375
1772701763061255400,1.87825537109375,0.501556396484375,-0.0105438232421875,0.0096893310546875
1772701763071303400,1.888303466796875,0.5382232666015625,-0.0032501220703125,0.01080322265625
1772701763081352400,1.8983525390625,0.55377197265625,0.0269012451171875,0.0333709716796875
1772701763091400400,1.908400390625,0.5372314453125,0.0603485107421875,0.0449981689453125
1772701763101449500,1.918449462890625,0.4947967529296875,0.0796661376953125,0.0283355712890625
1772701763111497500,1.92849755859375,0.4200592041015625,0.0795135498046875,0.0146484375
1772701763121546500,1.93854638671875,0.3527679443359375,0.05316162109375,0.0126495361328125
1772701763131594500,1.948594482421875,0.3056640625,0.04266357421875,-0.0060272216796875
1772701763141643300,1.958643310546875,0.2791595458984375,0.032196044921875,-0.03411865234375
1772701763151691500,1.96869140625,0.2752838134765625,-0.0038909912109375,-0.0507049560546875
1772701763161740300,1.978740234375,0.282318115234375,-0.0365447998046875,-0.0473785400390625
1772701763171788500,1.98878857421875,0.294158935546875,-0.0369110107421875,-0.00152587890625
1772701763181837300,1.99883740234375,0.271759033203125,0.015228271484375,0.0910186767578125
1772701763191885800,2.0088857421875,0.17376708984375,0.0568389892578125,0.177734375
1772701763201934800,2.018934814453125,0.00885009765625,0.0419921875,0.2684173583984375
1772701763211982800,2.02898291015625,-0.1852264404296875,-0.0018463134765625,0.3819122314453125
1772701763222032000,2.039031982421875,-0.3758392333984375,-0.0202178955078125,0.6069183349609375
1772701763232080000,2.049079833984375,-0.684417724609375,-0.0605010986328125,0.9131927490234375
1772701763242129000,2.05912890625,-1.13134765625,-0.090911865234375,1.27789306640625
1772701763252177000,2.069177001953125,-1.576629638671875,-0.07537841796875,1.82781982421875
1772701763262226000,2.079225830078125,-2.4374542236328125,0.260955810546875,2.8599853515625
1772701763272275000,2.08927490234375,-3.8291473388671875,0.9256744384765625,3.6767578125
1772701763282323000,2.099322998046875,-4.052947998046875,0.7935791015625,3.132110595703125
1772701763292372000,2.1093720703125,-3.5873260498046875,0.5610809326171875,2.496490478515625
1772701763302420000,2.119419921875,-2.475738525390625,0.7473602294921875,1.6624755859375
1772701763312469000,2.129468994140625,-1.9334259033203125,0.514434814453125,1.29656982421875
1772701763322517000,2.13951708984375,-1.770477294921875,0.1709442138671875,1.144073486328125
1772701763332566000,2.14956591796875,-1.397125244140625,-0.037322998046875,0.8563232421875
1772701763342614000,2.159614013671875,-1.1466827392578125,-0.133209228515625,0.550384521484375
1772701763352662800,2.169662841796875,-1.0935211181640625,-0.1443023681640625,0.3043060302734375
1772701763362711000,2.1797109375,-1.0194091796875,-0.130706787109375,0.1244659423828125
1772701763372759800,2.189759765625,-0.83892822265625,-0.094818115234375,0.004638671875
1772701763382808000,2.19980810546875,-0.7333984375,-0.0583648681640625,0.0547332763671875
1772701763392856800,2.20985693359375,-0.6564178466796875,-0.0475311279296875,0.137603759765625
1772701763402905000,2.219905029296875,-0.5884857177734375,-0.040863037109375,0.18157958984375
1772701763412953900,2.229953857421875,-0.5092926025390625,-0.0378570556640625,0.2014007568359375
1772701763423002000,2.240002197265625,-0.4084014892578125,-0.0336761474609375,0.239044189453125
1772701763433051000,2.25005078125,-0.3042144775390625,-0.0142669677734375,0.3135223388671875
1772701763443099100,2.26009912109375,-0.237396240234375,0.019866943359375,0.3582305908203125
1772701763453148000,2.27014794921875,-0.1885986328125,0.061737060546875,0.3925018310546875
1772701763463196000,2.28019580078125,-0.17047119140625,0.09088134765625,0.4268035888671875
1772701763473245000,2.290244873046875,-0.1521759033203125,0.1132659912109375,0.4392242431640625
1772701763483293000,2.30029296875,-0.1581268310546875,0.14013671875,0.44061279296875
1772701763493342000,2.310342041015625,-0.172943115234375,0.15533447265625,0.4727020263671875
1772701763503390000,2.320389892578125,-0.1824493408203125,0.154998779296875,0.5088348388671875
1772701763513439000,2.33043896484375,-0.2287445068359375,0.1548309326171875,0.5576324462890625
1772701763523487000,2.340487060546875,-0.3032073974609375,0.149566650390625,0.6332550048828125
1772701763533536000,2.350535888671875,-0.342864990234375,0.1324310302734375,0.70672607421875
1772701763543583700,2.360583740234375,-0.361114501953125,0.110626220703125,0.7870635986328125
1772701763553633000,2.370633056640625,-0.4183349609375,0.1167449951171875,0.8842010498046875
1772701763563680800,2.3806806640625,-0.5416717529296875,0.1476593017578125,0.9817352294921875
1772701763573730000,2.39072998046875,-0.7042999267578125,0.158935546875,1.0409088134765625
1772701763583777800,2.40077783203125,-0.9611663818359375,0.16375732421875,1.046142578125
1772701763593827000,2.4108271484375,-1.254302978515625,0.1968536376953125,0.9815673828125
1772701763603874800,2.420874755859375,-1.2886810302734375,0.1890716552734375,0.8341064453125
1772701763613923800,2.430923828125,-1.0528411865234375,0.08404541015625,0.7074432373046875
1772701763623971800,2.440971923828125,-0.86138916015625,-0.042724609375,0.64056396484375
1772701763634020900,2.451020751953125,-0.775787353515625,-0.0740509033203125,0.573516845703125
1772701763644070000,2.46106982421875,-0.68408203125,-0.0297698974609375,0.511260986328125
1772701763654118000,2.471117919921875,-0.623199462890625,0.0688018798828125,0.477264404296875
1772701763664167000,2.4811669921875,-0.67608642578125,0.1280364990234375,0.49395751953125
1772701763674215000,2.49121484375,-0.7772369384765625,0.1045074462890625,0.5321197509765625
1772701763684264000,2.501263916015625,-0.7958984375,0.0951385498046875,0.544464111328125
1772701763694312000,2.51131201171875,-0.7505340576171875,0.1257781982421875,0.535675048828125
1772701763704361000,2.52136083984375,-0.6981048583984375,0.1612396240234375,0.52587890625
1772701763714409000,2.531408935546875,-0.6303863525390625,0.1495361328125,0.50445556640625
1772701763724458000,2.5414580078125,-0.5679779052734375,0.091552734375,0.471527099609375
1772701763734506000,2.551506103515625,-0.5195159912109375,0.041748046875,0.4352874755859375
1772701763744555000,2.561554931640625,-0.4998016357421875,0.0273895263671875,0.42181396484375
1772701763754603000,2.57160302734375,-0.4893646240234375,0.011749267578125,0.39923095703125
1772701763764652000,2.581652099609375,-0.4516143798828125,0.01898193359375,0.375335693359375
1772701763774700000,2.591699951171875,-0.39727783203125,0.070526123046875,0.3892669677734375
1772701763784748800,2.601748779296875,-0.340118408203125,0.115509033203125,0.43182373046875
1772701763794797000,2.611797119140625,-0.3171539306640625,0.12847900390625,0.4566497802734375
1772701763804845800,2.621845703125,-0.3320465087890625,0.10748291015625,0.4817962646484375
1772701763814894000,2.63189404296875,-0.36724853515625,0.07489013671875,0.4837799072265625
1772701763824942800,2.64194287109375,-0.371307373046875,0.0699615478515625,0.460784912109375
1772701763834991000,2.6519912109375,-0.3183441162109375,0.09271240234375,0.42950439453125
1772701763845039900,2.662039794921875,-0.27923583984375,0.1294403076171875,0.428192138671875
1772701763855087900,2.672087890625,-0.3039703369140625,0.1453857421875,0.49676513671875
1772701763865137000,2.682136962890625,-0.4561920166015625,0.161773681640625,0.616363525390625
1772701763875185000,2.692184814453125,-0.7178955078125,0.17779541015625,0.775482177734375
1772701763885234000,2.70223388671875,-0.9884490966796875,0.203826904296875,0.954742431640625
1772701763895281700,2.71228173828125,-1.353668212890625,0.2841949462890625,1.12091064453125
1772701763905331000,2.7223310546875,-1.72320556640625,0.40740966796875,1.2917938232421875
1772701763915378700,2.732378662109375,-2.0796661376953125,0.5298614501953125,1.4376068115234375
1772701763925428000,2.742427978515625,-2.3810577392578125,0.6015777587890625,1.58758544921875
1772701763935475700,2.752475830078125,-2.6157073974609375,0.5960540771484375,1.6860504150390625
1772701763945525000,2.76252490234375,-2.7527008056640625,0.540374755859375,1.7654876708984375
1772701763955572700,2.77257275390625,-2.7847900390625,0.4210052490234375,1.8266754150390625
1772701763965622000,2.7826220703125,-2.7484588623046875,0.2532958984375,1.8135528564453125
1772701763975670800,2.7926708984375,-2.5968780517578125,0.0722198486328125,1.746368408203125
1772701763985719000,2.802718994140625,-2.444061279296875,0.002410888671875,1.630584716796875
1772701763995767800,2.812767822265625,-2.19049072265625,0.0103759765625,1.527923583984375
1772701764005816000,2.822816162109375,-1.882080078125,0.0275726318359375,1.4493408203125
1772701764015864800,2.83286474609375,-1.6484222412109375,0.060211181640625,1.3921356201171875
1772701764025913000,2.8429130859375,-1.515380859375,0.0538787841796875,1.2874298095703125
1772701764035961900,2.8529619140625,-1.3338775634765625,0.06365966796875,1.1083526611328125
1772701764046010000,2.863010009765625,-1.093231201171875,0.0709381103515625,0.920684814453125
1772701764056059000,2.873058837890625,-0.8758544921875,0.056365966796875,0.7489013671875
1772701764066107000,2.88310693359375,-0.6454010009765625,0.05743408203125,0.6268310546875
1772701764076156000,2.893156005859375,-0.364990234375,0.0819854736328125,0.522125244140625
1772701764086204000,2.903203857421875,-0.09442138671875,0.0746307373046875,0.4224700927734375
1772701764096253000,2.9132529296875,0.12091064453125,0.0299530029296875,0.31573486328125
1772701764106301000,2.923301025390625,0.2873382568359375,-0.032196044921875,0.1874847412109375
1772701764116350000,2.933349853515625,0.3773651123046875,-0.0652313232421875,0.0607147216796875
1772701764126398000,2.94339794921875,0.3831939697265625,-0.0699920654296875,-0.0289154052734375
1772701764136447000,2.953447021484375,0.3643951416015625,-0.0626373291015625,-0.0946807861328125
1772701764146495000,2.963494873046875,0.373291015625,-0.030029296875,-0.137725830078125
1772701764156544000,2.9735439453125,0.434600830078125,-0.0496826171875,-0.162322998046875
1772701764166592000,2.983592041015625,0.4938201904296875,-0.0880584716796875,-0.1246185302734375
1772701764176641000,2.99364111328125,0.56329345703125,-0.078216552734375,-0.1241302490234375
1772701764186689000,3.00368896484375,0.6003570556640625,-0.0706634521484375,-0.14056396484375
1772701764196737300,3.0137373046875,0.6372528076171875,-0.07110595703125,-0.1717529296875
1772701764206785500,3.02378564453125,0.642242431640625,-0.0372467041015625,-0.210052490234375
1772701764216834300,3.033834228515625,0.48004150390625,-0.0054779052734375,-0.0872039794921875
1772701764226882600,3.043882568359375,0.3589630126953125,-0.01171875,-0.006988525390625
1772701764236931300,3.053931396484375,0.2624664306640625,0.01971435546875,0.00732421875
1772701764246979600,3.0639794921875,0.18048095703125,0.0725555419921875,0.0198974609375
1772701764257028400,3.0740283203125,0.1334228515625,0.099609375,0.032928466796875
1772701764267077400,3.084077392578125,0.0808563232421875,0.09075927734375,0.04339599609375
1772701764277125400,3.09412548828125,0.0192108154296875,0.0886993408203125,0.042724609375
1772701764287174400,3.10417431640625,-0.0025634765625,0.0948944091796875,0.01922607421875
1772701764297222400,3.114222412109375,-0.0151519775390625,0.092010498046875,-0.0002899169921875
1772701764307271400,3.124271484375,-0.030029296875,0.0834503173828125,0.0088348388671875
1772701764317319400,3.1343193359375,-0.0670928955078125,0.0917816162109375,0.085479736328125
1772701764327368400,3.144368408203125,-0.1512298583984375,0.1172332763671875,0.236480712890625
1772701764337416400,3.15441650390625,-0.2687530517578125,0.1044921875,0.393096923828125
1772701764347465500,3.164465576171875,-0.3997802734375,0.046783447265625,0.5311737060546875
1772701764357513500,3.174513427734375,-0.6054534912109375,0.0233917236328125,0.6414031982421875
1772701764367562200,3.184562255859375,-0.8805084228515625,0.06097412109375,0.7512664794921875
1772701764377610500,3.194610595703125,-1.1906585693359375,0.12384033203125,0.9084014892578125
1772701764387659300,3.2046591796875,-1.5320587158203125,0.1803741455078125,1.10015869140625
1772701764397707500,3.21470751953125,-1.882232666015625,0.232269287109375,1.280670166015625
1772701764407756300,3.22475634765625,-2.4207305908203125,0.3144683837890625,1.5888519287109375
1772701764417804500,3.234804443359375,-3.164703369140625,0.374481201171875,2.2729644775390625
1772701764427853300,3.244853271484375,-3.7555389404296875,0.43878173828125,3.0373687744140625
1772701764437901600,3.254901611328125,-3.2496337890625,0.3425750732421875,2.55963134765625
1772701764447950300,3.264950439453125,-2.799957275390625,0.2729644775390625,2.0721282958984375
1772701764457998600,3.27499853515625,-2.3327789306640625,0.1591796875,1.774139404296875
1772701764468047400,3.28504736328125,-1.6852874755859375,0.020355224609375,1.5223846435546875
1772701764478095400,3.295095458984375,-1.27081298828125,0.0334014892578125,1.1459197998046875
1772701764488144400,3.305144287109375,-0.9613037109375,0.37237548828125,0.5429840087890625
1772701764498192400,3.3151923828125,-0.9240875244140625,0.361083984375,0.216278076171875
1772701764508241400,3.325241455078125,-0.9520721435546875,0.217071533203125,0.231536865234375
1772701764518290400,3.33529052734375,-0.88885498046875,0.129302978515625,0.270782470703125
1772701764528338400,3.34533837890625,-0.7348175048828125,0.048065185546875,0.203826904296875
1772701764538387200,3.35538720703125,-0.504150390625,-0.02789306640625,-0.03485107421875
1772701764548435500,3.365435546875,-0.2783660888671875,-0.0613250732421875,-0.1829681396484375
1772701764558484200,3.375484130859375,-0.1165924072265625,-0.0416259765625,-0.1490936279296875
1772701764568532500,3.385532470703125,-0.097412109375,0.0029144287109375,-0.116241455078125
1772701764578581200,3.395581298828125,-0.13507080078125,0.0593719482421875,-0.0135955810546875
1772701764588629500,3.40562939453125,-0.14678955078125,0.10009765625,0.1270904541015625
1772701764598678300,3.41567822265625,-0.203826904296875,0.1238555908203125,0.2532806396484375
1772701764608726500,3.4257265625,-0.272003173828125,0.149688720703125,0.36566162109375
1772701764618775300,3.435775390625,-0.3181610107421875,0.1346893310546875,0.4442291259765625
1772701764628823600,3.445823486328125,-0.388397216796875,0.0891265869140625,0.4424896240234375
1772701764638872300,3.455872314453125,-0.3495941162109375,0.1284637451171875,0.442718505859375
1772701764648920300,3.46592041015625,-0.3078765869140625,0.1663360595703125,0.4464263916015625
1772701764658969300,3.47596923828125,-0.300506591796875,0.1724090576171875,0.4404449462890625
1772701764669017300,3.486017333984375,-0.2943878173828125,0.1561279296875,0.43841552734375
1772701764679066400,3.49606640625,-0.2954864501953125,0.12567138671875,0.46978759765625
1772701764689114400,3.5061142578125,-0.33990478515625,0.0761260986328125,0.521087646484375
1772701764699163400,3.516163330078125,-0.4129791259765625,0.036773681640625,0.58233642578125
1772701764709211400,3.52621142578125,-0.525970458984375,0.0289154052734375,0.6357879638671875
1772701764719260400,3.536260498046875,-0.679962158203125,0.0630645751953125,0.6743927001953125
1772701764729308400,3.546308349609375,-0.8383331298828125,0.1236724853515625,0.6886138916015625
1772701764739357400,3.556357421875,-0.9203948974609375,0.1528778076171875,0.700164794921875
1772701764749406500,3.566406494140625,-0.9443817138671875,0.14117431640625,0.71142578125
1772701764759454500,3.576454345703125,-0.938079833984375,0.127227783203125,0.708709716796875
1772701764769503200,3.586503173828125,-0.92425537109375,0.14996337890625,0.7319488525390625
1772701764779551500,3.596551513671875,-0.8963775634765625,0.1971282958984375,0.74041748046875
1772701764789600300,3.606600341796875,-0.8506622314453125,0.2295684814453125,0.6769256591796875
1772701764799648300,3.616648193359375,-0.7560882568359375,0.204193115234375,0.5073089599609375
1772701764809697300,3.626697265625,-0.657012939453125,0.1305389404296875,0.3422698974609375
1772701764819745300,3.636745361328125,-0.63836669921875,0.0845489501953125,0.3729248046875
1772701764829794300,3.646794189453125,-0.6636505126953125,0.067962646484375,0.57330322265625
1772701764839842300,3.65684228515625,-0.7363128662109375,0.0938720703125,0.69403076171875
1772701764849891300,3.666891357421875,-0.7889862060546875,0.157073974609375,0.712615966796875
1772701764859939300,3.676939208984375,-0.7901153564453125,0.19268798828125,0.636932373046875
1772701764869988400,3.68698828125,-0.77215576171875,0.18536376953125,0.59320068359375
1772701764880036400,3.697036376953125,-0.8290557861328125,0.1465606689453125,0.63995361328125
1772701764890085400,3.70708544921875,-0.926788330078125,0.1067962646484375,0.80126953125
1772701764900133400,3.71713330078125,-1.0850830078125,0.1484527587890625,0.9653472900390625
1772701764910182400,3.727182373046875,-1.2825927734375,0.2343597412109375,1.120391845703125
1772701764920230400,3.73723046875,-1.523101806640625,0.273468017578125,1.2701568603515625
1772701764930279400,3.747279541015625,-1.7908935546875,0.350372314453125,1.3975677490234375
1772701764940327400,3.757327392578125,-2.0311126708984375,0.4249114990234375,1.5343780517578125
1772701764950376400,3.76737646484375,-2.231109619140625,0.452850341796875,1.619903564453125
1772701764960425500,3.777425537109375,-2.3607177734375,0.416778564453125,1.6581573486328125
1772701764970473200,3.78747314453125,-2.4832916259765625,0.359832763671875,1.679840087890625
1772701764980522500,3.7975224609375,-2.6355438232421875,0.32659912109375,1.7125244140625
1772701764990570200,3.8075703125,-2.7910919189453125,0.2988128662109375,1.7222900390625
1772701765000619500,3.81761962890625,-2.8857574462890625,0.2180633544921875,1.6761932373046875
1772701765010667300,3.827667236328125,-2.83050537109375,0.111480712890625,1.5839385986328125
1772701765020716500,3.837716552734375,-2.4603271484375,0.059844970703125,1.447235107421875
1772701765030764300,3.847764404296875,-1.851776123046875,0.0271148681640625,1.270294189453125
1772701765040813600,3.8578134765625,-1.2550201416015625,0.0761260986328125,1.0555572509765625
1772701765050861300,3.867861328125,-0.7469024658203125,0.163909912109375,0.794036865234375
1772701765060910300,3.877910400390625,-0.3623504638671875,0.0643768310546875,0.533721923828125
1772701765070958300,3.887958251953125,-0.1497039794921875,-0.164306640625,0.332794189453125
1772701765081007400,3.89800732421875,0.0079345703125,-0.25140380859375,0.108154296875
1772701765091055400,3.908055419921875,0.1657867431640625,-0.2368621826171875,-0.13946533203125
1772701765101104400,3.9181044921875,0.3165283203125,-0.1914215087890625,-0.276092529296875
1772701765111152400,3.92815234375,0.5186309814453125,-0.1142425537109375,-0.20892333984375
1772701765121201400,3.938201416015625,0.6165313720703125,-0.014373779296875,-0.0714263916015625
1772701765131249400,3.94824951171875,0.664703369140625,0.0086669921875,-0.0380706787109375
1772701765141298200,3.958298095703125,0.6505126953125,-0.053863525390625,-0.0685882568359375
1772701765151346400,3.968346435546875,0.5942840576171875,-0.115234375,-0.084625244140625
1772701765161395200,3.978395263671875,0.5314788818359375,-0.1257781982421875,-0.0671844482421875
1772701765171444500,3.988444580078125,0.4566497802734375,-0.093963623046875,-0.0336151123046875
1772701765181492200,3.9984921875,0.408599853515625,-0.065643310546875,0.026397705078125
1772701765191541500,4.00854150390625,0.3892669677734375,-0.0160369873046875,0.05975341796875
1772701765201589500,4.018589599609375,0.36181640625,0.0727386474609375,0.0744781494140625
1772701765211638800,4.028638671875,0.3215179443359375,0.1205902099609375,0.13134765625
1772701765221686500,4.0386865234375,0.2465667724609375,0.1381378173828125,0.1831817626953125
1772701765231735800,4.04873583984375,0.1659088134765625,0.1536102294921875,0.2030181884765625
1772701765241783600,4.058783447265625,0.105560302734375,0.1612396240234375,0.21258544921875
1772701765251832800,4.068832763671875,0.0746917724609375,0.1460113525390625,0.210662841796875
1772701765261880600,4.078880615234375,0.053497314453125,0.131591796875,0.1873931884765625
1772701765271929900,4.088929931640625,-0.01885986328125,0.142578125,0.1806488037109375
1772701765281977600,4.0989775390625,-0.0880126953125,0.1393890380859375,0.1581878662109375
1772701765292027000,4.10902685546875,-0.14666748046875,0.1363983154296875,0.132904052734375
1772701765302074600,4.11907470703125,-0.189453125,0.1583709716796875,0.121673583984375
1772701765312123600,4.12912353515625,-0.205810546875,0.1715240478515625,0.123748779296875
1772701765322171600,4.139171630859375,-0.2437744140625,0.1588134765625,0.1487884521484375
1772701765332220700,4.149220703125,-0.24884033203125,0.1428375244140625,0.16290283203125
1772701765342268700,4.1592685546875,-0.2401580810546875,0.1402435302734375,0.1695404052734375
1772701765352317700,4.169317626953125,-0.236785888671875,0.130462646484375,0.1903839111328125
1772701765362366700,4.17936669921875,-0.27203369140625,0.1062774658203125,0.2265472412109375
1772701765372414500,4.18941455078125,-0.3302764892578125,0.06170654296875,0.287811279296875
1772701765382463700,4.199463623046875,-0.441925048828125,0.0217132568359375,0.3837432861328125
1772701765392511500,4.209511474609375,-0.6053314208984375,-0.023651123046875,0.5363006591796875
1772701765402560800,4.219560791015625,-0.803253173828125,-0.0889129638671875,0.71014404296875
1772701765412608500,4.2296083984375,-1.0289154052734375,-0.1365203857421875,0.883544921875
1772701765422657800,4.23965771484375,-1.2426605224609375,-0.1394805908203125,1.0550079345703125
1772701765432705500,4.24970556640625,-1.4698028564453125,-0.1128387451171875,1.2125701904296875
1772701765442754800,4.2597548828125,-1.7598876953125,-0.062652587890625,1.3752899169921875
1772701765452802600,4.269802490234375,-2.23150634765625,0.0191497802734375,1.6908416748046875
1772701765462851800,4.279851806640625,-3.385162353515625,0.261871337890625,2.448486328125
1772701765472899600,4.289899658203125,-4.0979766845703125,0.46533203125,2.7880096435546875
1772701765482948600,4.299948486328125,-3.8267974853515625,0.2716827392578125,2.1514129638671875
1772701765492996600,4.30999658203125,-3.5989227294921875,0.3400115966796875,1.7703094482421875
1772701765503045600,4.320045654296875,-2.853179931640625,0.3651275634765625,1.59716796875
1772701765513093600,4.33009375,-2.0690765380859375,0.309783935546875,1.434844970703125
1772701765523142700,4.340142578125,-1.550933837890625,0.2569122314453125,1.2083892822265625
1772701765533191700,4.350191650390625,-1.1524810791015625,0.0506744384765625,0.927337646484375
1772701765543239700,4.36023974609375,-0.9593505859375,-0.1215972900390625,0.593597412109375
1772701765553288700,4.370288818359375,-0.8556365966796875,-0.0827484130859375,0.32330322265625
1772701765563336700,4.380336669921875,-0.7417449951171875,-0.007476806640625,0.24591064453125
1772701765573385700,4.3903857421875,-0.6841278076171875,-0.0326995849609375,0.224334716796875
1772701765583433700,4.400433837890625,-0.5771026611328125,-0.0771636962890625,0.2200927734375
1772701765593482800,4.410482666015625,-0.4251708984375,-0.101043701171875,0.226898193359375
1772701765603530800,4.42053076171875,-0.24078369140625,-0.109161376953125,0.20062255859375
1772701765613579800,4.430579833984375,-0.0905303955078125,-0.1022796630859375,0.16778564453125
1772701765623627800,4.440627685546875,-0.0343780517578125,-0.0682220458984375,0.154327392578125
1772701765633676800,4.4506767578125,0.0199737548828125,-0.0074615478515625,0.16082763671875
1772701765643724800,4.460724853515625,0.091552734375,0.0568084716796875,0.196990966796875
1772701765653773600,4.470773681640625,0.1256866455078125,0.0985565185546875,0.240997314453125
1772701765663821800,4.48082177734375,0.1119232177734375,0.095306396484375,0.26165771484375
1772701765673870600,4.49087060546875,0.0518951416015625,0.0735931396484375,0.238983154296875
1772701765683918600,4.500918701171875,-0.019989013671875,0.038604736328125,0.1666717529296875
1772701765693967600,4.510967529296875,-0.071136474609375,-0.02691650390625,0.0707550048828125
1772701765704015600,4.521015625,-0.110687255859375,-0.081512451171875,-0.002777099609375
1772701765714064600,4.531064697265625,-0.158538818359375,-0.0952911376953125,-0.0669708251953125
1772701765724113700,4.54111376953125,-0.166717529296875,-0.0614166259765625,-0.099456787109375
1772701765734161700,4.55116162109375,-0.1342315673828125,-0.0000457763671875,-0.1021728515625
1772701765744210700,4.561210693359375,-0.09637451171875,0.023406982421875,0.022796630859375
1772701765754258700,4.5712587890625,-0.088348388671875,0.0241546630859375,0.1890411376953125
1772701765764307700,4.5813076171875,-0.100250244140625,0.0447998046875,0.29473876953125
1772701765774355700,4.591355712890625,-0.11199951171875,0.0787353515625,0.4107666015625
1772701765784404700,4.60140478515625,-0.138916015625,0.12255859375,0.529205322265625
1772701765794452700,4.61145263671875,-0.1996002197265625,0.1709136962890625,0.6358489990234375
1772701765804501800,4.621501708984375,-0.277557373046875,0.2240753173828125,0.7490234375
1772701765814549800,4.6315498046875,-0.3978271484375,0.25177001953125,0.8352508544921875
1772701765824598500,4.6415986328125,-0.68609619140625,0.2296600341796875,0.8176727294921875
1772701765834646800,4.651646728515625,-1.2347564697265625,0.239471435546875,0.82098388671875
1772701765844695600,4.661695556640625,-1.506378173828125,0.2701568603515625,0.856781005859375
1772701765854743800,4.671743896484375,-1.2402191162109375,0.266448974609375,0.87481689453125
1772701765864792600,4.68179248046875,-1.018341064453125,0.305023193359375,1.0472259521484375
1772701765874841600,4.691841552734375,-1.0403594970703125,0.305084228515625,1.1647186279296875
1772701765884889600,4.7018896484375,-1.198638916015625,0.2384185791015625,1.1366729736328125
1772701765894938600,4.711938720703125,-1.462554931640625,0.2768096923828125,1.112457275390625
1772701765904986600,4.721986572265625,-1.6200103759765625,0.2555694580078125,1.1014251708984375
1772701765915035600,4.73203564453125,-1.63775634765625,0.1336517333984375,1.1255035400390625
1772701765925083600,4.742083740234375,-1.70294189453125,0.111968994140625,1.3427734375
1772701765935132700,4.752132568359375,-1.8679046630859375,0.1194610595703125,1.62939453125
1772701765945180700,4.7621806640625,-2.071258544921875,0.1279754638671875,1.883636474609375
1772701765955229700,4.772229736328125,-2.2501220703125,0.1625823974609375,2.0752105712890625
1772701765965277700,4.782277587890625,-2.326812744140625,0.1670074462890625,2.1283721923828125
1772701765975326500,4.792326416015625,-2.388946533203125,0.0840301513671875,2.1407928466796875
1772701765985374700,4.802374755859375,-2.4632720947265625,0.04840087890625,2.1151885986328125
1772701765995423500,4.812423583984375,-2.517669677734375,0.0793304443359375,2.0591278076171875
1772701766005471700,4.8224716796875,-2.5749664306640625,0.1823883056640625,1.9720001220703125
1772701766015520500,4.8325205078125,-2.5559844970703125,0.25494384765625,1.8849639892578125
1772701766025568800,4.84256884765625,-2.392242431640625,0.30108642578125,1.7460784912109375
1772701766035617500,4.852617431640625,-2.089263916015625,0.3221282958984375,1.5594482421875
1772701766045666800,4.862666748046875,-1.6602935791015625,0.3308258056640625,1.303466796875
1772701766055714600,4.872714599609375,-1.171295166015625,0.355316162109375,1.0830535888671875
1772701766065763600,4.882763671875,-0.7182769775390625,0.3308563232421875,0.8893280029296875
1772701766075811600,4.8928115234375,-0.3620147705078125,0.2445068359375,0.6975860595703125
1772701766085860600,4.902860595703125,-0.078460693359375,0.1319732666015625,0.4801177978515625
1772701766095908600,4.91290869140625,0.1459503173828125,0.0377044677734375,0.252227783203125
1772701766105957600,4.92295751953125,0.317718505859375,0.00732421875,0.085540771484375
1772701766116005600,4.933005615234375,0.44854736328125,-0.0050201416015625,-0.0432586669921875
1772701766126054700,4.9430546875,0.5845794677734375,-0.0327606201171875,-0.1257781982421875
1772701766136102700,4.9531025390625,0.7089996337890625,-0.047576904296875,-0.1331329345703125
1772701766146151400,4.9631513671875,0.842926025390625,-0.0399627685546875,-0.2286529541015625
1772701766156199700,4.97319970703125,0.9732666015625,-0.0379486083984375,-0.2895050048828125
1772701766166248400,4.98324853515625,1.0912322998046875,-0.0605010986328125,-0.3014373779296875
1772701766176296700,4.993296630859375,1.1951904296875,-0.0668792724609375,-0.366912841796875
1772701766186345500,5.003345458984375,1.2628021240234375,-0.0502777099609375,-0.4496612548828125
1772701766196394200,5.013394287109375,1.1311798095703125,-0.0201416015625,-0.51312255859375
1772701766206442200,5.023442138671875,0.797271728515625,0.006591796875,-0.225830078125
1772701766216491300,5.0334912109375,0.5899200439453125,-0.0153961181640625,-0.1257476806640625
1772701766226539300,5.043539306640625,0.45159912109375,-0.014404296875,-0.06396484375
1772701766236588300,5.05358837890625,0.2978515625,0.02923583984375,-0.0102386474609375
1772701766246636300,5.06363623046875,0.1547698974609375,0.07012939453125,0.0244140625
1772701766256685300,5.073685302734375,0.0344085693359375,0.0939483642578125,0.0417938232421875
1772701766266733300,5.0837333984375,-0.060882568359375,0.087158203125,0.0801849365234375
1772701766276782300,5.0937822265625,-0.13861083984375,0.055908203125,0.1041412353515625
1772701766286830300,5.103830322265625,-0.2053375244140625,0.009674072265625,0.1185150146484375
1772701766296879400,5.11387939453125,-0.234954833984375,0.005126953125,0.131103515625
1772701766306927000,5.123927001953125,-0.2080535888671875,0.0597381591796875,0.136444091796875
1772701766316976400,5.133976318359375,-0.1956024169921875,0.0854034423828125,0.1383819580078125
1772701766327024000,5.144024169921875,-0.25750732421875,0.08563232421875,0.1630401611328125
1772701766337073400,5.154073486328125,-0.3297271728515625,0.0832672119140625,0.212432861328125
1772701766347122400,5.164122314453125,-0.40093994140625,0.0644989013671875,0.2989349365234375
1772701766357170400,5.17417041015625,-0.4694366455078125,0.0623626708984375,0.411712646484375
1772701766367219200,5.18421923828125,-0.5609283447265625,0.080322265625,0.55718994140625
1772701766377267500,5.194267333984375,-0.690582275390625,0.0890045166015625,0.725372314453125
1772701766387316200,5.204316162109375,-0.8580169677734375,0.076263427734375,0.909271240234375
1772701766397364500,5.214364501953125,-1.073211669921875,0.0547943115234375,1.0695037841796875
1772701766407413200,5.224413330078125,-1.365234375,0.049072265625,1.1996002197265625
1772701766417461500,5.23446142578125,-1.7986907958984375,0.079864501953125,1.3253936767578125
1772701766427510300,5.24451025390625,-2.351593017578125,0.172882080078125,1.520660400390625
1772701766437558500,5.25455859375,-3.1702423095703125,0.390228271484375,2.092071533203125
1772701766447607300,5.264607177734375,-3.9550933837890625,0.5845947265625,2.6435699462890625
1772701766457655600,5.274655517578125,-3.518310546875,0.53375244140625,2.407562255859375
1772701766467704300,5.284704345703125,-2.76104736328125,0.459228515625,2.03387451171875
1772701766477752300,5.29475244140625,-2.3150482177734375,0.3748016357421875,1.5693206787109375
1772701766487801300,5.30480126953125,-1.8494873046875,0.2109375,1.1542205810546875
1772701766497849300,5.314849365234375,-1.5171051025390625,0.106231689453125,0.8836517333984375
1772701766507898400,5.3248984375,-1.2910919189453125,0.1127777099609375,0.5882110595703125
1772701766517946400,5.3349462890625,-1.17645263671875,0.128326416015625,0.481719970703125
1772701766527995400,5.344995361328125,-1.0801239013671875,0.1350250244140625,0.4398193359375
1772701766538044200,5.355044189453125,-0.9260101318359375,0.1479034423828125,0.3885498046875
1772701766548092400,5.365092529296875,-0.7591705322265625,0.142425537109375,0.322479248046875
1772701766558141200,5.37514111328125,-0.6307373046875,0.122833251953125,0.2329559326171875
1772701766568189400,5.385189453125,-0.4915924072265625,0.0980072021484375,0.165313720703125
1772701766578238200,5.39523828125,-0.31854248046875,0.06927490234375,0.094390869140625
1772701766588286500,5.405286376953125,-0.161529541015625,0.0242919921875,0.0756378173828125
1772701766598335200,5.415335205078125,-0.0115814208984375,-0.0107269287109375,0.076507568359375
1772701766608383500,5.425383544921875,0.08294677734375,-0.0071258544921875,0.0876007080078125
1772701766618432300,5.435432373046875,0.1435546875,0.0373077392578125,0.150787353515625
1772701766628480500,5.44548046875,0.1506195068359375,0.1240234375,0.2604522705078125
1772701766638529300,5.455529296875,0.0420379638671875,0.1829681396484375,0.340728759765625
1772701766648577300,5.465577392578125,-0.0721282958984375,0.140533447265625,0.327972412109375
1772701766658626300,5.475626220703125,-0.111846923828125,0.12750244140625,0.26544189453125
1772701766668674300,5.48567431640625,-0.1550445556640625,0.160369873046875,0.235687255859375
1772701766678723300,5.495723388671875,-0.208221435546875,0.1554718017578125,0.2171173095703125
1772701766688772000,5.505772216796875,-0.2290802001953125,0.0791473388671875,0.227569580078125
1772701766698820400,5.5158203125,-0.2336883544921875,0.0250091552734375,0.2480010986328125
1772701766708869000,5.525869140625,-0.242279052734375,0.053375244140625,0.317962646484375
1772701766718917400,5.53591748046875,-0.279815673828125,0.09295654296875,0.5193939208984375
1772701766728966100,5.545966064453125,-0.3416900634765625,0.14227294921875,0.759613037109375
1772701766739014400,5.556014404296875,-0.4065093994140625,0.197998046875,0.96270751953125
1772701766749063200,5.566063232421875,-0.445465087890625,0.229949951171875,1.0850067138671875
1772701766759111400,5.576111328125,-0.477996826171875,0.2292022705078125,1.0628814697265625
1772701766769160200,5.58616015625,-0.6196746826171875,0.201263427734375,0.9442901611328125
1772701766779208400,5.59620849609375,-1.0260162353515625,0.174102783203125,0.8082122802734375
1772701766789257200,5.60625732421875,-1.338714599609375,0.1596221923828125,0.7398834228515625
1772701766799305500,5.616305419921875,-1.140472412109375,0.106964111328125,0.625030517578125
1772701766809354200,5.626354248046875,-0.80523681640625,-0.0034332275390625,0.5217742919921875
1772701766819403500,5.636403564453125,-0.6651458740234375,-0.0377044677734375,0.458465576171875
1772701766829451300,5.646451171875,-0.59552001953125,0.028656005859375,0.4417572021484375
1772701766839500500,5.65650048828125,-0.5396728515625,0.0675811767578125,0.4802703857421875
1772701766849548300,5.66654833984375,-0.527252197265625,0.0146026611328125,0.5127105712890625
1772701766859597300,5.676597412109375,-0.5750732421875,-0.0186767578125,0.477447509765625
1772701766869645300,5.686645263671875,-0.616912841796875,-0.00433349609375,0.4683685302734375
1772701766879694300,5.6966943359375,-0.6089324951171875,0.03936767578125,0.5207672119140625
1772701766889742300,5.706742431640625,-0.595245361328125,0.079010009765625,0.5633544921875
1772701766899791400,5.716791259765625,-0.6105804443359375,0.062408447265625,0.6346893310546875
1772701766909839400,5.72683935546875,-0.6443939208984375,-0.0254669189453125,0.6854095458984375
1772701766919888400,5.736888427734375,-0.7482452392578125,-0.0617828369140625,0.7478790283203125
1772701766929937400,5.7469375,-0.928985595703125,-0.0379180908203125,0.8247222900390625
1772701766939985200,5.756985107421875,-1.19390869140625,0.007110595703125,0.8740386962890625
1772701766950034400,5.767034423828125,-1.4701690673828125,0.0657196044921875,0.954742431640625
1772701766960082200,5.777082275390625,-1.7747650146484375,0.07208251953125,1.0688629150390625
1772701766970131500,5.78713134765625,-2.03692626953125,0.0386505126953125,1.2315216064453125
1772701766980179200,5.79717919921875,-2.208770751953125,0.0839996337890625,1.546783447265625
1772701766990228500,5.807228515625,-2.31744384765625,0.140472412109375,1.776123046875
1772701767000276200,5.817276123046875,-2.3397064208984375,0.122589111328125,1.8062896728515625
1772701767010325500,5.827325439453125,-2.3118133544921875,0.070892333984375,1.8128814697265625
1772701767020373200,5.837373291015625,-2.3175506591796875,-0.0307159423828125,1.7443695068359375
1772701767030422300,5.84742236328125,-2.40728759765625,-0.1617279052734375,1.7026214599609375
1772701767040471300,5.85747119140625,-2.501617431640625,-0.2820587158203125,1.6928863525390625
1772701767050519300,5.867519287109375,-2.5167999267578125,-0.3121185302734375,1.673095703125
1772701767060568300,5.877568359375,-2.4375,-0.24884033203125,1.629150390625
1772701767070616300,5.8876162109375,-2.3123931884765625,-0.16534423828125,1.51239013671875
1772701767080665300,5.897665283203125,-2.111602783203125,-0.0839080810546875,1.3218841552734375
1772701767090713300,5.90771337890625,-1.8112945556640625,-0.029144287109375,1.1638641357421875
1772701767100762400,5.917762451171875,-1.474456787109375,-0.00885009765625,1.016143798828125
1772701767110810400,5.927810302734375,-1.1625518798828125,-0.0102081298828125,0.8387908935546875
1772701767120859400,5.937859375,-0.845001220703125,-0.0134124755859375,0.6358489990234375
1772701767130907400,5.947907470703125,-0.50885009765625,-0.0072174072265625,0.452850341796875
1772701767140956400,5.957956298828125,-0.1904754638671875,-0.0110931396484375,0.29864501953125
1772701767151005200,5.968005126953125,0.0630035400390625,0.010162353515625,0.18377685546875
1772701767161053400,5.978053466796875,0.243621826171875,0.0264739990234375,0.108184814453125
1772701767171102200,5.988102294921875,0.3782958984375,0.0350189208984375,0.0685272216796875
1772701767181150500,5.998150390625,0.4917449951171875,0.0496368408203125,0.03533935546875
1772701767191199200,6.00819921875,0.5638885498046875,0.042388916015625,0.0263671875
1772701767201248300,6.018248291015625,0.5943603515625,0.0357208251953125,0.0169830322265625
1772701767211297000,6.028297119140625,0.595703125,0.0162811279296875,0.0162811279296875
1772701767221345300,6.03834521484375,0.5953216552734375,0.0002288818359375,0.023406982421875
1772701767231394000,6.04839404296875,0.6151580810546875,-0.0060577392578125,0.0115509033203125
1772701767241442000,6.058442138671875,0.6500091552734375,-0.0096893310546875,-0.0276336669921875
1772701767251491000,6.068490966796875,0.68731689453125,0.0027618408203125,-0.05230712890625
1772701767261539000,6.0785390625,0.7029876708984375,0.0118255615234375,-0.017181396484375
1772701767271588000,6.088588134765625,0.684661865234375,0.01220703125,0.0362701416015625
1772701767281636900,6.098636962890625,0.5488128662109375,-0.0081634521484375,0.043548583984375
1772701767291685000,6.10868505859375,0.4192962646484375,-0.0092010498046875,0.035736083984375
1772701767301734000,6.11873388671875,0.343292236328125,-0.0176239013671875,0.013458251953125
1772701767311782100,6.1287822265625,0.261566162109375,-0.018707275390625,0.00030517578125
1772701767321831000,6.138830810546875,0.181793212890625,-0.013916015625,-0.0025787353515625
1772701767331879200,6.148879150390625,0.1237945556640625,-0.0104217529296875,-0.000457763671875
1772701767341928000,6.158927978515625,0.0847625732421875,0.0025634765625,0.0087432861328125
1772701767351976200,6.16897607421875,0.046630859375,0.0196380615234375,0.0295867919921875
1772701767362025000,6.17902490234375,0.028228759765625,0.031890869140625,0.05096435546875
1772701767372073200,6.1890732421875,0.0234375,0.048370361328125,0.055938720703125
1772701767382122000,6.1991220703125,0.0105743408203125,0.062774658203125,0.0750579833984375
1772701767392171300,6.209171142578125,-0.034271240234375,0.058380126953125,0.1278076171875
1772701767402219000,6.219218994140625,-0.12445068359375,0.0433197021484375,0.170562744140625
1772701767412268300,6.229268310546875,-0.2393035888671875,0.0109100341796875,0.234588623046875
1772701767422316000,6.23931591796875,-0.387481689453125,-0.04351806640625,0.342742919921875
1772701767432365000,6.249364990234375,-0.5512542724609375,-0.10858154296875,0.48828125
1772701767442413000,6.2594130859375,-0.7586212158203125,-0.1709442138671875,0.6417083740234375
1772701767452462000,6.269462158203125,-1.01641845703125,-0.21881103515625,0.8157501220703125
1772701767462510000,6.279510009765625,-1.2915191650390625,-0.225616455078125,1.0276641845703125
1772701767472558800,6.289558837890625,-1.636962890625,-0.20733642578125,1.348297119140625
1772701767482607000,6.299607177734375,-2.16156005859375,-0.247161865234375,1.82110595703125
1772701767492655900,6.30965576171875,-3.0638275146484375,-0.1724700927734375,2.628814697265625
1772701767502705200,6.319705078125,-3.5218963623046875,0.2363433837890625,3.2398681640625
1772701767512753000,6.3297529296875,-3.67449951171875,0.3561859130859375,2.6833343505859375
1772701767522802200,6.33980224609375,-3.9345703125,0.4334564208984375,1.80609130859375
1772701767532850000,6.349849853515625,-3.1828155517578125,0.363250732421875,1.5894775390625
1772701767542899200,6.359899169921875,-2.367034912109375,0.23638916015625,1.270263671875
1772701767552947000,6.369947021484375,-2.0611419677734375,-0.0509796142578125,0.611724853515625
1772701767562996200,6.379996337890625,-1.8752899169921875,-0.3859405517578125,0.04034423828125
1772701767573044000,6.3900439453125,-1.6698150634765625,-0.42376708984375,-0.23675537109375
1772701767583093200,6.40009326171875,-1.41949462890625,-0.2604522705078125,-0.1436920166015625
1772701767593141000,6.41014111328125,-1.1323089599609375,-0.1959991455078125,0.188018798828125
1772701767603190300,6.420190185546875,-0.869659423828125,-0.1685791015625,0.1624603271484375
1772701767613239000,6.430239013671875,-0.7704315185546875,-0.056884765625,0.1609649658203125
1772701767623287000,6.440287109375,-0.6633758544921875,0.0582275390625,0.31646728515625
1772701767633336000,6.450336181640625,-0.579864501953125,0.0918426513671875,0.376373291015625
1772701767643384000,6.460384033203125,-0.36517333984375,0.0928192138671875,0.3630828857421875
1772701767653433000,6.47043310546875,-0.0887298583984375,0.127838134765625,0.3430633544921875
1772701767663481000,6.480481201171875,0.0583953857421875,0.1479034423828125,0.3992767333984375
1772701767673530000,6.490530029296875,0.1156158447265625,0.1908111572265625,0.3719635009765625
1772701767683578000,6.500578125,0.152618408203125,0.220367431640625,0.3423004150390625
1772701767693627100,6.510627197265625,0.202545166015625,0.198699951171875,0.307373046875
1772701767703675100,6.520675048828125,0.229248046875,0.142303466796875,0.21966552734375
1772701767713724200,6.53072412109375,0.23272705078125,0.0671234130859375,0.1343841552734375
1772701767723773000,6.54077294921875,0.212066650390625,0.01837158203125,0.0747833251953125
1772701767733821200,6.5508212890625,0.133880615234375,-0.0086822509765625,0.06365966796875
1772701767743870000,6.560869873046875,-0.000885009765625,-0.0356903076171875,0.14068603515625
1772701767753918200,6.570918212890625,-0.0543060302734375,-0.0622100830078125,0.2447509765625
1772701767763967000,6.580967041015625,-0.0879058837890625,-0.0715484619140625,0.34393310546875
1772701767774015200,6.59101513671875,-0.15386962890625,-0.0555877685546875,0.488006591796875
1772701767784064000,6.60106396484375,-0.2625885009765625,-0.0193023681640625,0.678741455078125
1772701767794112000,6.611112060546875,-0.412200927734375,0.035003662109375,0.89886474609375
1772701767804161000,6.6211611328125,-0.563873291015625,0.1005706787109375,1.1000823974609375
1772701767814209000,6.631208984375,-0.6746063232421875,0.1348114013671875,1.185760498046875
1772701767824258000,6.641258056640625,-0.7622222900390625,0.1013031005859375,1.1451873779296875
1772701767834307000,6.65130712890625,-0.9389801025390625,0.0771942138671875,1.027618408203125
1772701767844355000,6.66135498046875,-1.3203277587890625,0.154632568359375,0.852264404296875
1772701767854404000,6.671404052734375,-1.5694122314453125,0.2599639892578125,0.6769561767578125
1772701767864452000,6.6814521484375,-1.34136962890625,0.204833984375,0.491455078125
1772701767874500900,6.6915009765625,-0.915313720703125,0.0325469970703125,0.351409912109375
1772701767884549000,6.701549072265625,-0.68450927734375,-0.087493896484375,0.2601776123046875
1772701767894598000,6.711597900390625,-0.589630126953125,-0.1132965087890625,0.2597503662109375
1772701767904646100,6.721646240234375,-0.5525054931640625,0.002899169921875,0.253387451171875
1772701767914695000,6.73169482421875,-0.5400390625,0.164764404296875,0.16204833984375
1772701767924743200,6.7417431640625,-0.5257568359375,0.2091522216796875,0.1126251220703125
1772701767934792000,6.7517919921875,-0.51092529296875,0.1195526123046875,0.1826934814453125
1772701767944841200,6.76184130859375,-0.5316009521484375,0.08349609375,0.2430419921875
1772701767954889000,6.771888916015625,-0.601715087890625,0.0813446044921875,0.3670654296875
1772701767964938200,6.781938232421875,-0.7050018310546875,0.0995635986328125,0.5057373046875
1772701767974986000,6.791986083984375,-0.8809051513671875,0.1502838134765625,0.6679840087890625
1772701767985035300,6.80203515625,-1.1653900146484375,0.2353057861328125,0.8844146728515625
1772701767995083000,6.8120830078125,-1.5596466064453125,0.342529296875,1.1331329345703125
1772701768005132000,6.822132080078125,-1.9471893310546875,0.4463653564453125,1.3106536865234375
1772701768015180000,6.832179931640625,-2.3569488525390625,0.5597686767578125,1.4517974853515625
1772701768025229000,6.84222900390625,-2.8549957275390625,0.6623077392578125,1.6586456298828125
1772701768035278000,6.852278076171875,-3.3328094482421875,0.644378662109375,1.86090087890625
1772701768045326000,6.862326171875,-3.7685699462890625,0.533294677734375,1.9657745361328125
1772701768055375000,6.872375,-4.003631591796875,0.46539306640625,1.9836273193359375
1772701768065423000,6.882423095703125,-3.836181640625,0.4171295166015625,1.9982147216796875
1772701768075472100,6.89247216796875,-3.5016937255859375,0.370758056640625,1.882354736328125
1772701768085520100,6.90252001953125,-3.149383544921875,0.267181396484375,1.717742919921875
1772701768095569200,6.912569091796875,-2.6979827880859375,0.1684722900390625,1.6070709228515625
1772701768105617200,6.9226171875,-2.1425018310546875,0.0946502685546875,1.4329833984375
1772701768115666200,6.932666259765625,-1.587615966796875,0.0359954833984375,1.180206298828125
1772701768125714200,6.942714111328125,-1.081390380859375,-0.0234832763671875,0.9901885986328125
1772701768135763200,6.95276318359375,-0.61328125,-0.095947265625,0.883544921875
1772701768145812000,6.96281201171875,-0.2111358642578125,-0.1563262939453125,0.7520294189453125
1772701768155860200,6.972860107421875,0.1203460693359375,-0.2544097900390625,0.5687103271484375
1772701768165909000,6.982908935546875,0.3422088623046875,-0.3700408935546875,0.3564453125
1772701768175957000,6.99295703125,0.52813720703125,-0.462188720703125,0.2017669677734375
1772701768186006000,7.003006103515625,0.6700592041015625,-0.538726806640625,0.069549560546875
1772701768196054000,7.013053955078125,0.8545989990234375,-0.58514404296875,-0.1175537109375
1772701768206102500,7.0231025390625,1.1946258544921875,-0.597808837890625,-0.3420867919921875
1772701768216150800,7.03315087890625,1.303314208984375,-0.568359375,-0.4996490478515625
1772701768226199600,7.043199462890625,1.0667266845703125,-0.4829864501953125,-0.5928955078125
1772701768236247800,7.053247802734375,0.827850341796875,-0.3444976806640625,-0.627471923828125
1772701768246296600,7.063296630859375,0.665924072265625,-0.237884521484375,-0.6230926513671875
1772701768256345900,7.073345947265625,0.5170440673828125,-0.12548828125,-0.603240966796875
1772701768266393600,7.0833935546875,0.407745361328125,-0.062103271484375,-0.3956298828125
1772701768276443000,7.09344287109375,0.294952392578125,-0.0678253173828125,-0.0440216064453125
1772701768286490600,7.10349072265625,0.194580078125,-0.06396484375,-0.0243682861328125
1772701768296540000,7.113539794921875,0.1185455322265625,-0.0340118408203125,0.0059967041015625
1772701768306587600,7.123587646484375,0.058074951171875,0.02752685546875,0.0501251220703125
1772701768316637000,7.133636962890625,0.036529541015625,0.081939697265625,0.095672607421875
1772701768326684700,7.1436845703125,0.0101165771484375,0.118133544921875,0.1230621337890625
1772701768336733700,7.153733642578125,-0.0596466064453125,0.139556884765625,0.12445068359375
1772701768346782700,7.16378271484375,-0.118438720703125,0.1665802001953125,0.10650634765625
1772701768356830700,7.173830810546875,-0.1844482421875,0.18438720703125,0.0802154541015625
1772701768366879700,7.183879638671875,-0.268646240234375,0.1615142822265625,0.05401611328125
1772701768376927500,7.193927490234375,-0.3214874267578125,0.131011962890625,0.0227508544921875
1772701768386976800,7.203976806640625,-0.302032470703125,0.1162261962890625,-0.01385498046875
1772701768397024500,7.2140244140625,-0.2274627685546875,0.10345458984375,-0.0313568115234375
1772701768407073800,7.22407373046875,-0.1806182861328125,0.0920257568359375,-0.0240020751953125
1772701768417121500,7.23412158203125,-0.137237548828125,0.0782623291015625,-0.013153076171875
1772701768427170800,7.2441708984375,-0.084442138671875,0.0849761962890625,-0.007293701171875
1772701768437219600,7.254219482421875,-0.0626068115234375,0.095550537109375,0.036376953125
1772701768447267800,7.264267822265625,-0.08447265625,0.104156494140625,0.10833740234375
1772701768457316600,7.274316650390625,-0.121429443359375,0.087860107421875,0.178009033203125
1772701768467364900,7.28436474609375,-0.1869049072265625,0.0473785400390625,0.2630767822265625
1772701768477413600,7.29441357421875,-0.256500244140625,0.004119873046875,0.3414306640625
1772701768487462000,7.3044619140625,-0.325103759765625,-0.018768310546875,0.4131317138671875
1772701768497510700,7.3145107421875,-0.4330902099609375,-0.019287109375,0.5163116455078125
1772701768507558700,7.32455859375,-0.6087188720703125,0.00189208984375,0.696868896484375
1772701768517607700,7.334607666015625,-0.875030517578125,0.10516357421875,0.97015380859375
1772701768527656700,7.34465673828125,-1.29266357421875,0.27056884765625,1.5033721923828125
1772701768537704700,7.35470458984375,-1.8385162353515625,0.3690948486328125,2.181182861328125
1772701768547753700,7.364753662109375,-2.3983001708984375,0.3632354736328125,2.4478302001953125
1772701768557801700,7.3748017578125,-2.9520263671875,0.31805419921875,2.635467529296875
1772701768567850500,7.3848505859375,-3.9636077880859375,0.394989013671875,2.898162841796875
1772701768577898800,7.394898681640625,-4.099395751953125,0.4500274658203125,2.4294586181640625
1772701768587947500,7.404947509765625,-3.2802734375,0.4121856689453125,2.14788818359375
1772701768597995800,7.414995849609375,-2.677337646484375,0.31866455078125,1.7284393310546875
1772701768608044500,7.42504443359375,-2.156280517578125,0.272613525390625,1.30694580078125
1772701768618093800,7.43509375,-1.7498931884765625,0.1654052734375,0.9963836669921875
1772701768628141600,7.4451416015625,-1.592193603515625,0.0652618408203125,0.6642303466796875
1772701768638190800,7.45519091796875,-1.4546661376953125,0.0862274169921875,0.43597412109375
1772701768648238600,7.465238525390625,-1.2751617431640625,0.101715087890625,0.3929290771484375
1772701768658287900,7.475287841796875,-1.1248016357421875,0.0746917724609375,0.4025421142578125
1772701768668335600,7.485335693359375,-0.968658447265625,0.0680694580078125,0.374664306640625
1772701768678385000,7.495385009765625,-0.7762298583984375,0.0670928955078125,0.3417816162109375
1772701768688432600,7.5054326171875,-0.6106414794921875,0.06109619140625,0.3088836669921875
1772701768698482000,7.51548193359375,-0.3732452392578125,0.0355072021484375,0.2835845947265625
1772701768708529700,7.52552978515625,-0.1380462646484375,0.003509521484375,0.2581024169921875
1772701768718578700,7.53557861328125,0.009429931640625,-0.0204010009765625,0.23199462890625
1772701768728627700,7.545627685546875,0.1062164306640625,-0.0037689208984375,0.1802825927734375
1772701768738675700,7.55567578125,0.1539154052734375,0.068511962890625,0.1537017822265625
1772701768748724700,7.565724853515625,0.2065582275390625,0.1530914306640625,0.2049102783203125
1772701768758772700,7.575772705078125,0.2428436279296875,0.1913909912109375,0.2870941162109375
1772701768768821800,7.58582177734375,0.2451629638671875,0.1425018310546875,0.28643798828125
1772701768778869500,7.595869384765625,0.1478424072265625,0.07928466796875,0.2324981689453125
1772701768788918800,7.605918701171875,0.03057861328125,0.016815185546875,0.164520263671875
1772701768798966500,7.615966552734375,-0.1161346435546875,-0.0408935546875,0.0720062255859375
1772701768809015800,7.626015869140625,-0.18853759765625,-0.0184173583984375,0.112091064453125
1772701768819064600,7.636064697265625,-0.2049713134765625,0.0279083251953125,0.204437255859375
1772701768829112800,7.64611279296875,-0.2351226806640625,0.02154541015625,0.2150726318359375
1772701768839161600,7.65616162109375,-0.2388153076171875,0.0041961669921875,0.2086029052734375
1772701768849209900,7.6662099609375,-0.2228851318359375,-0.0005950927734375,0.2596893310546875
1772701768859258600,7.676258544921875,-0.20965576171875,-0.0418243408203125,0.3595123291015625
1772701768869307000,7.686306884765625,-0.2496337890625,-0.10003662109375,0.4451751708984375
1772701768879355600,7.696355712890625,-0.3134918212890625,-0.10528564453125,0.519317626953125
1772701768889404700,7.70640478515625,-0.41387939453125,0.019287109375,0.553924560546875
1772701768899452700,7.71645263671875,-0.545654296875,0.21771240234375,0.548919677734375
1772701768909501700,7.726501708984375,-0.6895751953125,0.3451385498046875,0.55572509765625
1772701768919549700,7.7365498046875,-0.900390625,0.4003448486328125,0.6583099365234375
1772701768929598700,7.7465986328125,-1.009735107421875,0.4119110107421875,0.74755859375
1772701768939646700,7.756646728515625,-0.970184326171875,0.3876953125,0.7618865966796875
1772701768949695500,7.766695556640625,-0.8445587158203125,0.3152008056640625,0.74053955078125
1772701768959743700,7.77674365234375,-0.81634521484375,0.2414703369140625,0.7109527587890625
1772701768969792500,7.78679248046875,-0.889007568359375,0.214508056640625,0.67578125
1772701768979841800,7.796841796875,-0.99658203125,0.2299957275390625,0.675811767578125
1772701768989889500,7.8068896484375,-1.1324462890625,0.2142791748046875,0.7587127685546875
1772701768999938800,7.816938720703125,-1.3660888671875,0.2022552490234375,0.946563720703125
1772701769009986600,7.826986572265625,-1.65386962890625,0.241241455078125,1.2166595458984375
1772701769020035800,7.837035888671875,-1.9022369384765625,0.304412841796875,1.4801788330078125
1772701769030083600,7.84708349609375,-2.0643463134765625,0.3635711669921875,1.640167236328125
1772701769040132900,7.8571328125,-2.1674957275390625,0.4077606201171875,1.68695068359375
1772701769050180600,7.8671806640625,-2.2400665283203125,0.3612213134765625,1.73052978515625
1772701769060230000,7.87722998046875,-2.3561248779296875,0.29779052734375,1.7558746337890625
1772701769070278700,7.887278564453125,-2.5556488037109375,0.2890777587890625,1.803863525390625
1772701769080327000,7.897326904296875,-2.7144317626953125,0.29052734375,1.8394775390625
1772701769090375700,7.907375732421875,-2.7837371826171875,0.3072662353515625,1.79815673828125
1772701769100424000,7.917423828125,-2.7954559326171875,0.3231964111328125,1.7680206298828125
1772701769110472700,7.92747265625,-2.69940185546875,0.3146820068359375,1.7112884521484375
1772701769120520700,7.937520751953125,-2.5049285888671875,0.3193511962890625,1.5958099365234375
1772701769130569700,7.94756982421875,-2.2206878662109375,0.2860870361328125,1.4182891845703125
1772701769140617700,7.95761767578125,-1.87457275390625,0.239654541015625,1.219207763671875
1772701769150666800,7.967666748046875,-1.4945526123046875,0.2118988037109375,1.0430755615234375
1772701769160715500,7.977715576171875,-1.1151580810546875,0.1843719482421875,0.8830108642578125
1772701769170763800,7.987763671875,-0.7523956298828125,0.1552734375,0.7453765869140625
1772701769180812500,7.9978125,-0.4198150634765625,0.102996826171875,0.6332855224609375
1772701769190860800,8.00786083984375,-0.1220703125,0.029693603515625,0.5153961181640625
1772701769200910800,8.017910888671874,0.11224365234375,-0.0507965087890625,0.3865203857421875
1772701769210958800,8.027958740234375,0.29473876953125,-0.1207733154296875,0.244842529296875
1772701769221008000,8.0380078125,0.422393798828125,-0.1582183837890625,0.1244049072265625
1772701769231057000,8.048056884765625,0.529541015625,-0.17169189453125,0.0448150634765625
1772701769241105000,8.05810498046875,0.6264190673828125,-0.189666748046875,-0.0196380615234375
1772701769251154000,8.06815380859375,0.69158935546875,-0.192474365234375,-0.0856170654296875
1772701769261202000,8.078201904296876,0.758453369140625,-0.1929779052734375,-0.1715087890625
1772701769271251000,8.0882509765625,0.8093719482421875,-0.1818389892578125,-0.2517242431640625
1772701769281299000,8.098298828125,0.7944793701171875,-0.1623077392578125,-0.3187255859375
1772701769291348000,8.108347900390624,0.7602386474609375,-0.1667633056640625,-0.3488922119140625
1772701769301396000,8.11839599609375,0.67535400390625,-0.14801025390625,-0.268280029296875
1772701769311445000,8.128445068359374,0.55853271484375,-0.092681884765625,-0.2237091064453125
1772701769321493800,8.13849365234375,0.45928955078125,-0.06463623046875,-0.1717071533203125
1772701769331542000,8.1485419921875,0.3374481201171875,-0.0388336181640625,-0.09423828125
1772701769341590800,8.1585908203125,0.237518310546875,-0.0113983154296875,-0.0291290283203125
1772701769351638800,8.168638671875,0.1598663330078125,0.007354736328125,0.00128173828125
1772701769361687800,8.178687744140625,0.0974578857421875,0.0279388427734375,0.0226287841796875
1772701769371735800,8.18873583984375,0.0358734130859375,0.038116455078125,0.0489959716796875
1772701769381784800,8.198784912109375,-0.021697998046875,0.0452728271484375,0.0703582763671875
1772701769391832800,8.208832763671875,-0.0721893310546875,0.0440673828125,0.0674896240234375
1772701769401881900,8.2188818359375,-0.109771728515625,0.0326690673828125,0.0615234375
1772701769411931000,8.228930908203125,-0.1383209228515625,0.0342864990234375,0.0582122802734375
1772701769421979000,8.238978759765626,-0.159088134765625,0.0378570556640625,0.047637939453125
1772701769432028000,8.24902783203125,-0.1822509765625,0.0426177978515625,0.0550994873046875
1772701769442076000,8.259075927734376,-0.2064361572265625,0.041015625,0.076690673828125
1772701769452125000,8.269125,-0.240631103515625,0.0316162109375,0.1053619384765625
1772701769462173000,8.2791728515625,-0.2676849365234375,0.039520263671875,0.1208648681640625
1772701769472222000,8.289221923828125,-0.2810211181640625,0.0487213134765625,0.1417236328125
1772701769482271000,8.29927099609375,-0.27984619140625,0.049560546875,0.1942291259765625
1772701769492319000,8.309319091796874,-0.287628173828125,0.0265045166015625,0.29364013671875
1772701769502368000,8.319367919921875,-0.3318328857421875,-0.0080413818359375,0.4273529052734375
1772701769512416000,8.329416015625,-0.440155029296875,-0.0048675537109375,0.58221435546875
1772701769522465000,8.339465087890625,-0.6307373046875,0.0228424072265625,0.7303466796875
1772701769532513000,8.349512939453126,-0.912139892578125,0.0556488037109375,0.9326934814453125
1772701769542562000,8.35956201171875,-1.2699737548828125,0.13043212890625,1.198974609375
1772701769552610000,8.369610107421876,-1.657562255859375,0.2523040771484375,1.4534454345703125
1772701769562658800,8.379658935546875,-2.05718994140625,0.3780517578125,1.7069091796875
1772701769572707800,8.389707763671876,-2.5775146484375,0.451995849609375,2.035400390625
1772701769582755800,8.399755859375,-3.1320648193359375,0.447723388671875,2.336151123046875
1772701769592804900,8.409804931640625,-3.262542724609375,0.3677978515625,2.288818359375
1772701769602852900,8.419852783203124,-2.9052734375,0.3726959228515625,1.958404541015625
1772701769612902000,8.42990185546875,-2.46551513671875,0.3533782958984375,1.7712554931640625
1772701769622950000,8.439949951171876,-2.1491241455078125,0.2034454345703125,1.523223876953125
1772701769632999000,8.4499990234375,-1.9280242919921875,0.1179656982421875,1.251312255859375
1772701769643048000,8.4600478515625,-1.65057373046875,0.0704345703125,1.0206451416015625
1772701769653096000,8.470095947265625,-1.473236083984375,0.04901123046875,0.85345458984375
1772701769663144700,8.480144775390626,-1.3332672119140625,0.0456695556640625,0.7501678466796875
1772701769673193000,8.49019287109375,-1.2012481689453125,0.046173095703125,0.665496826171875
1772701769683241700,8.50024169921875,-1.0556488037109375,0.0611114501953125,0.5927734375
1772701769693290000,8.5102900390625,-0.9079437255859375,0.0777130126953125,0.510955810546875
1772701769703338800,8.5203388671875,-0.7595062255859375,0.08538818359375,0.4204254150390625
1772701769713387000,8.530386962890624,-0.5872802734375,0.0766143798828125,0.3410186767578125
1772701769723435800,8.540435791015625,-0.4390716552734375,0.05682373046875,0.2905731201171875
1772701769733485000,8.550485107421874,-0.3221893310546875,0.0244140625,0.2854156494140625
1772701769743532800,8.56053271484375,-0.2294158935546875,0.002288818359375,0.3166351318359375
1772701769753582000,8.57058203125,-0.178436279296875,0.0080718994140625,0.3285369873046875
1772701769763629800,8.5806298828125,-0.10888671875,0.0286102294921875,0.345001220703125
1772701769773679000,8.59067919921875,-0.067962646484375,0.048614501953125,0.3369903564453125
1772701769783726800,8.600726806640624,-0.0614776611328125,0.0329437255859375,0.3462982177734375
1772701769793775900,8.61077587890625,-0.072479248046875,0.027618408203125,0.3143463134765625
1772701769803825000,8.620824951171874,-0.0804290771484375,0.0484771728515625,0.2685546875
1772701769813873000,8.630872802734375,-0.10888671875,0.0880584716796875,0.2160797119140625
1772701769823922000,8.640921875,-0.1499786376953125,0.1179351806640625,0.1802978515625
1772701769833970000,8.650969970703125,-0.1908416748046875,0.1252899169921875,0.1575469970703125
1772701769844019000,8.66101904296875,-0.2089080810546875,0.10418701171875,0.1494598388671875
1772701769854067000,8.67106689453125,-0.19366455078125,0.0767974853515625,0.1649169921875
1772701769864116000,8.681115966796876,-0.1974945068359375,0.05377197265625,0.1846771240234375
1772701769874164700,8.691164794921875,-0.22076416015625,0.040863037109375,0.20654296875
1772701769884213000,8.701212890625,-0.2260589599609375,0.049530029296875,0.2535858154296875
1772701769894261800,8.71126171875,-0.2102203369140625,0.0608673095703125,0.348602294921875
1772701769904310000,8.72131005859375,-0.2117767333984375,0.068572998046875,0.4345703125
1772701769914358800,8.73135888671875,-0.237823486328125,0.0792999267578125,0.507415771484375
1772701769924407000,8.741406982421875,-0.270233154296875,0.102294921875,0.5547332763671875
1772701769934455800,8.751455810546876,-0.3177490234375,0.11834716796875,0.604736328125
1772701769944504000,8.761504150390625,-0.3847198486328125,0.118011474609375,0.6652679443359375
1772701769954552800,8.771552734375,-0.476531982421875,0.1201629638671875,0.7295379638671875
1772701769964602000,8.78160205078125,-0.5740814208984375,0.12750244140625,0.7651214599609375
1772701769974649900,8.79164990234375,-0.6697845458984375,0.12664794921875,0.807891845703125
1772701769984699100,8.80169921875,-0.7053680419921875,0.095489501953125,0.87835693359375
1772701769994747000,8.811746826171875,-0.696197509765625,0.0656280517578125,0.9215087890625
1772701770004796000,8.8217958984375,-0.7497711181640625,0.0730438232421875,0.9683990478515625
1772701770014844000,8.831843994140625,-0.850830078125,0.09869384765625,1.041839599609375
1772701770024893000,8.841892822265624,-1.019775390625,0.1423492431640625,1.1075439453125
1772701770034942000,8.85194189453125,-1.2496490478515625,0.1875,1.121490478515625
1772701770044990000,8.861989990234376,-1.457611083984375,0.205169677734375,1.1880950927734375
1772701770055039000,8.8720390625,-1.6617889404296875,0.15606689453125,1.3080902099609375
1772701770065086700,8.882086669921875,-1.8929290771484375,0.1312713623046875,1.4553985595703125
1772701770075136000,8.892135986328125,-2.103790283203125,0.1556854248046875,1.627166748046875
1772701770085183700,8.902183837890625,-2.2607269287109375,0.175994873046875,1.8217620849609375
1772701770095233000,8.91223291015625,-2.331390380859375,0.1919708251953125,1.940521240234375
1772701770105281800,8.92228173828125,-2.2948150634765625,0.1453094482421875,1.9201812744140625
1772701770115330000,8.932330078125,-2.2478485107421875,0.0517730712890625,1.820556640625
1772701770125378800,8.94237890625,-2.2278900146484375,0.030487060546875,1.7559051513671875
1772701770135427000,8.952427001953126,-2.23931884765625,0.0952911376953125,1.7473297119140625
1772701770145475800,8.962475830078125,-2.284027099609375,0.1425323486328125,1.7883148193359375
1772701770155524000,8.972524169921876,-2.2891845703125,0.17864990234375,1.82476806640625
1772701770165572900,8.98257275390625,-2.2739410400390625,0.211181640625,1.8356170654296875
1772701770175620900,8.992620849609375,-2.2470245361328125,0.2145538330078125,1.808837890625
1772701770185670000,9.002669921875,-2.1141204833984375,0.1723480224609375,1.669219970703125
1772701770195719000,9.012718994140625,-1.81072998046875,0.079681396484375,1.466949462890625
1772701770205765600,9.022765625,-1.4246368408203125,0.0070953369140625,1.2567901611328125
1772701770215815000,9.03281494140625,-1.057525634765625,0.008392333984375,1.0577850341796875
1772701770225862700,9.042862548828126,-0.7054290771484375,0.0130462646484375,0.8703155517578125
1772701770235912000,9.052911865234375,-0.3694915771484375,0.0009613037109375,0.66448974609375
1772701770245959700,9.062959716796875,-0.0736083984375,-0.0186767578125,0.453369140625
1772701770256009000,9.073009033203125,0.184783935546875,-0.04840087890625,0.299560546875
1772701770266057700,9.0830576171875,0.3693084716796875,-0.0897369384765625,0.2054443359375
1772701770276106000,9.09310595703125,0.502166748046875,-0.096710205078125,0.0909881591796875
1772701770286154800,9.10315478515625,0.6408538818359375,-0.0685272216796875,-0.03509521484375
1772701770296203000,9.113203125,0.7993316650390625,-0.0338287353515625,-0.1612396240234375
1772701770306251800,9.123251708984375,0.8943023681640625,-0.0394744873046875,-0.296417236328125
1772701770316300000,9.133300048828126,0.9329833984375,-0.0440216064453125,-0.4181976318359375
1772701770326348800,9.143348876953125,0.958770751953125,-0.0261383056640625,-0.5099029541015625
1772701770336397800,9.153397705078126,0.934173583984375,-0.017852783203125,-0.543609619140625
1772701770346445800,9.16344580078125,0.87823486328125,-0.001861572265625,-0.5883026123046875
1772701770356494800,9.173494873046875,0.72967529296875,0.0383453369140625,-0.457122802734375
1772701770366542800,9.18354296875,0.5443115234375,0.045166015625,-0.2011566162109375
1772701770376592000,9.193591796875,0.39886474609375,0.0450592041015625,-0.133148193359375
1772701770386640000,9.203639892578124,0.3192138671875,0.051116943359375,-0.075531005859375
1772701770396689000,9.21368896484375,0.252410888671875,0.050689697265625,-0.0335235595703125
1772701770406738000,9.223738037109374,0.1822052001953125,0.06402587890625,0.0058746337890625
1772701770416785700,9.23378564453125,0.0945281982421875,0.0849456787109375,0.059906005859375
1772701770426835000,9.2438349609375,-0.0023651123046875,0.086395263671875,0.1114044189453125
1772701770436882700,9.253882568359375,-0.0721435546875,0.06134033203125,0.146759033203125
1772701770446931700,9.263931640625,-0.142425537109375,0.0346527099609375,0.1620025634765625
1772701770456979700,9.273979736328124,-0.2311248779296875,0.02056884765625,0.173095703125
1772701770467028700,9.28402880859375,-0.358978271484375,0.0461273193359375,0.1702880859375
1772701770477077800,9.294077880859374,-0.4792022705078125,0.0923004150390625,0.1467132568359375
1772701770487125800,9.304125732421875,-0.5159759521484375,0.11273193359375,0.1093292236328125
1772701770497174800,9.3141748046875,-0.4514617919921875,0.081573486328125,0.1060943603515625
1772701770507222800,9.324222900390625,-0.3459014892578125,0.04638671875,0.12811279296875
1772701770517271800,9.334271728515626,-0.30316162109375,0.011749267578125,0.1600799560546875
1772701770527319800,9.34431982421875,-0.2770843505859375,-0.0230560302734375,0.1895294189453125
1772701770537368800,9.354368896484376,-0.2869720458984375,-0.0326690673828125,0.23187255859375
1772701770547416800,9.364416748046875,-0.2919769287109375,-0.0089874267578125,0.301910400390625
1772701770557465900,9.3744658203125,-0.30340576171875,0.0525665283203125,0.3865203857421875
1772701770567515000,9.384514892578125,-0.3300933837890625,0.08404541015625,0.4658050537109375
1772701770577563000,9.39456298828125,-0.4023895263671875,0.0960235595703125,0.5275421142578125
1772701770587612000,9.40461181640625,-0.540130615234375,0.1539306640625,0.5995635986328125
1772701770597660000,9.414659912109375,-0.80059814453125,0.263519287109375,0.733978271484375
1772701770607709000,9.424708984375,-1.200897216796875,0.4210052490234375,0.99267578125
1772701770617757000,9.4347568359375,-1.63250732421875,0.598724365234375,1.342742919921875
1772701770627805700,9.4448056640625,-2.0725250244140625,0.7462158203125,1.5754852294921875
1772701770637854700,9.454854736328125,-2.39910888671875,0.802337646484375,1.5487518310546875
1772701770647902700,9.46490283203125,-2.5189971923828125,0.8264007568359375,1.5657806396484375
1772701770657951700,9.47495166015625,-2.4321746826171875,0.9335784912109375,1.6706390380859375
1772701770667999700,9.484999755859375,-2.1239013671875,0.94482421875,1.780609130859375
1772701770678048800,9.495048828125,-1.8746337890625,0.894805908203125,1.8454437255859375
1772701770688096800,9.5050966796875,-1.7130126953125,0.861175537109375,1.8378448486328125
1772701770698145800,9.515145751953124,-1.5740966796875,0.8228912353515625,1.60308837890625
1772701770708194800,9.52519482421875,-1.5958251953125,0.8712615966796875,1.3839111328125
1772701770718242800,9.535242919921876,-1.62506103515625,0.865875244140625,1.080902099609375
1772701770728291800,9.545291748046875,-1.47064208984375,0.748870849609375,0.807403564453125
1772701770738339800,9.55533984375,-1.187408447265625,0.5903778076171875,0.7032928466796875
1772701770748388900,9.565388916015625,-0.98992919921875,0.399169921875,0.6185760498046875
1772701770758436900,9.575436767578125,-0.8275146484375,0.2536773681640625,0.5315093994140625
1772701770768486000,9.58548583984375,-0.6713409423828125,0.21270751953125,0.4487457275390625
1772701770778535000,9.595534912109375,-0.499908447265625,0.18170166015625,0.40155029296875
1772701770788583000,9.6055830078125,-0.316436767578125,0.1446990966796875,0.3477783203125
1772701770798632000,9.6156318359375,-0.2139739990234375,0.1230316162109375,0.344635009765625
1772701770808680000,9.625679931640626,-0.1651763916015625,0.1211700439453125,0.4030609130859375
1772701770818729000,9.63572900390625,-0.133026123046875,0.1569366455078125,0.43023681640625
1772701770828777000,9.64577685546875,-0.1488189697265625,0.2164154052734375,0.4460296630859375
1772701770838825700,9.65582568359375,-0.206146240234375,0.271240234375,0.4774322509765625
1772701770848874800,9.665874755859376,-0.2588653564453125,0.2795257568359375,0.47247314453125
1772701770858922800,9.6759228515625,-0.325103759765625,0.248291015625,0.46160888671875
1772701770868971800,9.6859716796875,-0.4110565185546875,0.2176971435546875,0.4387359619140625
1772701770879021000,9.69602099609375,-0.5655975341796875,0.1969146728515625,0.39923095703125
1772701770889068800,9.70606884765625,-0.6993255615234375,0.2292633056640625,0.4049835205078125
1772701770899117800,9.716117919921874,-0.70867919921875,0.291595458984375,0.4277191162109375
1772701770909165800,9.726165771484375,-0.665496826171875,0.31097412109375,0.4541778564453125
1772701770919214800,9.73621484375,-0.659881591796875,0.3306732177734375,0.5108642578125
1772701770929262800,9.746262939453125,-0.7141571044921875,0.4015960693359375,0.5838470458984375
1772701770939311600,9.7563115234375,-0.78497314453125,0.4756011962890625,0.6427764892578125
1772701770949361000,9.76636083984375,-0.83184814453125,0.4984283447265625,0.682403564453125
1772701770959408600,9.77640869140625,-0.866119384765625,0.4857940673828125,0.701080322265625
1772701770969458000,9.7864580078125,-0.9001922607421875,0.4934234619140625,0.70819091796875
1772701770979505700,9.796505615234375,-0.9068450927734375,0.491546630859375,0.7196044921875
1772701770989555000,9.806554931640624,-0.8589324951171875,0.4565582275390625,0.728759765625
1772701770999602700,9.816602783203125,-0.8031005859375,0.4141082763671875,0.747650146484375
1772701771009652000,9.82665185546875,-0.765899658203125,0.38037109375,0.77301025390625
1772701771019700700,9.83670068359375,-0.749176025390625,0.3485260009765625,0.78155517578125
1772701771029749000,9.8467490234375,-0.73651123046875,0.320892333984375,0.772552490234375
1772701771039797800,9.8567978515625,-0.740753173828125,0.3122406005859375,0.745635986328125
1772701771049846000,9.866845947265626,-0.759490966796875,0.314971923828125,0.7047882080078125
1772701771059894800,9.876894775390625,-0.783416748046875,0.3032684326171875,0.6644744873046875
1772701771069942800,9.88694287109375,-0.784576416015625,0.2673187255859375,0.62896728515625
1772701771079991800,9.89699169921875,-0.7575836181640625,0.247650146484375,0.616363525390625
1772701771090040800,9.907040771484375,-0.720855712890625,0.259857177734375,0.6074066162109375
1772701771100088800,9.9170888671875,-0.6773529052734375,0.2646331787109375,0.5938568115234375
1772701771110137900,9.927137939453125,-0.6295013427734375,0.26129150390625,0.587493896484375
1772701771120185900,9.937185791015626,-0.59912109375,0.2733917236328125,0.5710601806640625
1772701771130234600,9.947234619140625,-0.581817626953125,0.29522705078125,0.5704803466796875
1772701771140283000,9.957282958984376,-0.558807373046875,0.29498291015625,0.5915985107421875
1772701771150331600,9.96733154296875,-0.5500335693359375,0.2963714599609375,0.6329498291015625
1772701771160381000,9.977380859375,-0.56573486328125,0.303619384765625,0.6559906005859375
1772701771170428700,9.9874287109375,-0.59674072265625,0.2913360595703125,0.68609619140625
1772701771180478000,9.99747802734375,-0.6232757568359375,0.276123046875,0.7004547119140625
1772701771190525700,10.007525634765624,-0.6517181396484375,0.2788238525390625,0.7009735107421875
1772701771200575000,10.017574951171875,-0.6870269775390625,0.2682037353515625,0.7059478759765625
1772701771210623700,10.027623779296874,-0.735687255859375,0.270721435546875,0.6975250244140625
1772701771220672000,10.037672119140625,-0.761199951171875,0.282958984375,0.67388916015625
1772701771230720800,10.047720703125,-0.7392578125,0.2907257080078125,0.6532135009765625
1772701771240768800,10.057768798828125,-0.6945648193359375,0.2773590087890625,0.6654205322265625
1772701771250817800,10.06781787109375,-0.641143798828125,0.263580322265625,0.68438720703125
1772701771260865800,10.07786572265625,-0.6141204833984375,0.2694091796875,0.7021942138671875
1772701771270914800,10.087914794921875,-0.6268157958984375,0.269744873046875,0.7164764404296875
1772701771280963800,10.0979638671875,-0.6515045166015625,0.270294189453125,0.710540771484375
1772701771291011800,10.10801171875,-0.67413330078125,0.2771148681640625,0.713897705078125
1772701771301060600,10.118060546875,-0.6831817626953125,0.2763519287109375,0.7176055908203125
1772701771311108900,10.12810888671875,-0.68804931640625,0.27728271484375,0.7176513671875
1772701771321157600,10.13815771484375,-0.690582275390625,0.2596435546875,0.720306396484375
1772701771331206000,10.148205810546875,-0.679595947265625,0.2541961669921875,0.7107391357421875
1772701771341254700,10.158254638671876,-0.68212890625,0.261260986328125,0.6917877197265625
1772701771351304000,10.168303955078125,-0.68768310546875,0.25885009765625,0.680877685546875
1772701771361351700,10.1783515625,-0.68060302734375,0.2500152587890625,0.6799774169921875
1772701771371401000,10.18840087890625,-0.6709442138671875,0.2516326904296875,0.6896209716796875
1772701771381448700,10.19844873046875,-0.669952392578125,0.248687744140625,0.69970703125
1772701771391497700,10.208497802734374,-0.6732025146484375,0.2486419677734375,0.7020721435546875
1772701771401545700,10.218545654296875,-0.6739959716796875,0.252655029296875,0.6902008056640625
1772701771411594800,10.2285947265625,-0.6778106689453125,0.2569122314453125,0.67681884765625
1772701771421643800,10.238643798828125,-0.6881103515625,0.2584991455078125,0.6750640869140625
1772701771431691800,10.24869189453125,-0.6932525634765625,0.252777099609375,0.68023681640625
1772701771441740800,10.25874072265625,-0.695068359375,0.25653076171875,0.6947174072265625
1772701771451788500,10.26878857421875,-0.684234619140625,0.2417449951171875,0.713897705078125
1772701771461837800,10.278837890625,-0.6590118408203125,0.228607177734375,0.709259033203125
1772701771471886800,10.288886962890626,-0.647857666015625,0.2353057861328125,0.6958160400390625
1772701771481934800,10.298934814453125,-0.658477783203125,0.240325927734375,0.6903839111328125
1772701771491984000,10.30898388671875,-0.6584930419921875,0.2579345703125,0.6855010986328125
1772701771502032000,10.319031982421874,-0.64801025390625,0.2680816650390625,0.67938232421875
1772701771512080600,10.32908056640625,-0.5814971923828125,0.2441253662109375,0.674652099609375
1772701771522129000,10.33912890625,-0.54473876953125,0.240447998046875,0.667633056640625
1772701771532177700,10.349177734375,-0.671356201171875,0.2127532958984375,0.69720458984375
1772701771542226700,10.359226806640624,-0.7491912841796875,0.2097930908203125,0.7020721435546875
1772701771552274700,10.369274658203125,-0.7808380126953125,0.2440032958984375,0.6913604736328125
1772701771562323700,10.37932373046875,-0.733245849609375,0.2585296630859375,0.6961669921875
1772701771572371700,10.389371826171875,-0.7020111083984375,0.2536468505859375,0.715118408203125
1772701771582420700,10.399420654296875,-0.6517486572265625,0.2478179931640625,0.723602294921875
1772701771592468700,10.40946875,-0.619842529296875,0.2596282958984375,0.7148895263671875
