time,seconds_elapsed,z,y,x
1772701761238707700,0.055707763671875,-0.05125174671411514,-0.13703642785549164,0.06329251825809479
1772701761248757000,0.065757080078125,-0.05244963616132736,-0.13328324258327484,0.07942381501197815
1772701761258804700,0.0758046875,-0.059866178780794144,-0.13492809236049652,0.08895458281040192
1772701761268853800,0.085853759765625,-0.07279689610004425,-0.12387437373399734,0.08815936744213104
1772701761278901800,0.09590185546875,-0.08785430341959,-0.09313038736581802,0.08291366696357727
1772701761288950800,0.10595068359375,-0.11014042794704437,-0.08507805317640305,0.07320964336395264
1772701761298998800,0.115998779296875,-0.1199427992105484,-0.07377493381500244,0.06054636090993881
1772701761309047800,0.1260478515625,-0.12540307641029358,-0.06234704703092575,0.04483051598072052
1772701761319095800,0.136095703125,-0.1265733242034912,-0.062256064265966415,0.033018190413713455
1772701761329144800,0.146144775390625,-0.12409152835607529,-0.07317502796649933,0.034365214407444
1772701761339192800,0.15619287109375,-0.11322051286697388,-0.09644284099340439,0.05823345482349396
1772701761349241900,0.166241943359375,-0.11079677194356918,-0.1122489646077156,0.09104865789413452
1772701761359289900,0.176289794921875,-0.11238864064216614,-0.12890830636024475,0.1259308010339737
1772701761369338600,0.186338623046875,-0.11566060036420822,-0.14775629341602325,0.15214216709136963
1772701761379386600,0.19638671875,-0.1063029021024704,-0.1475682407617569,0.16491787135601044
1772701761389435600,0.206435546875,-0.09999360889196396,-0.13640427589416504,0.1686985045671463
1772701761399483600,0.216483642578125,-0.0984257161617279,-0.12256710231304169,0.15620945394039154
1772701761409532700,0.22653271484375,-0.09246077388525009,-0.1171925812959671,0.15612901747226715
1772701761419580700,0.23658056640625,-0.08364138752222061,-0.11262248456478119,0.1559736430644989
1772701761429629700,0.246629638671875,-0.06851010769605637,-0.10632623732089996,0.14742515981197357
1772701761439677700,0.256677734375,-0.055629029870033264,-0.09754200279712677,0.13754330575466156
1772701761449726700,0.266726806640625,-0.0374300554394722,-0.0901394784450531,0.13132935762405396
1772701761459774700,0.276774658203125,-0.015718966722488403,-0.07069055736064911,0.11878377944231033
1772701761469823700,0.28682373046875,0.003489881753921509,-0.03471444919705391,0.10636252909898758
1772701761479871700,0.296871826171875,0.02284318581223488,-0.0002712821587920189,0.10160773247480392
1772701761489920800,0.306920654296875,0.031679291278123856,0.03177054226398468,0.111045703291893
1772701761499968800,0.31696875,0.01545691303908825,0.05273552983999252,0.13418225944042206
1772701761510017800,0.327017822265625,-0.01919187791645527,0.062493883073329926,0.1653692126274109
1772701761520065800,0.337065673828125,-0.050624288618564606,0.04350697994232178,0.18819166719913483
1772701761530114800,0.34711474609375,-0.07294317334890366,0.03766852989792824,0.190140038728714
1772701761540162800,0.357162841796875,-0.08125130087137222,0.016381951048970222,0.14438344538211823
1772701761550211600,0.367211669921875,-0.08577494323253632,0.032098859548568726,0.07567282021045685
1772701761560259800,0.377259765625,-0.10419151932001114,0.04648571088910103,-0.02276015654206276
1772701761570308600,0.38730859375,-0.13298748433589935,0.011750102043151855,-0.17168812453746796
1772701761580356900,0.39735693359375,-0.18011677265167236,0.0006330059841275215,-0.31850171089172363
1772701761590405600,0.407405517578125,-0.22672556340694427,0.0557178258895874,-0.41444048285484314
1772701761600454000,0.417453857421875,-0.2856542468070984,0.15315519273281097,-0.4490496814250946
1772701761610502700,0.427502685546875,-0.3545158803462982,0.30151671171188354,-0.43396154046058655
1772701761620551000,0.437551025390625,-0.42556580901145935,0.4686252474784851,-0.3967995345592499
1772701761630599700,0.447599609375,-0.48034462332725525,0.6076693534851074,-0.3590548038482666
1772701761640648000,0.45764794921875,-0.507980227470398,0.678853452205658,-0.33924075961112976
1772701761650696700,0.46769677734375,-0.515677809715271,0.6569228172302246,-0.3075241148471832
1772701761660744700,0.47774462890625,-0.47224587202072144,0.5624558329582214,-0.3099651038646698
1772701761670793700,0.487793701171875,-0.4284057021141052,0.5215597748756409,-0.2601698637008667
1772701761680841700,0.497841796875,-0.39516621828079224,0.5305190086364746,-0.15769483149051666
1772701761690890800,0.507890869140625,-0.3564038872718811,0.2008441835641861,-0.2384495884180069
1772701761700938800,0.517938720703125,-0.3220610022544861,-0.06561154872179031,-0.30053460597991943
1772701761710987800,0.52798779296875,-0.29901906847953796,-0.30068185925483704,-0.3536849319934845
1772701761721035800,0.538035888671875,-0.2262968122959137,-0.46920299530029297,-0.3767974078655243
1772701761731084800,0.548084716796875,-0.10268885642290115,-0.5063628554344177,-0.33079686760902405
1772701761741132800,0.5581328125,0.01955089531838894,-0.6053288578987122,-0.27401262521743774
1772701761751181800,0.568181884765625,0.12111373990774155,-0.7892976403236389,-0.20778033137321472
1772701761761229800,0.578229736328125,0.19964797794818878,-1.0390923023223877,-0.1400643140077591
1772701761771278800,0.58827880859375,0.19730040431022644,-1.3064230680465698,-0.14964236319065094
1772701761781326800,0.598326904296875,0.08143860846757889,-1.427087426185608,-0.2972732484340668
1772701761791376000,0.6083759765625,-0.10607722401618958,-1.2359449863433838,-0.5773791670799255
1772701761801424000,0.618423828125,-0.2808278799057007,-0.780674397945404,-0.9691170454025269
1772701761811473000,0.628472900390625,-0.42814570665359497,-0.19676727056503296,-1.3303128480911255
1772701761821521000,0.63852099609375,-0.5397928953170776,0.36370551586151123,-1.5315502882003784
1772701761831569700,0.648569580078125,-0.45138153433799744,0.46371015906333923,-1.4081511497497559
1772701761841618000,0.658617919921875,-0.07514601945877075,-0.3492695987224579,-0.949301540851593
1772701761851666700,0.668666748046875,0.1566866785287857,-1.4203884601593018,-0.5254924893379211
1772701761861715000,0.67871484375,0.14511272311210632,-2.027507781982422,-0.2782977521419525
1772701761871763700,0.688763671875,0.12135227024555206,-1.8971580266952515,-0.11887932568788528
1772701761881812000,0.69881201171875,0.015982063487172127,-1.0874396562576294,0.0626806765794754
1772701761891860700,0.70886083984375,-0.015029115602374077,-0.037468500435352325,0.3395724594593048
1772701761901909000,0.718908935546875,-0.04776154085993767,0.21407443284988403,0.6170687079429626
1772701761911957800,0.728957763671875,-0.11256344616413116,0.15841037034988403,0.8687600493431091
1772701761922006000,0.739006103515625,-0.17155387997627258,0.07842082530260086,1.0744104385375977
1772701761932054800,0.7490546875,-0.19107165932655334,0.18048328161239624,1.204347848892212
1772701761942102800,0.759102783203125,-0.2312411516904831,0.4297482669353485,1.2582921981811523
1772701761952151800,0.76915185546875,-0.29701513051986694,0.692094087600708,1.2209062576293945
1772701761962199800,0.77919970703125,-0.3332846462726593,0.9043468236923218,1.1117051839828491
1772701761972248800,0.789248779296875,-0.3450329303741455,0.9176769852638245,0.9643029570579529
1772701761982296800,0.799296875,-0.2807886302471161,0.6061508655548096,0.8623222708702087
1772701761992345900,0.809345947265625,-0.15977488458156586,0.014412730932235718,0.8138463497161865
1772701762002393600,0.8193935546875,-0.0984441265463829,-0.7256218791007996,0.8122648000717163
1772701762012443000,0.82944287109375,-0.08617787063121796,-1.3103327751159668,0.8617700338363647
1772701762022490600,0.83949072265625,-0.13293077051639557,-1.4914416074752808,0.8824593424797058
1772701762032540000,0.849539794921875,-0.19857075810432434,-1.3634309768676758,0.8938224911689758
1772701762042587600,0.859587646484375,-0.2624199390411377,-1.0905784368515015,0.8881696462631226
1772701762052637000,0.869636962890625,-0.328784316778183,-0.8404892683029175,0.8128687739372253
1772701762062684700,0.8796845703125,-0.3623879849910736,-0.6729623079299927,0.6767992973327637
1772701762072734000,0.88973388671875,-0.3711678981781006,-0.49459150433540344,0.5621001124382019
1772701762082781700,0.89978173828125,-0.3669196367263794,-0.30729255080223083,0.48708876967430115
1772701762092831000,0.9098310546875,-0.338000625371933,-0.07157162576913834,0.40323248505592346
1772701762102878700,0.919878662109375,-0.2903069257736206,0.11024788022041321,0.36216649413108826
1772701762112927700,0.929927734375,-0.213424414396286,0.2611484229564667,0.29961949586868286
1772701762122975700,0.939975830078125,-0.11207342892885208,0.3786824941635132,0.25015562772750854
1772701762133024800,0.950024658203125,0.011763026937842369,0.41891834139823914,0.18063540756702423
1772701762143072800,0.96007275390625,0.16450221836566925,0.34066879749298096,0.10182466357946396
1772701762153121800,0.970121826171875,0.3371805250644684,0.11019404977560043,0.041860658675432205
1772701762163169800,0.980169677734375,0.507922887802124,-0.2121412605047226,-0.00044546707067638636
1772701762173218800,0.99021875,0.66108238697052,-0.5660436749458313,0.00045840974780730903
1772701762183266800,1.000266845703125,0.8191965222358704,-0.9530613422393799,0.003393277758732438
1772701762193315600,1.010315673828125,0.944678008556366,-1.261654257774353,-0.17242969572544098
1772701762203363300,1.02036328125,0.7872575521469116,-1.1028941869735718,-0.5105875134468079
1772701762213412400,1.030412353515625,0.5051481127738953,-0.7915675044059753,-0.9328660368919373
1772701762223460400,1.04046044921875,1.1639790534973145,-1.7417950630187988,-1.1685060262680054
1772701762233509400,1.05050927734375,2.1219258308410645,-3.762125253677368,-1.2019678354263306
1772701762243557400,1.060557373046875,2.2232301235198975,-3.4911670684814453,-1.2144560813903809
1772701762253606400,1.0706064453125,1.6457297801971436,-0.34942373633384705,-1.0327073335647583
1772701762263654400,1.080654296875,1.56338369846344,2.473501443862915,-0.665656328201294
1772701762273703400,1.090703369140625,2.083953857421875,1.4111324548721313,-0.4828479290008545
1772701762283751400,1.10075146484375,2.3243324756622314,0.3497830927371979,-0.5722057223320007
1772701762293800400,1.110800537109375,2.2248218059539795,0.23299388587474823,-0.8349856734275818
1772701762303848400,1.120848388671875,1.504249930381775,-0.08653447031974792,-0.8407297730445862
1772701762313897500,1.1308974609375,0.4845980703830719,-0.5697687864303589,-0.6099761724472046
1772701762323946500,1.140946533203125,-0.33609405159950256,-1.2060885429382324,-0.13918030261993408
1772701762333994500,1.150994384765625,-0.8363144993782043,-2.1096396446228027,0.39921659231185913
1772701762344042200,1.161042236328125,-1.0644088983535767,-2.6419384479522705,1.052121877670288
1772701762354091500,1.171091552734375,-1.2905638217926025,-2.705597400665283,1.618178367614746
1772701762364140500,1.181140625,-1.3675758838653564,-2.491895914077759,1.8060969114303589
1772701762374188500,1.1911884765625,-1.271901249885559,-1.943435788154602,1.7221578359603882
1772701762384237300,1.2012373046875,-1.07091224193573,-0.9078580737113953,1.6569088697433472
1772701762394285600,1.21128564453125,-0.8411856889724731,0.3811992406845093,1.610287070274353
1772701762404334300,1.221334228515625,-0.7478029131889343,1.558427095413208,1.5776352882385254
1772701762414382300,1.23138232421875,-0.6342960596084595,2.3671274185180664,1.4198371171951294
1772701762424431400,1.241431396484375,-0.5203308463096619,2.6138267517089844,1.0243788957595825
1772701762434479400,1.251479248046875,-0.46442604064941406,2.5021986961364746,0.45989930629730225
1772701762444528400,1.2615283203125,-0.4528251588344574,2.1453092098236084,-0.08720064908266068
1772701762454576400,1.271576416015625,-0.4713525176048279,1.6949000358581543,-0.5328225493431091
1772701762464625400,1.28162548828125,-0.5224229097366333,1.4180164337158203,-0.8815346360206604
1772701762474673400,1.29167333984375,-0.5835099816322327,1.3736380338668823,-1.216423511505127
1772701762484722400,1.301722412109375,-0.5969119071960449,1.3424949645996094,-1.4973070621490479
1772701762494770200,1.311770263671875,-0.49373915791511536,0.9589062333106995,-1.67839515209198
1772701762504819500,1.3218193359375,-0.22443906962871552,0.0297698937356472,-1.656890869140625
1772701762514867200,1.3318671875,0.07669493556022644,-1.03632652759552,-1.3864902257919312
1772701762524916500,1.34191650390625,0.358174592256546,-0.86404949426651,-0.8859054446220398
1772701762534964200,1.351964111328125,0.5210633873939514,-0.06849054992198944,-0.4648527204990387
1772701762545013500,1.362013427734375,0.4601546823978424,1.1731477975845337,0.03568122535943985
1772701762555061200,1.372061279296875,0.3245598375797272,1.786405324935913,0.3902265131473541
1772701762565110500,1.382110595703125,0.17948183417320251,1.8288428783416748,0.5747660398483276
1772701762575158300,1.392158203125,0.13437694311141968,1.7062400579452515,0.5636782646179199
1772701762585207600,1.40220751953125,0.08206723630428314,1.2847462892532349,0.40364980697631836
1772701762595255300,1.41225537109375,-0.014561569318175316,0.7287387251853943,0.1733737289905548
1772701762605304600,1.4223046875,-0.11626487970352173,0.5117853879928589,0.02910495363175869
1772701762615352300,1.432352294921875,-0.15080580115318298,0.5619646906852722,0.0038667097687721252
1772701762625401600,1.442401611328125,-0.1975616067647934,0.5333862900733948,-0.016823148354887962
1772701762635449300,1.452449462890625,-0.26779288053512573,0.4341643750667572,-0.06077968701720238
1772701762645498600,1.46249853515625,-0.3170590400695801,0.4145284593105316,-0.09816569834947586
1772701762655546400,1.47254638671875,-0.3529595136642456,0.5011082887649536,-0.14072780311107635
1772701762665595400,1.482595458984375,-0.37430766224861145,0.6546899080276489,-0.17970316112041473
1772701762675643400,1.492643310546875,-0.37878790497779846,0.8393675684928894,-0.1976451426744461
1772701762685692400,1.5026923828125,-0.3536003828048706,1.0793678760528564,-0.16099882125854492
1772701762695740400,1.512740478515625,-0.30070868134498596,1.26100754737854,-0.12785737216472626
1772701762705789400,1.52278955078125,-0.23306357860565186,1.304648756980896,-0.0975189208984375
1772701762715837400,1.53283740234375,-0.20391874015331268,1.1953356266021729,-0.08393999934196472
1772701762725886500,1.542886474609375,-0.21355316042900085,0.8457192182540894,-0.09221673011779785
1772701762735934500,1.5529345703125,-0.24606557190418243,0.2443452775478363,-0.15971241891384125
1772701762745983500,1.5629833984375,-0.3003975749015808,-0.44162917137145996,-0.23603244125843048
1772701762756031500,1.573031494140625,-0.32057473063468933,-0.8831561803817749,-0.20918059349060059
1772701762766080300,1.583080322265625,-0.3324669301509857,-0.9581894278526306,-0.05160863697528839
1772701762776128300,1.593128173828125,-0.33668002486228943,-0.8899243474006653,0.089139424264431
1772701762786177300,1.60317724609375,-0.23590993881225586,-0.943566083908081,0.1614139974117279
1772701762796225300,1.613225341796875,-0.0912582129240036,-1.0505197048187256,0.12021089345216751
1772701762806274300,1.6232744140625,-0.04775014519691467,-1.0808930397033691,-0.07663532346487045
1772701762816322300,1.633322265625,-0.23633764684200287,-0.8083406686782837,-0.31035885214805603
1772701762826371300,1.643371337890625,-0.5327587127685547,-0.08262705057859421,-0.5432851314544678
1772701762836419300,1.65341943359375,-0.7149440050125122,0.7662246823310852,-0.6690073609352112
1772701762846468400,1.66346826171875,-0.7989888787269592,1.2747658491134644,-0.6673535704612732
1772701762856516400,1.673516357421875,-0.8147808909416199,1.19893479347229,-0.5507566332817078
1772701762866565400,1.6835654296875,-0.7447192668914795,0.781674325466156,-0.3171684443950653
1772701762876613400,1.69361328125,-0.5761864185333252,0.18722431361675262,0.0041083646938204765
1772701762886662400,1.703662353515625,-0.3902057409286499,-0.25759464502334595,0.35931310057640076
1772701762896710400,1.71371044921875,-0.18824784457683563,-0.30353844165802,0.7184513211250305
1772701762906759400,1.723759521484375,0.020725905895233154,0.09297463297843933,0.957897961139679
1772701762916807400,1.733807373046875,0.21319708228111267,0.556597113609314,1.0523000955581665
1772701762926856400,1.7438564453125,0.3632422685623169,0.8931297063827515,1.0560998916625977
1772701762936904400,1.753904541015625,0.4481947124004364,0.8799774050712585,1.0558725595474243
1772701762946953200,1.763953125,0.438036173582077,0.4997125267982483,1.1346783638000488
1772701762957001500,1.77400146484375,0.26984503865242004,-0.43258506059646606,1.1400249004364014
1772701762967050200,1.78405029296875,0.0019836558494716883,-1.3971248865127563,1.0348799228668213
1772701762977098500,1.794098388671875,-0.28701990842819214,-1.8257499933242798,0.8968315124511719
1772701762987147300,1.804147216796875,-0.45554009079933167,-1.7543028593063354,0.7825705409049988
1772701762997196500,1.814196533203125,-0.49339213967323303,-1.5557713508605957,0.7210597395896912
1772701763007244300,1.824244384765625,-0.4480747580528259,-1.2944265604019165,0.712047815322876
1772701763017292500,1.83429248046875,-0.31570738554000854,-0.9598684906959534,0.7593234777450562
1772701763027341300,1.84434130859375,-0.1920471489429474,-0.6976040005683899,0.855129599571228
1772701763037390600,1.854390625,-0.10462648421525955,-0.5189727544784546,1.012171745300293
1772701763047438300,1.864438232421875,-0.017795197665691376,-0.4290047883987427,1.1651756763458252
1772701763057487400,1.8744873046875,0.06213052570819855,-0.40238144993782043,1.2551630735397339
1772701763067535400,1.884535400390625,0.12210679799318314,-0.3892112672328949,1.2440569400787354
1772701763077584400,1.89458447265625,0.1780739277601242,-0.34763824939727783,1.12705397605896
1772701763087632400,1.90463232421875,0.23953498899936676,-0.21908758580684662,0.9673396348953247
1772701763097681400,1.914681396484375,0.2883019745349884,-0.06216135993599892,0.8006808757781982
1772701763107729400,1.9247294921875,0.3022329807281494,0.08670645207166672,0.6472249031066895
1772701763117778200,1.934778076171875,0.30730870366096497,0.21719415485858917,0.4928254187107086
1772701763127826400,1.944826416015625,0.294527530670166,0.3003532290458679,0.3175530433654785
1772701763137875200,1.954875244140625,0.2642444670200348,0.32402074337005615,0.09150686115026474
1772701763147923500,1.96492333984375,0.1972704976797104,0.30382734537124634,-0.18156445026397705
1772701763157972200,1.97497216796875,0.12010274827480316,0.24018500745296478,-0.49876585602760315
1772701763168020500,1.9850205078125,0.07712925225496292,-0.004100545309484005,-0.8602759838104248
1772701763178069200,1.9950693359375,0.1086893081665039,-0.508573055267334,-1.2212432622909546
1772701763188117500,2.005117431640625,0.14009325206279755,-0.9979499578475952,-1.5193798542022705
1772701763198166800,2.015166748046875,0.1935327798128128,-1.001421332359314,-1.7587000131607056
1772701763208215000,2.025215087890625,0.28052589297294617,-0.5695543885231018,-1.9090200662612915
1772701763218263800,2.035263916015625,0.4695560038089752,0.04374443739652634,-1.992517113685608
1772701763228312000,2.04531201171875,0.7188228964805603,0.8627979755401611,-1.7812212705612183
1772701763238360800,2.05536083984375,0.7961949110031128,1.9265601634979248,-1.4327902793884277
1772701763248408800,2.065408935546875,0.7149784564971924,2.435910224914551,-1.4506162405014038
1772701763258457900,2.075457763671875,0.9341382384300232,1.38204824924469,-1.379916787147522
1772701763268505900,2.085505859375,1.1989880800247192,0.890016496181488,-0.8757206797599792
1772701763278555000,2.095554931640625,0.895433783531189,2.125009775161743,-1.3101067543029785
1772701763288603000,2.105602783203125,1.2645541429519653,2.3774280548095703,-2.1128013134002686
1772701763298652000,2.11565185546875,1.5503687858581543,0.5586550831794739,-2.9245364665985107
1772701763308700000,2.125699951171875,1.7499563694000244,0.1313161849975586,-3.099491834640503
1772701763318749000,2.1357490234375,1.8294507265090942,0.23516348004341125,-2.7566235065460205
1772701763328797000,2.145796875,1.7667165994644165,0.22293391823768616,-2.1428449153900146
1772701763338846000,2.155845947265625,1.6044222116470337,0.19792205095291138,-1.353875994682312
1772701763348894000,2.16589404296875,1.4365251064300537,0.3228744864463806,-0.41902413964271545
1772701763358943000,2.17594287109375,1.2200974225997925,0.35681965947151184,0.3619430363178253
1772701763368991000,2.185990966796875,0.9709018468856812,0.11084374785423279,0.7745934724807739
1772701763379040000,2.1960400390625,0.7942408323287964,-0.2103467881679535,0.9664843678474426
1772701763389088000,2.206087890625,0.6326227188110352,-0.41909822821617126,1.0157334804534912
1772701763399137000,2.216136962890625,0.49228715896606445,-0.40865516662597656,0.9333152174949646
1772701763409185000,2.22618505859375,0.36651375889778137,-0.3040923774242401,0.7750393152236938
1772701763419233800,2.23623388671875,0.2712162733078003,-0.21180638670921326,0.5496488213539124
1772701763429282000,2.246281982421875,0.2030872106552124,-0.07561933249235153,0.2638867199420929
1772701763439330800,2.256330810546875,0.11215357482433319,0.10433818399906158,-0.030226387083530426
1772701763449379000,2.266379150390625,0.04013305902481079,0.23013818264007568,-0.2762671709060669
1772701763459427800,2.276427734375,0.0004239954287186265,0.311372309923172,-0.4301390051841736
1772701763469476900,2.286476806640625,-0.013413379900157452,0.3784181773662567,-0.48815208673477173
1772701763479524900,2.29652490234375,0.0031240517273545265,0.39100053906440735,-0.4372343122959137
1772701763489574000,2.306573974609375,0.06610521674156189,0.40800660848617554,-0.32901936769485474
1772701763499622000,2.316621826171875,0.1376478523015976,0.4712979793548584,-0.17777098715305328
1772701763509671000,2.3266708984375,0.21136361360549927,0.592579185962677,0.03643530234694481
1772701763519719000,2.336718994140625,0.30773088335990906,0.7279939651489258,0.282268762588501
1772701763529768000,2.346767822265625,0.3538249135017395,0.7608363032341003,0.47329020500183105
1772701763539816000,2.35681591796875,0.3171137869358063,0.6012263894081116,0.5448428988456726
1772701763549865000,2.366864990234375,0.23328235745429993,0.12761946022510529,0.515352189540863
1772701763559913000,2.376912841796875,0.16903838515281677,-0.6478880047798157,0.44100579619407654
1772701763569961700,2.386961669921875,0.0790705531835556,-1.394602656364441,0.3579893708229065
1772701763580010000,2.397010009765625,0.01262761652469635,-1.4045895338058472,0.3166256844997406
1772701763590058800,2.407058837890625,0.018498141318559647,-0.40316617488861084,0.3586554229259491
1772701763600107000,2.41710693359375,0.02850843220949173,0.7191165685653687,0.32785382866859436
1772701763610155800,2.42715576171875,0.011938171461224556,1.1797548532485962,0.18810823559761047
1772701763620204000,2.4372041015625,0.01828981190919876,1.1219730377197266,0.05269715189933777
1772701763630252800,2.447252685546875,-0.0011636613635346293,0.8763882517814636,-0.02317018248140812
1772701763640301000,2.457301025390625,-0.07406210154294968,0.4498177766799927,-0.12156226485967636
1772701763650349800,2.467349853515625,-0.17756813764572144,-0.03750719875097275,-0.29425865411758423
1772701763660398000,2.477398193359375,-0.23563224077224731,-0.44851312041282654,-0.4582774341106415
1772701763670446800,2.48744677734375,-0.24404533207416534,-0.5694994926452637,-0.4509527385234833
1772701763680494800,2.497494873046875,-0.2509184181690216,-0.478575736284256,-0.3363071084022522
1772701763690543900,2.5075439453125,-0.28813081979751587,-0.3409375250339508,-0.1853964775800705
1772701763700591900,2.517591796875,-0.3303197920322418,-0.21383655071258545,-0.004446934908628464
1772701763710641000,2.527640869140625,-0.3592871427536011,-0.12485496699810028,0.13166749477386475
1772701763720689000,2.53768896484375,-0.39198037981987,-0.09989742189645767,0.2078557312488556
1772701763730738000,2.547738037109375,-0.46989893913269043,-0.1100517064332962,0.20933374762535095
1772701763740786000,2.557785888671875,-0.5772371292114258,-0.11117316782474518,0.22050437331199646
1772701763750835000,2.5678349609375,-0.6917814612388611,-0.08469077199697495,0.2706823945045471
1772701763760883000,2.577883056640625,-0.8154836893081665,-0.07127802819013596,0.3289821743965149
1772701763770932000,2.587931884765625,-0.8952563405036926,-0.15571022033691406,0.37376919388771057
1772701763780980000,2.59797998046875,-0.9419756531715393,-0.4084237217903137,0.3732445538043976
1772701763791029000,2.608029052734375,-1.0344181060791016,-0.6716356873512268,0.32064712047576904
1772701763801077000,2.618076904296875,-1.1648520231246948,-0.7767429351806641,0.2478855550289154
1772701763811126000,2.6281259765625,-1.2615653276443481,-0.8104732632637024,0.16533975303173065
1772701763821174000,2.638174072265625,-1.3326666355133057,-0.885810375213623,0.045623745769262314
1772701763831223000,2.64822314453125,-1.4423322677612305,-0.9516155123710632,-0.17458927631378174
1772701763841271800,2.658271728515625,-1.530906081199646,-1.092399001121521,-0.4304836392402649
1772701763851319800,2.66831982421875,-1.5769033432006836,-1.3366981744766235,-0.6761818528175354
1772701763861368800,2.678368896484375,-1.5855834484100342,-1.5626065731048584,-0.8186966180801392
1772701763871416800,2.688416748046875,-1.5364586114883423,-1.638423204421997,-0.8773635029792786
1772701763881465900,2.6984658203125,-1.3922744989395142,-1.4468367099761963,-0.8559442162513733
1772701763891513900,2.708513916015625,-1.1312071084976196,-0.9008997678756714,-0.5898808836936951
1772701763901563000,2.71856298828125,-0.7512994408607483,-0.3159686326980591,-0.007870214991271496
1772701763911611000,2.72861083984375,-0.34122052788734436,-0.06395300477743149,0.7757479548454285
1772701763921660000,2.738659912109375,0.07656047493219376,-0.13876226544380188,1.5394461154937744
1772701763931708000,2.7487080078125,0.3685636520385742,-0.5983992218971252,2.0078229904174805
1772701763941757000,2.7587568359375,0.5208154916763306,-1.2554919719696045,2.0497193336486816
1772701763951805000,2.768804931640625,0.5698036551475525,-1.717237949371338,1.7730540037155151
1772701763961854000,2.77885400390625,0.5181148648262024,-1.7161215543746948,1.32474946975708
1772701763971902000,2.78890185546875,0.4410848319530487,-1.0928611755371094,0.8160102963447571
1772701763981951000,2.798950927734375,0.4247218370437622,-0.17143291234970093,0.4432668387889862
1772701763991999000,2.8089990234375,0.43173763155937195,0.2853504419326782,0.12885205447673798
1772701764002048000,2.819048095703125,0.36292287707328796,0.19206708669662476,-0.11347909271717072
1772701764012096000,2.829095947265625,0.30157649517059326,-0.007803891785442829,-0.16386747360229492
1772701764022144800,2.839144775390625,0.273198664188385,-0.06595241278409958,-0.05586910620331764
1772701764032193000,2.849193115234375,0.2644021213054657,-0.21917292475700378,0.05945492535829544
1772701764042241800,2.85924169921875,0.2416781783103943,-0.45929980278015137,0.10315793007612228
1772701764052290000,2.8692900390625,0.1833370178937912,-0.6450453996658325,0.13532008230686188
1772701764062338800,2.8793388671875,0.1532379686832428,-0.6919796466827393,0.12722992897033691
1772701764072387000,2.889386962890625,0.12346566468477249,-0.6105004549026489,0.09639724344015121
1772701764082435800,2.899435791015625,0.12385288625955582,-0.488192617893219,0.06427765637636185
1772701764092484000,2.909484130859375,0.13251173496246338,-0.42655712366104126,0.05139726400375366
1772701764102532900,2.919532958984375,0.08371089398860931,-0.5153700709342957,0.03566623479127884
1772701764112582000,2.929581787109375,-0.013187735341489315,-0.5970999002456665,0.013986455276608467
1772701764122630000,2.9396298828125,-0.06211399659514427,-0.49588248133659363,0.05345796048641205
1772701764132679000,2.949678955078125,-0.0882583037018776,-0.17159530520439148,0.22175264358520508
1772701764142727000,2.959726806640625,-0.11220784485340118,0.22327078878879547,0.4818364381790161
1772701764152776000,2.96977587890625,-0.08766841143369675,0.48094066977500916,0.7421074509620667
1772701764162824000,2.979823974609375,-0.002284802496433258,0.5130887627601624,0.9363256692886353
1772701764172873000,2.989873046875,0.003858117386698723,0.43962451815605164,1.029982566833496
1772701764182921000,2.9999208984375,-0.0037486692890524864,0.3700190782546997,1.0924067497253418
1772701764192969200,3.00996923828125,-0.05159410089254379,0.23784561455249786,1.0618966817855835
1772701764203017500,3.020017578125,-0.18514737486839294,0.1583539843559265,0.9345650672912598
1772701764213066200,3.030066162109375,-0.23151953518390656,0.25686511397361755,0.8170867562294006
1772701764223114500,3.040114501953125,-0.2697407007217407,0.3535173535346985,0.6370738744735718
1772701764233163300,3.050163330078125,-0.2826761305332184,0.406550794839859,0.46521270275115967
1772701764243211500,3.06021142578125,-0.2874879240989685,0.4269258379936218,0.30365070700645447
1772701764253260300,3.07026025390625,-0.2688528001308441,0.42572516202926636,0.12995673716068268
1772701764263308300,3.080308349609375,-0.24641886353492737,0.44419124722480774,-0.05016643553972244
1772701764273357300,3.090357421875,-0.23519375920295715,0.5103799700737,-0.2183394581079483
1772701764283405300,3.1004052734375,-0.24583548307418823,0.6785111427307129,-0.4016469419002533
1772701764293454300,3.110454345703125,-0.2624388039112091,0.8633620738983154,-0.5687058568000793
1772701764303502300,3.12050244140625,-0.28727757930755615,0.966434895992279,-0.7151248455047607
1772701764313551400,3.13055126953125,-0.25931572914123535,0.851098358631134,-0.8111370801925659
1772701764323599400,3.140599365234375,-0.16343553364276886,0.4494752883911133,-0.8242177367210388
1772701764333648400,3.1506484375,-0.06669548898935318,-0.08842311799526215,-0.7894375324249268
1772701764343696400,3.1606962890625,0.010995046235620975,-0.538695216178894,-0.8327687382698059
1772701764353745400,3.170745361328125,0.061469193547964096,-0.774215042591095,-0.8924169540405273
1772701764363793400,3.18079345703125,0.06796862930059433,-0.7111457586288452,-0.9637119174003601
1772701764373842400,3.190842529296875,0.07315289229154587,-0.3925568461418152,-0.9660158157348633
1772701764383890400,3.200890380859375,0.11060279607772827,0.012051088735461235,-0.925625741481781
1772701764393939500,3.210939453125,0.11589088290929794,0.4552132785320282,-0.8545793294906616
1772701764403988500,3.220988525390625,0.18666306138038635,1.2702127695083618,-0.6121602654457092
1772701764414036500,3.231036376953125,0.7503963708877563,2.1294519901275635,-0.3212764859199524
1772701764424085500,3.24108544921875,1.315375566482544,2.3236143589019775,-0.19379790127277374
1772701764434133200,3.25113330078125,0.7759298086166382,1.8105021715164185,-0.36552438139915466
1772701764444182300,3.261182373046875,0.38914215564727783,2.099848985671997,-0.3515009582042694
1772701764454230300,3.271230224609375,0.31816014647483826,1.289455771446228,-0.5435442924499512
1772701764464279300,3.281279296875,0.37971487641334534,-0.1900261491537094,-0.7084251046180725
1772701764474327300,3.291327392578125,0.5339357256889343,-1.4514623880386353,-0.6836820840835571
1772701764484376300,3.301376220703125,0.5865872502326965,-1.895674467086792,-0.7010472416877747
1772701764494424300,3.31142431640625,0.5823888778686523,-1.513275384902954,-0.6010963320732117
1772701764504473300,3.321473388671875,0.5920785665512085,-0.7947726249694824,-0.37609732151031494
1772701764514521300,3.331521240234375,0.6506765484809875,-0.18420977890491486,-0.11431862413883209
1772701764524570400,3.3415703125,0.7262027263641357,0.21030877530574799,0.06862083077430725
1772701764534618400,3.351618408203125,0.7427114844322205,0.31631651520729065,0.11575695127248764
1772701764544667400,3.36166748046875,0.755678117275238,0.3766813278198242,0.023519964888691902
1772701764554715400,3.37171533203125,0.7741941809654236,0.38843122124671936,-0.15109257400035858
1772701764564764400,3.381764404296875,0.6906393766403198,0.2776562571525574,-0.20594170689582825
1772701764574812400,3.3918125,0.4981496036052704,0.0054526315070688725,-0.12537595629692078
1772701764584861400,3.401861328125,0.24190956354141235,-0.3212607502937317,0.015343074686825275
1772701764594909400,3.411909423828125,-0.05135112628340721,-0.535420835018158,0.16426831483840942
1772701764604958200,3.421958251953125,-0.29799526929855347,-0.528537929058075,0.19553862512111664
1772701764615006500,3.43200634765625,-0.42860567569732666,-0.2667454481124878,0.16250111162662506
1772701764625055200,3.44205517578125,-0.5044234395027161,0.19341813027858734,0.17724595963954926
1772701764635104500,3.4521044921875,-0.5261850357055664,0.5868679285049438,0.17718076705932617
1772701764645152300,3.46215234375,-0.5383898019790649,0.8234485387802124,0.17331945896148682
1772701764655201500,3.472201416015625,-0.5613186359405518,0.8923516273498535,0.16850131750106812
1772701764665249300,3.482249267578125,-0.5749431252479553,0.7579013705253601,0.16555532813072205
1772701764675298600,3.492298583984375,-0.5499293804168701,0.4582982659339905,0.1583811342716217
1772701764685346300,3.50234619140625,-0.5303176045417786,0.05290389433503151,0.14524616301059723
1772701764695395600,3.5123955078125,-0.558526873588562,-0.365805447101593,0.13102217018604279
1772701764705443300,3.522443359375,-0.6199588179588318,-0.6212896704673767,0.17161034047603607
1772701764715492600,3.53249267578125,-0.6927488446235657,-0.5864756107330322,0.2985418140888214
1772701764725540400,3.542540283203125,-0.7384204864501953,-0.2233804613351822,0.4310913383960724
1772701764735589600,3.552589599609375,-0.7613315582275391,0.17990906536579132,0.5262947678565979
1772701764745637400,3.562637451171875,-0.7954474687576294,0.45982566475868225,0.6200582981109619
1772701764755686400,3.572686279296875,-0.8949747681617737,0.5799899697303772,0.6471503376960754
1772701764765734400,3.582734375,-1.0220085382461548,0.5029628276824951,0.5686666965484619
1772701764775783400,3.592783447265625,-1.0959609746932983,0.2871653139591217,0.4614922106266022
1772701764785831400,3.60283154296875,-1.1059646606445312,0.08737151324748993,0.4108535349369049
1772701764795880200,3.612880126953125,-1.147247314453125,0.15142016112804413,0.3998527228832245
1772701764805928400,3.622928466796875,-1.2020258903503418,0.40570569038391113,0.4495515525341034
1772701764815977200,3.632977294921875,-1.1999684572219849,0.3130342960357666,0.4563053548336029
1772701764826025500,3.643025390625,-1.181483268737793,-0.11471757292747498,0.3176334798336029
1772701764836074200,3.65307421875,-1.1137058734893799,-0.47077780961990356,0.21187621355056763
1772701764846122500,3.66312255859375,-1.0010461807250977,-0.6348516941070557,0.18281926214694977
1772701764856171300,3.673171142578125,-0.9002164602279663,-0.6230138540267944,0.11514569073915482
1772701764866220500,3.683220458984375,-0.8006054759025574,-0.4372735023498535,-0.010186657309532166
1772701764876268300,3.693268310546875,-0.7165257930755615,-0.11096729338169098,-0.11972349882125854
1772701764886317600,3.703317626953125,-0.5900552272796631,0.09269794821739197,-0.16667716205120087
1772701764896365300,3.713365234375,-0.4434576630592346,-0.046180423349142075,-0.10348321497440338
1772701764906414600,3.72341455078125,-0.24821384251117706,-0.3430776000022888,0.049141477793455124
1772701764916462300,3.73346240234375,-0.05908224359154701,-0.677433967590332,0.2761513292789459
1772701764926511400,3.743511474609375,0.08614552021026611,-0.9750747084617615,0.46140456199645996
1772701764936559400,3.753559326171875,0.23024018108844757,-0.9883275032043457,0.5383405685424805
1772701764946608400,3.7636083984375,0.4090416133403778,-0.7335519790649414,0.5089166164398193
1772701764956656400,3.773656494140625,0.6148942708969116,-0.48833635449409485,0.3894212245941162
1772701764966705400,3.783705322265625,0.7754207849502563,-0.3440881073474884,0.290810227394104
1772701764976753400,3.79375341796875,0.8858946561813354,-0.3187136948108673,0.30323946475982666
1772701764986802400,3.803802490234375,0.9479684233665466,-0.27432331442832947,0.43641242384910583
1772701764996850400,3.813850341796875,0.9508862495422363,-0.033366914838552475,0.6560373902320862
1772701765006899500,3.8238994140625,0.9358689785003662,0.4159160852432251,0.8576690554618835
1772701765016947500,3.833947509765625,0.9239100217819214,0.5097265839576721,0.8772135376930237
1772701765026996500,3.84399658203125,0.9361304640769958,0.1636594831943512,0.6740252375602722
1772701765037044200,3.854044189453125,0.9531309008598328,-0.41091880202293396,0.3568075895309448
1772701765047093500,3.864093505859375,0.9393261671066284,-1.0084900856018066,0.044154323637485504
1772701765057142500,3.874142578125,0.9021822810173035,-1.5257309675216675,-0.15928016602993011
1772701765067190500,3.8841904296875,0.7816672921180725,-1.9093118906021118,-0.18319402635097504
1772701765077239600,3.894239501953125,0.5509997010231018,-2.253542900085449,-0.07764273136854172
1772701765087287600,3.90428759765625,0.20618903636932373,-2.386136054992676,0.018536793068051338
1772701765097336300,3.91433642578125,-0.21214298903942108,-2.062706708908081,0.008425943553447723
1772701765107384300,3.92438427734375,-0.5165615081787109,-1.5281527042388916,-0.04105638712644577
1772701765117433300,3.934433349609375,-0.6632987260818481,-1.327859878540039,-0.0037650498561561108
1772701765127481300,3.9444814453125,-0.7781994938850403,-1.3025180101394653,0.04621875286102295
1772701765137530400,3.9545302734375,-0.8912146091461182,-1.121833086013794,0.15797501802444458
1772701765147578400,3.964578369140625,-0.9663234949111938,-0.8689858913421631,0.35329312086105347
1772701765157627400,3.97462744140625,-1.0331628322601318,-0.5492869019508362,0.6170791983604431
1772701765167675400,3.98467529296875,-1.1008808612823486,-0.12812316417694092,0.9132860898971558
1772701765177724400,3.994724365234375,-1.0907233953475952,0.32888755202293396,1.189554214477539
1772701765187772400,4.0047724609375,-1.030164361000061,0.680479109287262,1.422145128250122
1772701765197821700,4.01482177734375,-0.9461929202079773,0.8904173970222473,1.6037702560424805
1772701765207869700,4.02486962890625,-0.8532097339630127,0.9869852066040039,1.7007583379745483
1772701765217918700,4.034918701171875,-0.7459593415260315,1.0372854471206665,1.7031707763671875
1772701765227966500,4.044966552734375,-0.6512871384620667,1.0730563402175903,1.621469497680664
1772701765238015700,4.055015625,-0.542567789554596,1.0377941131591797,1.4706156253814697
1772701765248064800,4.065064697265625,-0.41987353563308716,0.9344426393508911,1.2409096956253052
1772701765258112800,4.07511279296875,-0.31123819947242737,0.7366081476211548,0.9080860018730164
1772701765268161500,4.08516162109375,-0.20218202471733093,0.5364939570426941,0.5639212131500244
1772701765278209800,4.095209716796875,-0.08643703162670135,0.4326810836791992,0.20802398025989532
1772701765288258600,4.105258544921875,0.04730665311217308,0.410879909992218,-0.12599234282970428
1772701765298306800,4.115306884765625,0.1732974797487259,0.40968745946884155,-0.4017052948474884
1772701765308355600,4.12535546875,0.2844599485397339,0.3768003582954407,-0.594535768032074
1772701765318403800,4.13540380859375,0.4222085475921631,0.32776564359664917,-0.7135584354400635
1772701765328452600,4.14545263671875,0.5546502470970154,0.22223520278930664,-0.79972904920578
1772701765338500900,4.1555009765625,0.6667241454124451,0.06958705931901932,-0.8637696504592896
1772701765348549600,4.165549560546875,0.7514544725418091,-0.10374637693166733,-0.9133917689323425
1772701765358597600,4.17559765625,0.8045377135276794,-0.2659423351287842,-0.9418503046035767
1772701765368646700,4.185646728515625,0.8476101160049438,-0.4039074182510376,-0.9324277639389038
1772701765378694700,4.195694580078125,0.9102230668067932,-0.5181758999824524,-0.846358060836792
1772701765388743700,4.20574365234375,1.0006611347198486,-0.6008742451667786,-0.731431782245636
1772701765398791400,4.21579150390625,1.107062578201294,-0.5561545491218567,-0.6183632612228394
1772701765408840700,4.2258408203125,1.178023099899292,-0.29965969920158386,-0.585749626159668
1772701765418888400,4.235888427734375,1.1365224123001099,0.1308792531490326,-0.7577714920043945
1772701765428937700,4.245937744140625,0.9086977243423462,0.651884138584137,-1.1553089618682861
1772701765438986500,4.255986572265625,0.5234746336936951,1.1672263145446777,-1.8227849006652832
1772701765449034800,4.26603466796875,0.3148026168346405,1.694576382637024,-2.622936487197876
1772701765459083500,4.27608349609375,0.7483692765235901,2.0346527099609375,-2.758167028427124
1772701765469131800,4.2861318359375,1.1813950538635254,0.9266664385795593,-2.1465749740600586
1772701765479180500,4.2961806640625,0.9423819184303284,1.6983505487442017,-1.6844362020492554
1772701765489228800,4.306228759765625,0.8212898373603821,2.2825405597686768,-1.2761189937591553
1772701765499277600,4.316277587890625,0.8334499597549438,1.8537720441818237,-1.125862956047058
1772701765509325800,4.326325927734375,0.8480626940727234,1.150979995727539,-1.0987615585327148
1772701765519374600,4.33637451171875,0.8135566115379333,0.4141004979610443,-1.01448655128479
1772701765529422800,4.3464228515625,0.8215271830558777,-0.25448131561279297,-0.7717913389205933
1772701765539471600,4.3564716796875,0.8369646072387695,-0.5801622271537781,-0.3154267966747284
1772701765549519600,4.36651953125,0.7921363711357117,-0.5996291637420654,0.1873423308134079
1772701765559568600,4.376568603515625,0.7011469602584839,-0.3418574333190918,0.6146312355995178
1772701765569616600,4.38661669921875,0.640462338924408,0.02143131196498871,1.024307131767273
1772701765579665700,4.396665771484375,0.6256740093231201,0.3762243092060089,1.3122003078460693
1772701765589713700,4.406713623046875,0.619472324848175,0.6890719532966614,1.4228216409683228
1772701765599762700,4.4167626953125,0.5780342221260071,0.9442182183265686,1.3043372631072998
1772701765609811500,4.4268115234375,0.4877703785896301,1.1324102878570557,1.045419692993164
1772701765619859700,4.436859619140625,0.39254385232925415,1.223842978477478,0.7498881220817566
1772701765629908500,4.446908447265625,0.29153308272361755,1.285184621810913,0.426073282957077
1772701765639956700,4.456956787109375,0.2321511059999466,1.358738899230957,0.04670222848653793
1772701765650005500,4.467005615234375,0.2077014148235321,1.3743228912353516,-0.3114873468875885
1772701765660053800,4.4770537109375,0.20975255966186523,1.3711098432540894,-0.5941963195800781
1772701765670102500,4.4871025390625,0.21711008250713348,1.317428469657898,-0.7608513236045837
1772701765680150800,4.49715087890625,0.16725188493728638,1.2160292863845825,-0.8096936345100403
1772701765690199600,4.507199462890625,0.06540435552597046,1.1336464881896973,-0.7855760455131531
1772701765700247800,4.517247802734375,-0.05342581495642662,1.1004810333251953,-0.6826201677322388
1772701765710296600,4.527296630859375,-0.1557588428258896,1.0769767761230469,-0.506273627281189
1772701765720344600,4.537344482421875,-0.21055103838443756,1.0546704530715942,-0.3615031838417053
1772701765730393600,4.5473935546875,-0.3027009069919586,1.103349208831787,-0.28053855895996094
1772701765740441600,4.557441650390625,-0.4022384285926819,1.218538522720337,-0.23833318054676056
1772701765750490600,4.56749072265625,-0.4777430593967438,1.1489160060882568,-0.21047519147396088
1772701765760538600,4.57753857421875,-0.5316093564033508,0.9160985946655273,-0.17988598346710205
1772701765770587600,4.587587646484375,-0.5597501993179321,0.6060824394226074,-0.13388466835021973
1772701765780635600,4.5976357421875,-0.564195990562439,0.17882761359214783,-0.07874823361635208
1772701765790684700,4.6076845703125,-0.5564879775047302,-0.4070681035518646,0.0006989152170717716
1772701765800733400,4.6177333984375,-0.5652218461036682,-1.1735320091247559,0.029534025117754936
1772701765810781700,4.62778173828125,-0.5869289636611938,-1.8889471292495728,-0.08810818195343018
1772701765820830500,4.63783056640625,-0.6518393754959106,-1.697796106338501,-0.2685370147228241
1772701765830878700,4.647878662109375,-0.6426104307174683,0.0027936138212680817,-0.3377475142478943
1772701765840927500,4.657927490234375,-0.5825163125991821,1.786952257156372,-0.4168505370616913
1772701765850975700,4.667975830078125,-0.5717981457710266,2.128290891647339,-0.5326349139213562
1772701765861024500,4.6780244140625,-0.45767033100128174,1.495834231376648,-0.6225970387458801
1772701765871072800,4.68807275390625,-0.27927714586257935,0.3008365035057068,-0.5611171722412109
1772701765881121500,4.69812158203125,-0.18374986946582794,-0.8309548497200012,-0.32560092210769653
1772701765891169500,4.70816943359375,-0.11687283962965012,-1.5307904481887817,0.06019284576177597
1772701765901218600,4.718218505859375,-0.08025576919317245,-1.6010925769805908,0.39246633648872375
1772701765911266600,4.7282666015625,-0.11153911799192429,-1.5759978294372559,0.5669254660606384
1772701765921315600,4.738315673828125,-0.14818117022514343,-1.5589808225631714,0.5693806409835815
1772701765931363600,4.748363525390625,-0.22042100131511688,-1.5516821146011353,0.401608943939209
1772701765941412600,4.75841259765625,-0.3491419553756714,-1.6064900159835815,0.1595638245344162
1772701765951460600,4.768460693359375,-0.46667659282684326,-1.8033740520477295,-0.00990962889045477
1772701765961509600,4.778509521484375,-0.5978818535804749,-2.078157424926758,-0.0856051817536354
1772701765971558700,4.78855859375,-0.7326200008392334,-2.162137031555176,-0.18839627504348755
1772701765981606700,4.798606689453125,-0.824444591999054,-2.2215232849121094,-0.35260194540023804
1772701765991655700,4.80865576171875,-0.8704959750175476,-2.2800354957580566,-0.48055434226989746
1772701766001703700,4.81870361328125,-0.8283746242523193,-2.234572649002075,-0.49246230721473694
1772701766011752700,4.828752685546875,-0.7306874990463257,-2.089566946029663,-0.3844205439090729
1772701766021800700,4.83880078125,-0.6357417106628418,-1.9435672760009766,-0.21190033853054047
1772701766031849700,4.848849609375,-0.5198899507522583,-1.70466148853302,-0.05353226512670517
1772701766041897500,4.8588974609375,-0.34327244758605957,-1.3716707229614258,0.06913260370492935
1772701766051946800,4.86894677734375,-0.11717116087675095,-1.0967072248458862,0.14735975861549377
1772701766061994500,4.878994384765625,0.10217020660638809,-0.9376243352890015,0.24205057322978973
1772701766072043800,4.889043701171875,0.27266550064086914,-0.8184212446212769,0.3795069456100464
1772701766082091500,4.899091552734375,0.4002968370914459,-0.7010297775268555,0.5347679853439331
1772701766092140800,4.909140869140625,0.43885648250579834,-0.6362143158912659,0.6484551429748535
1772701766102188500,4.9191884765625,0.4232783913612366,-0.5865328311920166,0.753288209438324
1772701766112237600,4.929237548828125,0.3784049451351166,-0.4552893042564392,0.8637641072273254
1772701766122286600,4.93928662109375,0.3666839897632599,-0.21436846256256104,0.9785023331642151
1772701766132334600,4.94933447265625,0.3526928126811981,0.09250573068857193,1.0602810382843018
1772701766142383600,4.959383544921875,0.30755361914634705,0.36807480454444885,1.0820000171661377
1772701766152431600,4.969431640625,0.2661004364490509,0.5779532194137573,1.0492433309555054
1772701766162480600,4.979480712890625,0.2659187614917755,0.5952292084693909,0.935501217842102
1772701766172528600,4.989528564453125,0.20222662389278412,0.32982897758483887,0.705306887626648
1772701766182577700,4.99957763671875,-0.01897784136235714,-0.05203540623188019,0.34227922558784485
1772701766192625700,5.009625732421875,-0.25581488013267517,-0.07305307686328888,0.02116112969815731
1772701766202674400,5.01967431640625,-0.3201560080051422,0.21842671930789948,-0.16338977217674255
1772701766212722200,5.02972216796875,-0.3805575668811798,0.3844577670097351,-0.2561098635196686
1772701766222771500,5.039771484375,-0.4091002345085144,0.42184579372406006,-0.30451810359954834
1772701766232819200,5.049819091796875,-0.40159037709236145,0.43049976229667664,-0.35700368881225586
1772701766242868500,5.059868408203125,-0.3705429434776306,0.47640261054039,-0.4048234522342682
1772701766252916200,5.069916259765625,-0.32600557804107666,0.5346675515174866,-0.45909762382507324
1772701766262965200,5.07996533203125,-0.2747413218021393,0.5695850253105164,-0.5166082978248596
1772701766273014300,5.09001416015625,-0.22150260210037231,0.5956219434738159,-0.5623207092285156
1772701766283062300,5.100062255859375,-0.16891899704933167,0.7077233195304871,-0.5446650981903076
1772701766293111300,5.110111328125,-0.1190425306558609,0.8164202570915222,-0.5117066502571106
1772701766303159300,5.1201591796875,-0.047742221504449844,0.757543683052063,-0.48340800404548645
1772701766313208300,5.130208251953125,0.033675938844680786,0.6015708446502686,-0.46286144852638245
1772701766323256300,5.14025634765625,0.1028425469994545,0.4924059510231018,-0.45033279061317444
1772701766333305300,5.150305419921875,0.14099393784999847,0.35161474347114563,-0.46288827061653137
1772701766343353300,5.160353271484375,0.19319775700569153,0.15976078808307648,-0.4830077886581421
1772701766353402400,5.17040234375,0.2794668674468994,-0.06901779770851135,-0.511262834072113
1772701766363450400,5.180450439453125,0.39647725224494934,-0.33477309346199036,-0.4956340491771698
1772701766373499400,5.19049951171875,0.5571774244308472,-0.5978403687477112,-0.39324644207954407
1772701766383547400,5.20054736328125,0.748543918132782,-0.8616170883178711,-0.23188568651676178
1772701766393596400,5.210596435546875,0.8603455424308777,-1.0967196226119995,-0.1172557845711708
1772701766403644400,5.22064453125,0.8102000951766968,-1.1772236824035645,-0.09685146063566208
1772701766413693400,5.230693359375,0.4813116490840912,-0.8842408657073975,-0.15064917504787445
1772701766423742200,5.2407421875,0.14114594459533691,0.03343554958701134,-0.27959275245666504
1772701766433790200,5.250790283203125,0.21773312985897064,1.6665549278259277,-0.2860354781150818
1772701766443839200,5.260839111328125,0.5529133081436157,3.030825614929199,-0.08896174281835556
1772701766453887200,5.27088720703125,0.4368675947189331,2.414520740509033,-0.3857087194919586
1772701766463936300,5.280936279296875,0.334931880235672,1.620175838470459,-0.6639381647109985
1772701766473984300,5.290984375,0.307925283908844,0.4467591941356659,-0.9821470379829407
1772701766484033300,5.301033203125,0.3387625217437744,-0.3456697165966034,-1.1475448608398438
1772701766494081300,5.311081298828125,0.35908403992652893,-0.6257956027984619,-1.0685632228851318
1772701766504130300,5.32113037109375,0.3036450147628784,-0.6127913594245911,-0.7545072436332703
1772701766514178300,5.33117822265625,0.2715773582458496,-0.3463529944419861,-0.21423867344856262
1772701766524227300,5.341227294921875,0.3291318714618683,0.06299585849046707,0.43294423818588257
1772701766534275300,5.351275390625,0.4655347168445587,0.39452263712882996,0.9944989085197449
1772701766544324400,5.361324462890625,0.6079748272895813,0.6811193227767944,1.4216867685317993
1772701766554372400,5.371372314453125,0.733802855014801,0.966649055480957,1.7340348958969116
1772701766564421400,5.38142138671875,0.8418029546737671,1.155373454093933,1.872692584991455
1772701766574469400,5.391469482421875,0.8853890299797058,1.22780442237854,1.8142489194869995
1772701766584518400,5.401518310546875,0.8522596955299377,1.249528408050537,1.5972987413406372
1772701766594567400,5.4115673828125,0.7053725123405457,1.1697241067886353,1.2570650577545166
1772701766604615200,5.421615234375,0.4815917909145355,0.8673965930938721,0.8489264845848083
1772701766614664200,5.431664306640625,0.26363682746887207,0.39614734053611755,0.3954801857471466
1772701766624712200,5.441712158203125,0.09389512985944748,-0.13358080387115479,-0.03418907895684242
1772701766634761200,5.45176123046875,-0.034307047724723816,-0.44585558772087097,-0.3311469852924347
1772701766644809200,5.461809326171875,-0.17105567455291748,-0.4859437048435211,-0.6092226505279541
1772701766654858200,5.471858154296875,-0.30117639899253845,-0.33546632528305054,-0.8797476291656494
1772701766664906200,5.48190625,-0.42661112546920776,0.0262919794768095,-1.0270549058914185
1772701766674955300,5.491955322265625,-0.5201602578163147,0.5118051171302795,-1.0262229442596436
1772701766685003300,5.502003173828125,-0.5157600045204163,1.0780599117279053,-0.94012850522995
1772701766695052300,5.51205224609375,-0.4352273941040039,1.578147530555725,-0.8093451857566833
1772701766705100300,5.522100341796875,-0.3796578347682953,1.9619508981704712,-0.6086117029190063
1772701766715149300,5.5321494140625,-0.31907039880752563,2.145362615585327,-0.2954100966453552
1772701766725197300,5.542197265625,-0.23597992956638336,1.96336829662323,0.1375717967748642
1772701766735246300,5.552246337890625,-0.1711311638355255,1.2335284948349,0.6271237134933472
1772701766745295400,5.56229541015625,-0.17023199796676636,0.0006129797548055649,1.019823431968689
1772701766755343400,5.57234326171875,-0.23548343777656555,-1.4169312715530396,1.183306336402893
1772701766765392400,5.582392333984375,-0.36330029368400574,-2.24381947517395,1.1655337810516357
1772701766775440100,5.592440185546875,-0.5025631189346313,-1.590301752090454,1.300803780555725
1772701766785489400,5.602489501953125,-0.5118100047111511,0.16253457963466644,1.5746837854385376
1772701766795537200,5.612537109375,-0.4532928466796875,1.4682995080947876,1.6290977001190186
1772701766805586400,5.62258642578125,-0.36205604672431946,1.8826746940612793,1.4527841806411743
1772701766815634200,5.63263427734375,-0.34626591205596924,1.8178919553756714,1.1773358583450317
1772701766825683500,5.642683349609375,-0.4345870614051819,1.4661452770233154,0.8285818696022034
1772701766835731200,5.652731201171875,-0.5565156936645508,0.8747770190238953,0.46081024408340454
1772701766845780500,5.662780517578125,-0.6434276103973389,0.3222810626029968,0.16783368587493896
1772701766855828200,5.672828125,-0.6644500494003296,0.21332339942455292,0.027208924293518066
1772701766865877500,5.68287744140625,-0.6079670190811157,0.31168332695961,-0.007706137374043465
1772701766875926300,5.69292626953125,-0.5114612579345703,0.3619481027126312,0.011979948729276657
1772701766885974500,5.702974609375,-0.42430493235588074,0.15012924373149872,0.13146691024303436
1772701766896023300,5.713023193359375,-0.28941234946250916,-0.272739976644516,0.28389161825180054
1772701766906071600,5.723071533203125,-0.1643866002559662,-0.8146190047264099,0.45587557554244995
1772701766916120300,5.733120361328125,-0.06316649913787842,-1.3920313119888306,0.6169999837875366
1772701766926168300,5.743168212890625,0.011589601635932922,-1.8864996433258057,0.7536764740943909
1772701766936217300,5.75321728515625,0.026510493829846382,-2.1806859970092773,0.8475771546363831
1772701766946265300,5.763265380859375,0.041124723851680756,-2.2248659133911133,0.8286577463150024
1772701766956314400,5.773314453125,0.06385374069213867,-2.2379136085510254,0.718411386013031
1772701766966362000,5.783362060546875,0.1587991565465927,-2.1932170391082764,0.4952065646648407
1772701766976411400,5.793411376953125,0.35373827815055847,-1.9608418941497803,0.31927841901779175
1772701766986460200,5.803460205078125,0.5410115122795105,-1.7443175315856934,0.18890847265720367
1772701766996508400,5.81350830078125,0.622031569480896,-1.6545493602752686,0.09200269728899002
1772701767006557200,5.82355712890625,0.6861326098442078,-1.6743793487548828,0.04890737310051918
1772701767016605400,5.83360546875,0.673349142074585,-1.7182376384735107,0.02585265412926674
1772701767026654200,5.843654296875,0.583031177520752,-1.6247808933258057,0.06724873185157776
1772701767036702500,5.853702392578125,0.42851775884628296,-1.3755271434783936,0.10375082492828369
1772701767046751200,5.863751220703125,0.27699676156044006,-1.1162091493606567,0.04657934606075287
1772701767056799500,5.873799560546875,0.17276249825954437,-1.035053014755249,-0.06726625561714172
1772701767066848300,5.88384814453125,0.1256110519170761,-1.016027808189392,-0.09760969132184982
1772701767076896500,5.893896484375,0.13616782426834106,-1.0070252418518066,-0.03127434104681015
1772701767086945300,5.9039453125,0.1921985149383545,-0.9993177652359009,0.07426825910806656
1772701767096994300,5.913994384765625,0.248724102973938,-0.9937272667884827,0.16950823366641998
1772701767107042300,5.924042236328125,0.27096155285835266,-0.9178440570831299,0.2354728877544403
1772701767117091300,5.93409130859375,0.23678065836429596,-0.7985482811927795,0.26631468534469604
1772701767127139300,5.944139404296875,0.15852147340774536,-0.7625031471252441,0.2778225541114807
1772701767137188400,5.954188232421875,0.05152924358844757,-0.9230382442474365,0.2616960406303406
1772701767147236400,5.964236328125,-0.02573675662279129,-1.1477910280227661,0.19655126333236694
1772701767157285000,5.97428515625,-0.0843750387430191,-1.2906438112258911,0.09560628235340118
1772701767167333400,5.98433349609375,-0.10538189113140106,-1.2708561420440674,-0.01616695336997509
1772701767177382100,5.994382080078125,-0.14615808427333832,-1.17391037940979,-0.08196195214986801
1772701767187430400,6.004430419921875,-0.16520045697689056,-1.0953575372695923,-0.08990892767906189
1772701767197480000,6.01447998046875,-0.18322525918483734,-0.9748225212097168,-0.006656115408986807
1772701767207528200,6.024528076171875,-0.22659185528755188,-0.8234549760818481,0.15550388395786285
1772701767217577000,6.034576904296875,-0.26842930912971497,-0.629572331905365,0.3471108675003052
1772701767227626000,6.0446259765625,-0.2983863651752472,-0.38327956199645996,0.5369495153427124
1772701767237674000,6.054674072265625,-0.34520474076271057,-0.10847171396017075,0.6764253377914429
1772701767247723000,6.064722900390625,-0.42414698004722595,0.08095090836286545,0.7665170431137085
1772701767257771000,6.07477099609375,-0.47186151146888733,0.1169176995754242,0.8296195864677429
1772701767267820000,6.084820068359375,-0.489576518535614,0.12920856475830078,0.7859975099563599
1772701767277868000,6.094867919921875,-0.5188068151473999,0.2895210087299347,0.7180131077766418
1772701767287917000,6.1049169921875,-0.567859947681427,0.4071882665157318,0.6458227038383484
1772701767297965000,6.114965087890625,-0.6205044984817505,0.4140531122684479,0.568374514579773
1772701767308014000,6.12501416015625,-0.6569338440895081,0.41468971967697144,0.4941776394844055
1772701767318062000,6.13506201171875,-0.6746862530708313,0.4803667366504669,0.4104936718940735
1772701767328111000,6.145111083984375,-0.6809566020965576,0.5885797739028931,0.3160167932510376
1772701767338160000,6.15516015625,-0.6702299118041992,0.6924260258674622,0.2086527943611145
1772701767348208000,6.1652080078125,-0.6524182558059692,0.7959365844726562,0.1044359803199768
1772701767358257200,6.175257080078125,-0.5971715450286865,0.856764554977417,-0.0034164567478001118
1772701767368305000,6.185304931640625,-0.5171254873275757,0.8563560843467712,-0.12120479345321655
1772701767378354200,6.195354248046875,-0.40478214621543884,0.788384735584259,-0.23375238478183746
1772701767388402000,6.20540185546875,-0.2607213258743286,0.6834508776664734,-0.33919522166252136
1772701767398451200,6.215451171875,-0.12904582917690277,0.5735299587249756,-0.41165104508399963
1772701767408499000,6.2254990234375,-0.0022475162986665964,0.44496724009513855,-0.4158157408237457
1772701767418548200,6.23554833984375,0.1296071857213974,0.30358776450157166,-0.33502981066703796
1772701767428596000,6.245595947265625,0.23783065378665924,0.2008037269115448,-0.2076670527458191
1772701767438645200,6.255645263671875,0.24218572676181793,0.2399042695760727,-0.06799811124801636
1772701767448694000,6.265694091796875,0.13990695774555206,0.45959076285362244,0.013998973183333874
1772701767458742000,6.275741943359375,-0.07980754971504211,0.8435128331184387,-0.07378946244716644
1772701767468791000,6.285791015625,-0.41180238127708435,1.1197925806045532,-0.3525514602661133
1772701767478839000,6.295839111328125,-0.7122652530670166,1.5110392570495605,-1.0343822240829468
1772701767488888000,6.30588818359375,-0.31771013140678406,1.044374704360962,-1.5888211727142334
1772701767498936000,6.31593603515625,0.4741472601890564,-0.8322560787200928,-2.1084482669830322
1772701767508985000,6.325985107421875,0.9062575697898865,-0.2885831892490387,-2.076653242111206
1772701767519032800,6.33603271484375,1.0702006816864014,1.4585894346237183,-1.6542630195617676
1772701767529082000,6.34608203125,1.4240719079971313,1.4170433282852173,-1.703031301498413
1772701767539129900,6.3561298828125,1.3895467519760132,0.39821067452430725,-1.9297220706939697
1772701767549179100,6.36617919921875,0.9114404916763306,0.307433158159256,-1.8238078355789185
1772701767559228200,6.376228271484375,0.3835998475551605,0.7033578753471375,-1.2657749652862549
1772701767569276200,6.386276123046875,-0.05399039015173912,0.8574196100234985,-0.5868435502052307
1772701767579325000,6.396324951171875,-0.3816382884979248,0.8998154997825623,0.0883178636431694
1772701767589373200,6.406373291015625,-0.6628903150558472,0.4721502661705017,0.6932098865509033
1772701767599422000,6.416421875,-0.9755504727363586,-0.5453415513038635,1.332589030265808
1772701767609470200,6.42647021484375,-1.0306237936019897,-0.9880456328392029,1.808478593826294
1772701767619519000,6.43651904296875,-0.8304443359375,-0.5120825171470642,1.9746004343032837
1772701767629567200,6.446567138671875,-0.6001786589622498,0.38911277055740356,1.9764176607131958
1772701767639616000,6.456615966796875,-0.40526828169822693,0.9260284304618835,1.8249599933624268
1772701767649664300,6.466664306640625,-0.22634737193584442,1.3185570240020752,1.4676547050476074
1772701767659713000,6.476713134765625,-0.09098608791828156,1.7017062902450562,1.0316598415374756
1772701767669762000,6.486761962890625,-0.020924748852849007,1.911885142326355,0.6084624528884888
1772701767679810000,6.49681005859375,0.05518413335084915,1.8187713623046875,0.19992156326770782
1772701767689859000,6.506859130859375,0.12618505954742432,1.4842417240142822,-0.20020611584186554
1772701767699907000,6.516906982421875,0.13528694212436676,1.0705695152282715,-0.547823965549469
1772701767709956000,6.5269560546875,0.051176320761442184,0.7110440135002136,-0.8508266806602478
1772701767720004000,6.537004150390625,-0.10168460011482239,0.4297683537006378,-1.0887165069580078
1772701767730053000,6.54705322265625,-0.28145503997802734,0.26674389839172363,-1.1678221225738525
1772701767740101000,6.55710107421875,-0.41651779413223267,0.32762962579727173,-1.1215603351593018
1772701767750150000,6.56714990234375,-0.5525597333908081,0.5460518002510071,-1.0892952680587769
1772701767760198100,6.5771982421875,-0.6825315952301025,0.8939051032066345,-1.0328980684280396
1772701767770247000,6.587246826171875,-0.7362138032913208,1.211638331413269,-0.9129759669303894
1772701767780296200,6.597296142578125,-0.706002414226532,1.3289799690246582,-0.6526607275009155
1772701767790344000,6.607343994140625,-0.598320484161377,1.104724645614624,-0.22087398171424866
1772701767800393200,6.617393310546875,-0.5086233615875244,0.4198276400566101,0.26734599471092224
1772701767810441000,6.62744091796875,-0.5309082865715027,-0.6332492828369141,0.5729148983955383
1772701767820490200,6.637490234375,-0.6464921832084656,-1.7751835584640503,0.596335232257843
1772701767830538000,6.6475380859375,-0.707080602645874,-2.3671867847442627,0.4771888852119446
1772701767840587300,6.657587158203125,-0.6385141015052795,-1.4864553213119507,0.4970560669898987
1772701767850635000,6.667635009765625,-0.5195609331130981,0.10116685181856155,0.5301112532615662
1772701767860684000,6.67768408203125,-0.4497765302658081,1.167601227760315,0.31990447640419006
1772701767870732000,6.68773193359375,-0.39944925904273987,1.4800095558166504,0.04546075686812401
1772701767880781000,6.697781005859375,-0.3605271577835083,1.524969220161438,-0.13704673945903778
1772701767890830000,6.707830078125,-0.20611166954040527,1.3373239040374756,-0.24033963680267334
1772701767900878000,6.717878173828125,-0.02437569387257099,0.949141263961792,-0.29966023564338684
1772701767910927000,6.727927001953125,-0.001752353273332119,0.48494964838027954,-0.2891915440559387
1772701767920974800,6.737974853515625,-0.008309854194521904,0.04440796375274658,-0.23542524874210358
1772701767931024100,6.748024169921875,0.06636539101600647,-0.3076968789100647,-0.17093952000141144
1772701767941072000,6.75807177734375,0.10861537605524063,-0.5370389819145203,-0.11267062276601791
1772701767951121200,6.76812109375,0.152617946267128,-0.628346860408783,-0.04103429615497589
1772701767961169000,6.7781689453125,0.18200218677520752,-0.7299336791038513,0.02888060174882412
1772701767971218200,6.78821826171875,0.20737622678279877,-1.0390907526016235,0.16204485297203064
1772701767981266000,6.798265869140625,0.2334240823984146,-1.659061312675476,0.38993367552757263
1772701767991315200,6.808315185546875,0.25937211513519287,-2.567535400390625,0.611839234828949
1772701768001364000,6.818364013671875,0.13822786509990692,-3.24613356590271,0.5316900610923767
1772701768011412200,6.828412109375,-0.12297137081623077,-3.3705499172210693,0.16021068394184113
1772701768021461000,6.8384609375,-0.2993093729019165,-2.9227850437164307,-0.26259464025497437
1772701768031509200,6.84850927734375,-0.2949821352958679,-1.9836137294769287,-0.46059930324554443
1772701768041558000,6.85855810546875,-0.20256327092647552,-1.1121395826339722,-0.31403276324272156
1772701768051606300,6.868606201171875,-0.06395050883293152,-0.7213901281356812,0.026297004893422127
1772701768061655000,6.878655029296875,0.11302027106285095,-0.5680940747261047,0.28099748492240906
1772701768071703000,6.888703125,0.2495572865009308,-0.6185520887374878,0.4467853605747223
1772701768081752000,6.898751953125,0.3772715628147125,-0.8410570621490479,0.5180976390838623
1772701768091801000,6.908801025390625,0.5231237411499023,-1.0002567768096924,0.41371068358421326
1772701768101849000,6.91884912109375,0.5987955927848816,-0.907111644744873,0.1207301914691925
1772701768111898000,6.928898193359375,0.6149827837944031,-0.6224842667579651,-0.22028715908527374
1772701768121946000,6.938946044921875,0.666770339012146,-0.14537924528121948,-0.5409615635871887
1772701768131995000,6.948994873046875,0.7734671831130981,0.5198915600776672,-0.8347650766372681
1772701768142043100,6.959043212890625,0.839441180229187,1.2934869527816772,-1.062667965888977
1772701768152092000,6.969091796875,0.8416964411735535,2.166290760040283,-1.2290102243423462
1772701768162140200,6.97914013671875,0.822155773639679,3.1000096797943115,-1.3185840845108032
1772701768172189000,6.98918896484375,0.8336151242256165,3.8760600090026855,-1.4050915241241455
1772701768182237200,6.9992373046875,0.8307303786277771,4.319044589996338,-1.3613357543945312
1772701768192286000,7.009285888671875,0.8547926545143127,3.928536891937256,-1.152857780456543
1772701768202334700,7.019334716796875,0.8793179988861084,2.5255308151245117,-1.057334542274475
1772701768212382700,7.0293828125,0.8192328810691833,0.9550061225891113,-0.9357543587684631
1772701768222431700,7.039431640625,0.7145320773124695,0.03339875489473343,-0.6922447085380554
1772701768232479700,7.049479736328125,0.5734118819236755,-0.184037983417511,-0.4481540322303772
1772701768242528800,7.05952880859375,0.4304579198360443,0.018049592152237892,-0.19937165081501007
1772701768252576500,7.069576416015625,0.2699568271636963,0.1716720312833786,0.12044594436883926
1772701768262625800,7.079625732421875,0.3496239483356476,0.1715812236070633,0.4251110255718231
1772701768272673500,7.089673583984375,0.4423938989639282,-0.04100849851965904,0.6924569606781006
1772701768282722800,7.099722900390625,0.4412814974784851,-0.313680499792099,0.8939533233642578
1772701768292771600,7.109771484375,0.42559489607810974,-0.5582178831100464,1.0041170120239258
1772701768302819800,7.11981982421875,0.42559704184532166,-0.7925784587860107,1.0143290758132935
1772701768312868600,7.12986865234375,0.44913363456726074,-1.0058192014694214,0.9002788662910461
1772701768322916900,7.139916748046875,0.49689048528671265,-1.1842329502105713,0.6778977513313293
1772701768332965600,7.149965576171875,0.586556613445282,-1.190523624420166,0.4766713082790375
1772701768343014000,7.160013916015625,0.6830224394798279,-1.0170117616653442,0.3044625222682953
1772701768353062700,7.170062744140625,0.7483058571815491,-0.6995008587837219,0.19916130602359772
1772701768363110700,7.180110595703125,0.7640185356140137,-0.3209682106971741,0.18471205234527588
1772701768373159700,7.19015966796875,0.76270592212677,0.07089309394359589,0.2406318336725235
1772701768383207700,7.200207763671875,0.7395086884498596,0.2559010088443756,0.3068673014640808
1772701768393256700,7.210256591796875,0.7002003192901611,0.19592437148094177,0.31956517696380615
1772701768403305700,7.2203056640625,0.6472806930541992,0.03654830530285835,0.27395933866500854
1772701768413353700,7.230353759765625,0.5788096189498901,-0.13728410005569458,0.166960209608078
1772701768423402800,7.24040283203125,0.48093870282173157,-0.2924630343914032,-0.020306892693042755
1772701768433450800,7.25045068359375,0.3828990161418915,-0.36643484234809875,-0.24531763792037964
1772701768443499800,7.260499755859375,0.2814514935016632,-0.3503003716468811,-0.46418794989585876
1772701768453547800,7.2705478515625,0.15642353892326355,-0.31419646739959717,-0.645007312297821
1772701768463596500,7.280596435546875,0.012273287400603294,-0.3485914468765259,-0.7645102739334106
1772701768473644800,7.290644775390625,-0.1816577911376953,-0.5194865465164185,-0.8779600858688354
1772701768483693600,7.300693603515625,-0.4770638644695282,-0.7925273776054382,-1.044869065284729
1772701768493742600,7.31074267578125,-0.888521134853363,-1.0720804929733276,-1.2741851806640625
1772701768503790600,7.32079052734375,-1.2712419033050537,-1.2601271867752075,-1.5269831418991089
1772701768513839600,7.330839599609375,-1.4349634647369385,-1.327834129333496,-1.7110767364501953
1772701768523887600,7.3408876953125,-1.0296471118927002,-1.3463311195373535,-1.5990550518035889
1772701768533936600,7.3509365234375,-0.21041589975357056,-1.448683261871338,-1.2150071859359741
1772701768543984600,7.360984619140625,0.10015608370304108,-1.3998252153396606,-0.876169741153717
1772701768554033700,7.37103369140625,0.15069076418876648,-0.9523373246192932,-0.8298270106315613
1772701768564081700,7.38108154296875,0.5317776799201965,0.9478394985198975,-0.567064106464386
1772701768574130700,7.391130615234375,0.3795691132545471,2.6866796016693115,-0.5932588577270508
1772701768584179700,7.4011796875,0.26981303095817566,2.430576801300049,-0.6249080896377563
1772701768594227700,7.411227783203125,0.23006869852542877,1.8447922468185425,-0.594305694103241
1772701768604276700,7.42127685546875,0.37981081008911133,0.3978271186351776,-0.49628889560699463
1772701768614324700,7.43132470703125,0.4700970947742462,-0.5001950860023499,-0.2816881239414215
1772701768624373800,7.441373779296875,0.444634348154068,-0.6516895890235901,0.08060057461261749
1772701768634421500,7.45142138671875,0.3638845980167389,-0.5695908665657043,0.48651227355003357
1772701768644470800,7.461470703125,0.27819180488586426,-0.23705607652664185,0.8060228228569031
1772701768654518500,7.4715185546875,0.2155173122882843,0.26280516386032104,1.0616514682769775
1772701768664567800,7.48156787109375,0.18320171535015106,0.8109162449836731,1.2507771253585815
1772701768674616800,7.491616943359375,0.18473277986049652,1.3154784440994263,1.3638931512832642
1772701768684664800,7.501664794921875,0.19114381074905396,1.7565674781799316,1.4071205854415894
1772701768694713600,7.511713623046875,0.21529018878936768,1.9965072870254517,1.2554683685302734
1772701768704761900,7.521761962890625,0.2160758227109909,2.0512914657592773,0.9814074635505676
1772701768714810600,7.531810546875,0.20077185332775116,1.9383872747421265,0.6348494291305542
1772701768724859000,7.54185888671875,0.1443178951740265,1.6604506969451904,0.2898353040218353
1772701768734907600,7.55190771484375,0.07908166199922562,1.0905072689056396,0.009551694616675377
1772701768744956000,7.561955810546875,0.09110183268785477,0.32704958319664,-0.20766663551330566
1772701768755004700,7.572004638671875,0.19601115584373474,-0.49214014410972595,-0.3513844311237335
1772701768765053700,7.5820537109375,0.27311205863952637,-1.070570707321167,-0.4593636095523834
1772701768775101700,7.592101806640625,0.30291247367858887,-1.029869556427002,-0.5345792174339294
1772701768785150700,7.602150634765625,0.23772256076335907,-0.6206439137458801,-0.6339398622512817
1772701768795198700,7.61219873046875,0.07690569758415222,-0.17652341723442078,-0.6447131037712097
1772701768805247700,7.622247802734375,-0.014040185138583183,0.21174922585487366,-0.5851898789405823
1772701768815295700,7.632295654296875,-0.0564841702580452,0.4804705083370209,-0.4502430260181427
1772701768825344800,7.6423447265625,-0.16373392939567566,0.5868936777114868,-0.2620992064476013
1772701768835392800,7.652392822265625,-0.36521464586257935,0.5249812602996826,-0.11454041302204132
1772701768845441500,7.662441650390625,-0.5820457339286804,0.3663937449455261,-0.06413289904594421
1772701768855490600,7.672490478515625,-0.7557873725891113,0.20086263120174408,-0.1206345334649086
1772701768865538600,7.68253857421875,-0.9043001532554626,0.08154262602329254,-0.22571861743927002
1772701768875587600,7.692587646484375,-0.9863901138305664,-0.041644979268312454,-0.35823962092399597
1772701768885635600,7.702635498046875,-0.980823814868927,-0.11329013854265213,-0.3587307035923004
1772701768895684600,7.7126845703125,-0.9554443955421448,-0.08056250214576721,-0.2802468538284302
1772701768905732600,7.722732666015625,-0.910136342048645,0.31235015392303467,-0.197976216673851
1772701768915781600,7.73278173828125,-0.7784804105758667,0.897779107093811,-0.07718570530414581
1772701768925829600,7.74282958984375,-0.5927606225013733,1.169585108757019,0.06940240412950516
1772701768935878700,7.752878662109375,-0.4241023659706116,1.0028738975524902,0.15965911746025085
1772701768945927700,7.762927734375,-0.28793200850486755,0.48790857195854187,0.11311852186918259
1772701768955975700,7.7729755859375,-0.13121549785137177,-0.06375424563884735,0.019026072695851326
1772701768966024700,7.783024658203125,-0.024363351985812187,-0.4661429524421692,-0.04190652072429657
1772701768976072700,7.79307275390625,0.02419591136276722,-0.7334111928939819,-0.005536469630897045
1772701768986121700,7.803121826171875,0.02665960043668747,-1.0145280361175537,0.11498435586690903
1772701768996169700,7.813169677734375,0.020384958013892174,-1.2956987619400024,0.30406177043914795
1772701769006218800,7.82321875,0.024502471089363098,-1.3479974269866943,0.5074756145477295
1772701769016266500,7.8332666015625,0.03619447723031044,-1.156404733657837,0.6042681932449341
1772701769026315800,7.843315673828125,0.012558124028146267,-1.0346858501434326,0.5322374105453491
1772701769036364800,7.85336474609375,0.01749737188220024,-1.2354475259780884,0.2904321551322937
1772701769046412800,7.863412841796875,0.06512188911437988,-1.5811972618103027,-0.06048298627138138
1772701769056461800,7.8734619140625,0.07069763541221619,-1.8462185859680176,-0.3854078948497772
1772701769066509800,7.883509765625,0.020207028836011887,-1.7499266862869263,-0.5770599246025085
1772701769076558600,7.89355859375,-0.08377107232809067,-1.4301620721817017,-0.6731178164482117
1772701769086606800,7.90360693359375,-0.18945781886577606,-1.0987987518310547,-0.6759588718414307
1772701769096655600,7.913655517578125,-0.2858743667602539,-0.9087492227554321,-0.5736479759216309
1772701769106704600,7.92370458984375,-0.36918550729751587,-0.9203912019729614,-0.4340896010398865
1772701769116752600,7.933752685546875,-0.3958999216556549,-1.0237665176391602,-0.2999563217163086
1772701769126801700,7.9438017578125,-0.3931693732738495,-1.0843909978866577,-0.1723959594964981
1772701769136849700,7.953849609375,-0.3759755790233612,-1.0268956422805786,-0.08350320905447006
1772701769146898700,7.963898681640625,-0.3383539021015167,-0.8320662379264832,-0.03683663159608841
1772701769156946700,7.97394677734375,-0.2681828439235687,-0.5501733422279358,-0.016667338088154793
1772701769166995700,7.98399560546875,-0.18642006814479828,-0.2630976438522339,-0.021847985684871674
1772701769177043700,7.994043701171875,-0.10419575124979019,-0.03395680710673332,-0.0362168587744236
1772701769187092700,8.0040927734375,-0.05074877664446831,0.1370474249124527,-0.07847350090742111
1772701769197141800,8.014141845703126,-0.01321259792894125,0.3602447807788849,-0.1424867957830429
1772701769207191000,8.02419091796875,-0.0366356335580349,0.624390721321106,-0.2486574351787567
1772701769217239800,8.03423974609375,-0.057492319494485855,0.8698540925979614,-0.36603862047195435
1772701769227288000,8.0442880859375,-0.0702669695019722,1.0267456769943237,-0.47474992275238037
1772701769237336800,8.0543369140625,-0.05839305743575096,1.090027928352356,-0.574068546295166
1772701769247384800,8.064384765625,-0.08490802347660065,1.089444875717163,-0.6349577307701111
1772701769257433900,8.074433837890625,-0.11627548933029175,0.9533146619796753,-0.6508665680885315
1772701769267481900,8.08448193359375,-0.164694681763649,0.6700446009635925,-0.6327347159385681
1772701769277531000,8.09453076171875,-0.2154342085123062,0.42941635847091675,-0.5604371428489685
1772701769287580000,8.104579833984374,-0.22617954015731812,0.27859780192375183,-0.46020936965942383
1772701769297628000,8.1146279296875,-0.11203048378229141,0.21643975377082825,-0.28426751494407654
1772701769307676700,8.1246767578125,0.0356505885720253,0.1953863948583603,-0.08488170802593231
1772701769317725000,8.134724853515625,0.14583820104599,0.15308645367622375,0.06523165106773376
1772701769327773700,8.144773681640626,0.23077920079231262,0.16043491661548615,0.19010327756404877
1772701769337822000,8.154822021484375,0.3028329312801361,0.16312873363494873,0.2992889881134033
1772701769347870700,8.16487060546875,0.37320616841316223,0.1244945153594017,0.3930674195289612
1772701769357919000,8.1749189453125,0.4264652729034424,0.05300743132829666,0.46455568075180054
1772701769367967700,8.1849677734375,0.4598647654056549,-0.039460983127355576,0.5221044421195984
1772701769378017000,8.19501708984375,0.49292200803756714,-0.12005918473005295,0.5600213408470154
1772701769388064800,8.205064697265625,0.5077853798866272,-0.17639942467212677,0.5914841890335083
1772701769398114000,8.215114013671876,0.49644941091537476,-0.21295368671417236,0.6161744594573975
1772701769408161800,8.225161865234375,0.46227121353149414,-0.22341084480285645,0.6481291651725769
1772701769418211000,8.235211181640626,0.40884730219841003,-0.22147855162620544,0.6663464307785034
1772701769428258800,8.2452587890625,0.35820436477661133,-0.21968597173690796,0.685956597328186
1772701769438308000,8.25530810546875,0.29844629764556885,-0.20482328534126282,0.6860117316246033
1772701769448356900,8.26535693359375,0.2439098060131073,-0.1340886652469635,0.6715528964996338
1772701769458405000,8.275405029296875,0.17917951941490173,-0.0369693897664547,0.632057785987854
1772701769468454000,8.285453857421874,0.1390531361103058,0.049687210470438004,0.5792893767356873
1772701769478502000,8.295501953125,0.12633909285068512,-0.001923050731420517,0.502878725528717
1772701769488551000,8.305551025390624,0.13494668900966644,-0.2500564455986023,0.40941479802131653
1772701769498599000,8.315598876953125,0.12815941870212555,-0.6153963208198547,0.30133259296417236
1772701769508648000,8.32564794921875,0.07288683950901031,-0.9335036873817444,0.17900453507900238
1772701769518696000,8.335696044921875,-0.08620225638151169,-1.1220903396606445,0.0051546343602240086
1772701769528745000,8.345744873046876,-0.2927466332912445,-1.0798083543777466,-0.2041759490966797
1772701769538793700,8.355793701171875,-0.4600849747657776,-0.6817865967750549,-0.44641098380088806
1772701769548842000,8.365842041015625,-0.5172510743141174,-0.16005411744117737,-0.6246861815452576
1772701769558890800,8.375890869140624,-0.3788211941719055,0.07251393795013428,-0.7343858480453491
1772701769568939000,8.38593896484375,-0.09052282571792603,0.28731998801231384,-0.7637445330619812
1772701769578987800,8.39598779296875,0.20238731801509857,0.6771268248558044,-0.6954644322395325
1772701769589036000,8.4060361328125,0.27228304743766785,1.159079670906067,-0.6490785479545593
1772701769599084800,8.416084716796876,0.21132917702198029,1.3962069749832153,-0.6344289183616638
1772701769609134000,8.426134033203125,0.19467855989933014,1.1506658792495728,-0.6526156067848206
1772701769619181800,8.436181884765626,0.26389190554618835,0.8242342472076416,-0.524955153465271
1772701769629231000,8.446231201171875,0.2830190062522888,0.3961390554904938,-0.3089277446269989
1772701769639278800,8.45627880859375,0.2711962163448334,-0.0004971879534423351,-0.03725804015994072
1772701769649327900,8.466327880859374,0.25638318061828613,-0.17178718745708466,0.2758879065513611
1772701769659375900,8.4763759765625,0.2672073543071747,-0.12113303691148758,0.5737163424491882
1772701769669425000,8.4864248046875,0.2935255169868469,0.07931776344776154,0.8257871866226196
1772701769679473000,8.496472900390625,0.3391362130641937,0.3468414545059204,1.0192945003509521
1772701769689521700,8.506521728515626,0.38489973545074463,0.6012593507766724,1.1392050981521606
1772701769699571000,8.516571044921875,0.4445357322692871,0.8760007619857788,1.163295865058899
1772701769709618700,8.52661865234375,0.49604180455207825,1.051708698272705,1.0944620370864868
1772701769719668000,8.53666796875,0.5346996784210205,1.081312894821167,0.9651924967765808
1772701769729715700,8.5467158203125,0.566332995891571,1.0116329193115234,0.7768316268920898
1772701769739765000,8.556764892578125,0.5812917947769165,0.9141783118247986,0.5640405416488647
1772701769749812700,8.566812744140625,0.5346577167510986,0.7606633305549622,0.3503008186817169
1772701769759862000,8.576862060546874,0.4591408967971802,0.5427603125572205,0.10478344559669495
1772701769769910800,8.586910888671875,0.35935065150260925,0.3860284984111786,-0.1235240250825882
1772701769779959000,8.596958984375,0.2882339656352997,0.3332335352897644,-0.31787624955177307
1772701769790007800,8.6070078125,0.22902895510196686,0.3736363649368286,-0.4848146438598633
1772701769800056000,8.61705615234375,0.18900203704833984,0.5247918963432312,-0.6434647440910339
1772701769810104800,8.627104736328125,0.1332405060529709,0.7941853404045105,-0.7522354125976562
1772701769820153000,8.637153076171876,0.06102224439382553,1.1303739547729492,-0.7812881469726562
1772701769830201900,8.647201904296875,-0.008289983496069908,1.4204835891723633,-0.7264211773872375
1772701769840251000,8.6572509765625,-0.04825843870639801,1.6219897270202637,-0.6409739255905151
1772701769850299000,8.667298828125,-0.05483245104551315,1.7031514644622803,-0.5689356923103333
1772701769860348000,8.677347900390625,-0.016202500090003014,1.6164839267730713,-0.4646756052970886
1772701769870396000,8.68739599609375,0.00016768364002928138,1.3779501914978027,-0.3174648582935333
1772701769880445000,8.69744482421875,-0.03117945045232773,1.0727553367614746,-0.15007001161575317
1772701769890493000,8.707492919921876,-0.038385167717933655,0.7394404411315918,-0.01710449531674385
1772701769900542000,8.7175419921875,-0.023811912164092064,0.3946334421634674,0.08522839099168777
1772701769910590000,8.72758984375,0.011124501004815102,0.09575832635164261,0.16826468706130981
1772701769920638700,8.737638671875,0.03372372314333916,-0.15706735849380493,0.21729892492294312
1772701769930688000,8.74768798828125,0.017239023000001907,-0.3683881461620331,0.235761821269989
1772701769940735700,8.75773583984375,-0.01863754168152809,-0.49500951170921326,0.22536666691303253
1772701769950785000,8.767784912109375,-0.07338786870241165,-0.4704575836658478,0.1984919011592865
1772701769960832800,8.777832763671874,-0.15405012667179108,-0.20502659678459167,0.14751942455768585
1772701769970882000,8.787882080078125,-0.18029558658599854,0.3243680000305176,0.09052351117134094
1772701769980929800,8.7979296875,-0.14779143035411835,0.8132197260856628,-0.009586842730641365
1772701769990979000,8.80797900390625,-0.11468035727739334,1.079871654510498,-0.13634717464447021
1772701770001027800,8.81802783203125,-0.061419080942869186,0.9408940076828003,-0.1973215639591217
1772701770011076000,8.828076171875,0.03273404762148857,0.4670715928077698,-0.18567636609077454
1772701770021124900,8.838124755859376,0.16392594575881958,-0.2427295297384262,-0.1037752777338028
1772701770031172900,8.8481728515625,0.23641853034496307,-0.9899536967277527,0.00238364702090621
1772701770041222000,8.858221923828125,0.23187623918056488,-1.524104118347168,0.07773806154727936
1772701770051270000,8.868269775390624,0.182757169008255,-1.8104866743087769,0.13050246238708496
1772701770061319000,8.87831884765625,0.0904068723320961,-1.8990283012390137,0.19005918502807617
1772701770071368000,8.888367919921874,0.0009827159810811281,-1.7957717180252075,0.20641125738620758
1772701770081416000,8.898416015625,-0.039292123168706894,-1.509619116783142,0.1771891564130783
1772701770091465000,8.90846484375,-0.028413109481334686,-1.2411147356033325,0.12659841775894165
1772701770101513000,8.918512939453125,-0.08353090286254883,-1.1413202285766602,0.12864775955677032
1772701770111562000,8.92856201171875,-0.21178394556045532,-1.167680263519287,0.16925165057182312
1772701770121610000,8.93860986328125,-0.364947646856308,-1.2522586584091187,0.2211352437734604
1772701770131658800,8.94865869140625,-0.48920753598213196,-1.384843111038208,0.2940160930156708
1772701770141707800,8.958707763671875,-0.5185518264770508,-1.4918406009674072,0.37941405177116394
1772701770151755800,8.968755859375,-0.47638359665870667,-1.599002480506897,0.42440709471702576
1772701770161804800,8.9788046875,-0.4460861384868622,-1.5731121301651,0.4627099335193634
1772701770171852800,8.988852783203125,-0.3583860993385315,-1.3479588031768799,0.5708990097045898
1772701770181901800,8.99890185546875,-0.26744669675827026,-0.9437139630317688,0.7342626452445984
1772701770191949800,9.00894970703125,-0.20807285606861115,-0.5725220441818237,0.8952520489692688
1772701770201997800,9.018997802734376,-0.16550394892692566,-0.33526167273521423,1.003956913948059
1772701770212046800,9.029046875,-0.11110434681177139,-0.18939366936683655,1.0642842054367065
1772701770222094800,9.0390947265625,-0.021512271836400032,-0.03944609686732292,1.0790876150131226
1772701770232144000,9.049143798828124,0.08043113350868225,0.1479613333940506,1.0380709171295166
1772701770242192000,9.05919189453125,0.16695226728916168,0.38052329421043396,0.917847752571106
1772701770252241000,9.069240966796874,0.2896840572357178,0.6215021014213562,0.7420229315757751
1772701770262289000,9.079288818359375,0.37776535749435425,0.8412410616874695,0.5801246762275696
1772701770272338000,9.089337890625,0.3960530161857605,1.0733165740966797,0.43509531021118164
1772701770282386000,9.099385986328125,0.3980063498020172,1.3021568059921265,0.25735607743263245
1772701770292435000,9.10943505859375,0.3978897035121918,1.3699082136154175,0.06864979863166809
1772701770302483700,9.119483642578125,0.37923505902290344,1.2449532747268677,-0.05881287157535553
1772701770312531700,9.12953173828125,0.3073534071445465,0.9993778467178345,-0.12336656451225281
1772701770322580700,9.139580810546875,0.1853402704000473,0.6268331408500671,-0.14703506231307983
1772701770332628700,9.149628662109375,0.05455802381038666,0.18806031346321106,-0.1095300242304802
1772701770342677800,9.159677734375,-0.1799093335866928,-0.22033649682998657,-0.0027351342141628265
1772701770352725800,9.169725830078125,-0.1853882521390915,-0.27725303173065186,0.1445901244878769
1772701770362774800,9.17977490234375,-0.20536696910858154,-0.04475155100226402,0.22880114614963531
1772701770372823800,9.18982373046875,-0.22106604278087616,0.2031559944152832,0.3039827048778534
1772701770382871800,9.199871826171876,-0.23752620816230774,0.3015749752521515,0.34083327651023865
1772701770392920800,9.2099208984375,-0.24590425193309784,0.2775852382183075,0.35624074935913086
1772701770402968800,9.21996875,-0.24674566090106964,0.1266738921403885,0.3550068736076355
1772701770413017900,9.230017822265625,-0.2506578266620636,-0.13928136229515076,0.3632328510284424
1772701770423065900,9.24006591796875,-0.24951031804084778,-0.5010345578193665,0.38671964406967163
1772701770433115000,9.250114990234374,-0.24177782237529755,-0.9026474356651306,0.3878277838230133
1772701770443164000,9.260163818359375,-0.2497328519821167,-1.2651491165161133,0.3011137843132019
1772701770453212000,9.2702119140625,-0.274295449256897,-1.3239797353744507,0.14954183995723724
1772701770463261000,9.280260986328125,-0.2894558310508728,-0.9715743064880371,0.01719740778207779
1772701770473309000,9.290308837890626,-0.2623986601829529,-0.36242467164993286,-0.08218777179718018
1772701770483358000,9.30035791015625,-0.232567697763443,0.29683825373649597,-0.16380739212036133
1772701770493405700,9.31040576171875,-0.21328295767307281,0.6493217349052429,-0.3324395418167114
1772701770503455000,9.320455078125,-0.2340429127216339,0.6160017848014832,-0.4992702603340149
1772701770513502700,9.330502685546875,-0.3004874289035797,0.4139634966850281,-0.7048743367195129
1772701770523551700,9.3405517578125,-0.42748087644577026,0.13781598210334778,-0.984994649887085
1772701770533600800,9.350600830078125,-0.5937198996543884,0.033135101199150085,-1.3027236461639404
1772701770543648800,9.360648681640624,-0.7738036513328552,0.08537620306015015,-1.6027326583862305
1772701770553697800,9.37069775390625,-0.9328258037567139,0.013875122182071209,-1.8745783567428589
1772701770563745800,9.380745849609376,-1.101993203163147,-0.40017470717430115,-2.1781749725341797
1772701770573794800,9.390794921875,-1.3433414697647095,-1.042549729347229,-2.5695888996124268
1772701770583843600,9.400843505859376,-1.5731000900268555,-1.8300909996032715,-2.962034225463867
1772701770593891800,9.410891845703125,-1.6596914529800415,-2.592181921005249,-3.1585843563079834
1772701770603940600,9.420940673828126,-1.4575327634811401,-2.9953160285949707,-3.084024667739868
1772701770613988900,9.43098876953125,-0.8503648638725281,-2.75333571434021,-2.852499485015869
1772701770624037600,9.44103759765625,-0.14762552082538605,-1.7936820983886719,-2.5413997173309326
1772701770634086000,9.4510859375,0.22111628949642181,-0.15468139946460724,-2.369267225265503
1772701770644134700,9.461134765625,0.3247358798980713,1.7018907070159912,-2.379540205001831
1772701770654183000,9.471182861328124,0.3500710725784302,3.014120578765869,-2.5929996967315674
1772701770664231700,9.481231689453125,0.2996060252189636,3.042158365249634,-2.9675135612487793
1772701770674281000,9.491281005859374,0.23143336176872253,2.089322805404663,-3.1897494792938232
1772701770684328700,9.50132861328125,0.21077029407024384,1.2338002920150757,-3.2824056148529053
1772701770694378000,9.5113779296875,0.0943579375743866,0.6848650574684143,-3.1137197017669678
1772701770704425700,9.52142578125,0.029123693704605103,0.5420092940330505,-2.594639301300049
1772701770714475000,9.53147509765625,-0.11034364998340607,0.6184430718421936,-1.7525957822799683
1772701770724523800,9.541523681640625,-0.27844059467315674,0.5011252164840698,-0.9614084362983704
1772701770734572000,9.551572021484375,-0.3469165861606598,0.24276205897331238,-0.3750690519809723
1772701770744620800,9.561620849609374,-0.29850146174430847,0.18957968056201935,0.17322219908237457
1772701770754668800,9.571668701171875,-0.17006519436836243,0.43422192335128784,0.6770579218864441
1772701770764717800,9.5817177734375,-0.012087898328900337,0.7900246977806091,1.0538041591644287
1772701770774765800,9.591765869140625,0.0861198902130127,1.0683565139770508,1.2353060245513916
1772701770784814800,9.60181494140625,0.03992434963583946,1.1025677919387817,1.2384089231491089
1772701770794863900,9.61186376953125,-0.06877230107784271,0.9128344655036926,1.2265070676803589
1772701770804911900,9.621911865234376,-0.13950106501579285,0.5438702702522278,1.2148767709732056
1772701770814960600,9.631960693359375,-0.18502087891101837,0.022073358297348022,1.1862972974777222
1772701770825009000,9.6420087890625,-0.18588845431804657,-0.5243214964866638,1.1570298671722412
1772701770835057700,9.6520576171875,-0.14567844569683075,-0.9384536743164062,1.1298565864562988
1772701770845106000,9.66210595703125,-0.12560194730758667,-1.228239893913269,1.0481561422348022
1772701770855154700,9.67215478515625,-0.13467054069042206,-1.3615199327468872,0.8662813901901245
1772701770865204000,9.682203857421875,-0.1717192381620407,-1.1665029525756836,0.5448570251464844
1772701770875251700,9.692251708984376,-0.25124573707580566,-0.5527702569961548,0.2905312180519104
1772701770885301000,9.702301025390625,-0.3268493413925171,0.17688585817813873,0.1743292659521103
1772701770895348700,9.7123486328125,-0.3936811089515686,0.6181597113609314,0.13746578991413116
1772701770905398000,9.72239794921875,-0.44391587376594543,0.7033384442329407,0.09967043250799179
1772701770915446800,9.73244677734375,-0.44226524233818054,0.5630061030387878,0.09525677561759949
1772701770925494800,9.742494873046875,-0.37250086665153503,0.3950939476490021,0.18723103404045105
1772701770935543800,9.752543701171875,-0.25779134035110474,0.21693964302539825,0.3390602469444275
1772701770945591800,9.762591796875,-0.13871803879737854,0.007003382313996553,0.4735427796840668
1772701770955640800,9.772640869140625,-0.027543049305677414,-0.06090935692191124,0.5854479670524597
1772701770965688800,9.782688720703124,0.08598111569881439,0.08777306228876114,0.6806488037109375
1772701770975737900,9.79273779296875,0.18957407772541046,0.30335700511932373,0.7122637033462524
1772701770985787000,9.802786865234374,0.26524433493614197,0.4409460127353668,0.6572402715682983
1772701770995835000,9.8128349609375,0.3051866888999939,0.458607017993927,0.551994800567627
1772701771005884000,9.8228837890625,0.30137091875076294,0.3789663314819336,0.4695775508880615
1772701771015932000,9.832931884765625,0.28244996070861816,0.24972443282604218,0.4193066656589508
1772701771025980700,9.842980712890625,0.25797566771507263,0.09585114568471909,0.37621253728866577
1772701771036029000,9.85302880859375,0.2489832639694214,-0.05105360969901085,0.3476807773113251
1772701771046077700,9.86307763671875,0.2411046028137207,-0.16488534212112427,0.3556104898452759
1772701771056126700,9.873126708984374,0.22349417209625244,-0.21197880804538727,0.3682117462158203
1772701771066174700,9.8831748046875,0.1765492558479309,-0.19911660254001617,0.3859851360321045
1772701771076223700,9.8932236328125,0.12994180619716644,-0.130576953291893,0.35278668999671936
1772701771086271700,9.903271728515625,0.09880755096673965,0.0020705186761915684,0.30825480818748474
1772701771096320800,9.91332080078125,0.06856389343738556,0.08363675326108932,0.2579183876514435
1772701771106368800,9.92336865234375,0.05625153332948685,0.03876033052802086,0.19731561839580536
1772701771116417800,9.933417724609376,0.053171321749687195,0.03712354972958565,0.17189174890518188
1772701771126466800,9.943466796875,0.07916566729545593,0.1479925960302353,0.18856725096702576
1772701771136514800,9.953514892578125,0.1139601394534111,0.1805231124162674,0.16744890809059143
1772701771146563800,9.963563720703124,0.1495618373155594,0.13206082582473755,0.08942905068397522
1772701771156611800,9.97361181640625,0.17446613311767578,0.08512953668832779,-0.04424644634127617
1772701771166660900,9.983660888671874,0.18492808938026428,0.04735232889652252,-0.17726309597492218
1772701771176708900,9.993708984375,0.1571020483970642,0.01658030040562153,-0.28956088423728943
1772701771186758000,10.0037578125,0.12048212438821793,-0.06358074396848679,-0.4112023413181305
1772701771196807000,10.013806884765625,0.10064210742712021,-0.1020921841263771,-0.4951670169830322
1772701771206855000,10.02385498046875,0.1135198250412941,-0.04147304594516754,-0.5009615421295166
1772701771216903700,10.033903564453125,0.14916223287582397,0.1487501561641693,-0.4375074505805969
1772701771226952000,10.043951904296875,0.19309909641742706,0.2992568612098694,-0.33567601442337036
1772701771237000700,10.054000732421875,0.2247055023908615,0.2825218439102173,-0.2060738056898117
1772701771247049700,10.0640498046875,0.24701543152332306,0.12094316631555557,-0.0847882479429245
1772701771257097700,10.07409765625,0.2619469463825226,-0.0523681715130806,0.02773110941052437
1772701771267146800,10.084146728515625,0.29840293526649475,-0.09892292320728302,0.11052224785089493
1772701771277194800,10.09419482421875,0.3204973340034485,-0.035939693450927734,0.15610012412071228
1772701771287243800,10.104243896484375,0.34072983264923096,0.03651602566242218,0.1903735101222992
1772701771297291800,10.114291748046876,0.33776360750198364,0.08140094578266144,0.19653207063674927
1772701771307340800,10.1243408203125,0.3099958598613739,0.11529416590929031,0.17751215398311615
1772701771317389800,10.134389892578126,0.2913302779197693,0.14372101426124573,0.1543000489473343
1772701771327437800,10.144437744140625,0.26763707399368286,0.15613025426864624,0.11903378367424011
1772701771337486800,10.15448681640625,0.24494668841362,0.1633109301328659,0.08817147463560104
1772701771347534800,10.164534912109374,0.22183319926261902,0.17739535868167877,0.0792064368724823
1772701771357584000,10.174583984375,0.20746783912181854,0.18828609585762024,0.09257631003856659
1772701771367631600,10.184631591796874,0.1968471258878708,0.18576668202877045,0.10220511257648468
1772701771377681000,10.194680908203125,0.18320055305957794,0.1394370049238205,0.09609981626272202
1772701771387730000,10.20472998046875,0.1766456514596939,0.058613769710063934,0.08833982050418854
1772701771397778000,10.21477783203125,0.1754658818244934,-0.009654232300817966,0.08737682551145554
1772701771407826700,10.22482666015625,0.1762567013502121,-0.04881482198834419,0.08288909494876862
1772701771417874700,10.234874755859375,0.17338022589683533,-0.036753099411726,0.08851821720600128
1772701771427923700,10.244923828125,0.17959155142307281,0.0035072644241154194,0.0851590558886528
1772701771437972700,10.25497265625,0.1807904988527298,0.052568282932043076,0.09037832170724869
1772701771448020700,10.265020751953125,0.17618711292743683,0.10534697026014328,0.10500938445329666
1772701771458069800,10.27506982421875,0.15778839588165283,0.11148049682378769,0.0943884328007698
1772701771468117800,10.28511767578125,0.1348564475774765,0.10423403978347778,0.07625922560691833
1772701771478166800,10.295166748046874,0.12688560783863068,0.10610304027795792,0.0577116422355175
1772701771488214800,10.30521484375,0.13874652981758118,0.10504097491502762,0.040048226714134216
1772701771498263800,10.315263916015626,0.16705593466758728,0.07446735352277756,0.0520486980676651
1772701771508312600,10.3253125,0.20874087512493134,-0.1886611431837082,0.1574874222278595
1772701771518360800,10.33536083984375,0.166080504655838,-0.45120489597320557,0.05085872486233711
1772701771528409600,10.34540966796875,0.08571142703294754,-0.48726508021354675,-0.039769142866134644
1772701771538457900,10.355457763671875,0.0391487181186676,-0.3120514750480652,-0.113795705139637
1772701771548506600,10.365506591796875,0.01776605099439621,-0.07924018055200577,-0.11319325864315033
1772701771558555000,10.375554931640625,-0.014674978330731392,0.03483765199780464,-0.1425359547138214
1772701771568603600,10.385603759765624,-0.05089524760842323,0.050131142139434814,-0.1352580040693283
1772701771578653000,10.39565283203125,-0.07232703268527985,-0.06604047119617462,-0.1407020390033722
1772701771588700700,10.40570068359375,-0.07948179543018341,-0.2123110294342041,-0.1682291030883789
