time,seconds_elapsed,z,y,x
1772701761232427800,0.049427734375,-0.049966227263212204,-0.12924480438232422,0.04710173234343529
1772701761242476800,0.059476806640625,-0.051358796656131744,-0.13222701847553253,0.06912660598754883
1772701761252524800,0.06952490234375,-0.05799565836787224,-0.12498906999826431,0.07969056814908981
1772701761262573800,0.07957373046875,-0.06571643054485321,-0.12723837792873383,0.08936476707458496
1772701761272621800,0.089621826171875,-0.0784338191151619,-0.10413039475679398,0.09065533429384232
1772701761282670800,0.0996708984375,-0.095936119556427,-0.0842118188738823,0.07699304819107056
1772701761292718800,0.10971875,-0.11916367709636688,-0.07770278304815292,0.06781606376171112
1772701761302767900,0.119767822265625,-0.12226332724094391,-0.061829812824726105,0.05385604128241539
1772701761312815600,0.129815673828125,-0.12817367911338806,-0.05271993577480316,0.038062430918216705
1772701761322865000,0.139864990234375,-0.12502875924110413,-0.05649363622069359,0.034565966576337814
1772701761332912600,0.14991259765625,-0.12029098719358444,-0.07725483924150467,0.04165796563029289
1772701761342961700,0.159961669921875,-0.11156807094812393,-0.09880167990922928,0.0666341558098793
1772701761353009700,0.170009765625,-0.11452364921569824,-0.10995819419622421,0.10565958172082901
1772701761363058700,0.18005859375,-0.1149689331650734,-0.13435673713684082,0.134022518992424
1772701761373106700,0.190106689453125,-0.11240430921316147,-0.14090092480182648,0.15783171355724335
1772701761383155700,0.20015576171875,-0.10333091765642166,-0.1341058760881424,0.16468508541584015
1772701761393203700,0.21020361328125,-0.10266272723674774,-0.12330835312604904,0.1624229997396469
1772701761403252700,0.220252685546875,-0.09772469848394394,-0.11222933232784271,0.15474723279476166
1772701761413300700,0.23030078125,-0.0885210782289505,-0.10822021216154099,0.15503166615962982
1772701761423349800,0.240349853515625,-0.07616747170686722,-0.10390456020832062,0.15045662224292755
1772701761433397800,0.250397705078125,-0.06713269650936127,-0.09697981178760529,0.13895176351070404
1772701761443446800,0.26044677734375,-0.05257479473948479,-0.09092271327972412,0.13112233579158783
1772701761453494800,0.270494873046875,-0.031202128157019615,-0.07491898536682129,0.12710975110530853
1772701761463543800,0.280543701171875,-0.014108361676335335,-0.05357054993510246,0.10975392907857895
1772701761473591800,0.290591796875,0.008410262875258923,-0.013681457377970219,0.09931433945894241
1772701761483640600,0.300640625,0.028870530426502228,0.02171195298433304,0.10062994062900543
1772701761493688800,0.310688720703125,0.030230339616537094,0.04811932519078255,0.11598146706819534
1772701761503737600,0.320737548828125,0.00410552928224206,0.060446832329034805,0.1494041383266449
1772701761513785900,0.330785888671875,-0.03189508244395256,0.06040582060813904,0.1784757375717163
1772701761523834600,0.340834716796875,-0.0627555251121521,0.05217026174068451,0.19017739593982697
1772701761533883000,0.3508828125,-0.07426410913467407,0.03290015831589699,0.17380668222904205
1772701761543931600,0.360931640625,-0.08358357846736908,0.02695917896926403,0.12247291952371597
1772701761553980000,0.37097998046875,-0.09050140529870987,0.0473126545548439,0.044620729982852936
1772701761564028700,0.381028564453125,-0.1120423823595047,0.04091867059469223,-0.07560048252344131
1772701761574077000,0.391076904296875,-0.14970266819000244,0.006875749211758375,-0.2317458838224411
1772701761584125700,0.401125732421875,-0.19801002740859985,0.01601172238588333,-0.3653673231601715
1772701761594173700,0.411173583984375,-0.24480628967285156,0.09503436833620071,-0.4385400712490082
1772701761604222700,0.42122265625,-0.3092425465583801,0.20595130324363708,-0.4526923596858978
1772701761614270700,0.431270751953125,-0.3831457793712616,0.3689194619655609,-0.42337656021118164
1772701761624319700,0.44131982421875,-0.4553603231906891,0.5266994833946228,-0.38718101382255554
1772701761634367700,0.45136767578125,-0.49206507205963135,0.661621630191803,-0.3491564095020294
1772701761644416800,0.461416748046875,-0.5178202390670776,0.6867882013320923,-0.33195850253105164
1772701761654464800,0.47146484375,-0.5000907778739929,0.6352219581604004,-0.3071998953819275
1772701761664513800,0.481513671875,-0.45523303747177124,0.5369324088096619,-0.30287784337997437
1772701761674561800,0.491561767578125,-0.41333457827568054,0.5577934980392456,-0.20479735732078552
1772701761684610800,0.50161083984375,-0.383453369140625,0.4307154417037964,-0.18288086354732513
1772701761694658800,0.511658935546875,-0.3475068211555481,0.08983321487903595,-0.26638907194137573
1772701761704707800,0.521707763671875,-0.3129728138446808,-0.14152437448501587,-0.3212520480155945
1772701761714755800,0.531755859375,-0.2858128547668457,-0.3775393068790436,-0.3695615231990814
1772701761724804900,0.541804931640625,-0.18535813689231873,-0.48425137996673584,-0.36612579226493835
1772701761734852900,0.551852783203125,-0.054667506366968155,-0.5208423733711243,-0.30707845091819763
1772701761744902000,0.56190185546875,0.05889048054814339,-0.6610826253890991,-0.24984605610370636
1772701761754950000,0.571949951171875,0.15867939591407776,-0.8644458651542664,-0.18006165325641632
1772701761764998700,0.58199853515625,0.21162782609462738,-1.1361212730407715,-0.1301444172859192
1772701761775047000,0.592046875,0.16459986567497253,-1.3760504722595215,-0.18966659903526306
1772701761785095700,0.602095703125,0.012751481495797634,-1.3859339952468872,-0.3845237195491791
1772701761795144000,0.61214404296875,-0.18004140257835388,-1.0824886560440063,-0.7224122881889343
1772701761805192700,0.622192626953125,-0.3385322391986847,-0.5587479472160339,-1.1144742965698242
1772701761815241000,0.632240966796875,-0.4828878343105316,0.025165541097521782,-1.444443941116333
1772701761825289700,0.642289794921875,-0.5364711880683899,0.5010069012641907,-1.5348252058029175
1772701761835338000,0.652337890625,-0.3408060669898987,0.2600339651107788,-1.2631748914718628
1772701761845386800,0.66238671875,0.06445568799972534,-0.76212477684021,-0.7743028998374939
1772701761855435000,0.67243505859375,0.15457625687122345,-1.7297883033752441,-0.41349518299102783
1772701761865483800,0.68248388671875,0.14303810894489288,-2.04838490486145,-0.21461670100688934
1772701761875531800,0.69253173828125,0.08055875450372696,-1.6765859127044678,-0.06445915251970291
1772701761885580800,0.702580810546875,-0.003087935270741582,-0.6345220804214478,0.16008181869983673
1772701761895628800,0.71262890625,-0.020903950557112694,0.13975577056407928,0.44204798340797424
1772701761905677800,0.722677734375,-0.0739906057715416,0.21545664966106415,0.7171008586883545
1772701761915725800,0.732725830078125,-0.135630264878273,0.12391155958175659,0.952582597732544
1772701761925774800,0.74277490234375,-0.17958679795265198,0.104183129966259,1.1310276985168457
1772701761935822800,0.75282275390625,-0.20367270708084106,0.27159634232521057,1.2328987121582031
1772701761945872000,0.762871826171875,-0.25468847155570984,0.5368722081184387,1.2499690055847168
1772701761955919600,0.772919677734375,-0.3156628906726837,0.7907252907752991,1.1893954277038574
1772701761965969000,0.782968994140625,-0.34441596269607544,0.9499636888504028,1.0516875982284546
1772701761976016600,0.7930166015625,-0.326774924993515,0.8472570180892944,0.91969233751297
1772701761986066000,0.80306591796875,-0.23678991198539734,0.4167514145374298,0.8356051445007324
1772701761996113700,0.81311376953125,-0.12430277466773987,-0.2514394223690033,0.8075005412101746
1772701762006163000,0.823162841796875,-0.08912082016468048,-0.9790158271789551,0.820329487323761
1772701762016210700,0.833210693359375,-0.1010081097483635,-1.4170091152191162,0.8786857724189758
1772701762026259700,0.843259765625,-0.15366066992282867,-1.467754602432251,0.8823881149291992
1772701762036307700,0.8533076171875,-0.22232894599437714,-1.2605801820755005,0.900937020778656
1772701762046356700,0.863356689453125,-0.288779079914093,-0.9844912886619568,0.8677119612693787
1772701762056404700,0.87340478515625,-0.3449283540248871,-0.7649336457252502,0.7677262425422668
1772701762066453800,0.883453857421875,-0.3701958954334259,-0.605207622051239,0.623742401599884
1772701762076501800,0.893501708984375,-0.3693207800388336,-0.423650860786438,0.5389342904090881
1772701762086550800,0.90355078125,-0.36875566840171814,-0.2109985202550888,0.4506145715713501
1772701762096598800,0.913598876953125,-0.31872978806495667,0.00836711935698986,0.38316071033477783
1772701762106647800,0.923647705078125,-0.2662431299686432,0.1739661991596222,0.33602675795555115
1772701762116695800,0.93369580078125,-0.1806211769580841,0.3179433345794678,0.2821677625179291
1772701762126744800,0.943744873046875,-0.06897507607936859,0.4112253487110138,0.22823423147201538
1772701762136792600,0.95379248046875,0.06449083983898163,0.41538095474243164,0.15142467617988586
1772701762146841900,0.963841796875,0.23091736435890198,0.27809739112854004,0.07640049606561661
1772701762156889600,0.9738896484375,0.40199458599090576,0.0007835020078346133,0.02008795738220215
1772701762166939000,0.98393896484375,0.5664988160133362,-0.33046847581863403,-0.003561445279046893
1772701762176986600,0.993986572265625,0.7190207242965698,-0.7005645036697388,0.00839508231729269
1772701762187036000,1.004035888671875,0.8790900111198425,-1.094395399093628,-0.029340311884880066
1772701762197083400,1.01408349609375,0.9254096150398254,-1.2562410831451416,-0.3019774258136749
1772701762207132400,1.02413232421875,0.6604421138763428,-0.9375112652778625,-0.6443203687667847
1772701762217180400,1.034180419921875,0.6030584573745728,-0.8934279680252075,-1.0791912078857422
1772701762227229400,1.0442294921875,1.568038821220398,-2.6295690536499023,-1.1747981309890747
1772701762237277400,1.05427734375,2.287332534790039,-3.995060682296753,-1.203477382659912
1772701762247326500,1.064326416015625,2.04618501663208,-2.7074179649353027,-1.1747797727584839
1772701762257374200,1.074374267578125,1.5048284530639648,1.3433676958084106,-0.9148155450820923
1772701762267423500,1.084423583984375,1.736057162284851,2.2627387046813965,-0.5483166575431824
1772701762277471200,1.09447119140625,2.233975887298584,0.904004693031311,-0.5045182704925537
1772701762287520500,1.1045205078125,2.3241312503814697,0.24230797588825226,-0.6649433970451355
1772701762297568300,1.114568359375,2.0433437824249268,0.17221544682979584,-0.8771169185638428
1772701762307617500,1.124617431640625,1.1067570447921753,-0.2546365559101105,-0.7738786339759827
1772701762317665300,1.134665283203125,0.15560264885425568,-0.7682964205741882,-0.4615042507648468
1772701762327714600,1.144714599609375,-0.576002299785614,-1.5391243696212769,0.059483300894498825
1772701762337762300,1.15476220703125,-0.9306759834289551,-2.3545174598693848,0.6335369944572449
1772701762347811600,1.1648115234375,-1.1509212255477905,-2.7094595432281494,1.2981435060501099
1772701762357859300,1.174859375,-1.3368428945541382,-2.644174814224243,1.7319737672805786
1772701762367908400,1.184908447265625,-1.3426529169082642,-2.325464963912964,1.7859858274459839
1772701762377956400,1.194956298828125,-1.2065331935882568,-1.592922329902649,1.6851258277893066
1772701762388005400,1.20500537109375,-0.9833623766899109,-0.4367389678955078,1.6394752264022827
1772701762398053400,1.215053466796875,-0.7949485182762146,0.8541015982627869,1.6000341176986694
1772701762408102400,1.225102294921875,-0.719233512878418,1.9291009902954102,1.53872811794281
1772701762418150400,1.235150390625,-0.5842427015304565,2.5242056846618652,1.297014832496643
1772701762428199200,1.24519921875,-0.49288880825042725,2.6159534454345703,0.8240528702735901
1772701762438247400,1.255247314453125,-0.45631587505340576,2.39929461479187,0.24283581972122192
1772701762448296200,1.265296142578125,-0.45676034688949585,1.9854470491409302,-0.2694844603538513
1772701762458344400,1.275344482421875,-0.4872756600379944,1.5657554864883423,-0.6757922768592834
1772701762468393200,1.285393310546875,-0.5487350225448608,1.3868707418441772,-1.0044207572937012
1772701762478441500,1.29544140625,-0.5954061150550842,1.3850959539413452,-1.3334444761276245
1772701762488490200,1.305490234375,-0.5777648091316223,1.263921856880188,-1.5815008878707886
1772701762498538500,1.31553857421875,-0.4070844054222107,0.6832922697067261,-1.695482611656189
1772701762508587300,1.325587158203125,-0.11130042374134064,-0.42373794317245483,-1.5981786251068115
1772701762518635500,1.335635498046875,0.18582898378372192,-1.1008155345916748,-1.1958346366882324
1772701762528684300,1.345684326171875,0.44284239411354065,-0.6059282422065735,-0.726102888584137
1772701762538732300,1.355732177734375,0.5125634074211121,0.3850771188735962,-0.2869342863559723
1772701762548781300,1.36578125,0.4124504029750824,1.528568983078003,0.18659783899784088
1772701762558829300,1.375829345703125,0.26571130752563477,1.8581264019012451,0.4822004735469818
1772701762568878300,1.38587841796875,0.1424327790737152,1.786427617073059,0.5899013876914978
1772701762578926300,1.39592626953125,0.1086316704750061,1.6072165966033936,0.5211089849472046
1772701762588975400,1.405975341796875,0.06006280332803726,1.075340986251831,0.3239591717720032
1772701762599023400,1.4160234375,-0.0686056911945343,0.6036262512207031,0.1036323830485344
1772701762609072400,1.426072265625,-0.12162789702415466,0.5276656746864319,0.009038502350449562
1772701762619120400,1.436120361328125,-0.16489042341709137,0.5723005533218384,0.00270710326731205
1772701762629169400,1.44616943359375,-0.2240338921546936,0.4990729093551636,-0.03544560819864273
1772701762639217400,1.456217529296875,-0.2881028950214386,0.4171711206436157,-0.07584123313426971
1772701762649266400,1.466266357421875,-0.3335864841938019,0.4443129897117615,-0.11597906798124313
1772701762659314400,1.476314453125,-0.3642567992210388,0.5599693059921265,-0.15465961396694183
1772701762669363500,1.486363525390625,-0.3823780119419098,0.7237278819084167,-0.19308796525001526
1772701762679411500,1.496411376953125,-0.372728556394577,0.9339117407798767,-0.1871882677078247
1772701762689460500,1.50646044921875,-0.3333742320537567,1.1674760580062866,-0.14956098794937134
1772701762699509500,1.516509521484375,-0.27888622879981995,1.298744797706604,-0.11918604373931885
1772701762709557200,1.52655712890625,-0.21793712675571442,1.2943029403686523,-0.09373821318149567
1772701762719606300,1.536606201171875,-0.20678088068962097,1.1024671792984009,-0.08319129049777985
1772701762729654300,1.546654296875,-0.22523844242095947,0.6525626182556152,-0.11281096935272217
1772701762739703300,1.556703369140625,-0.26645565032958984,-0.017833326011896133,-0.19456681609153748
1772701762749751300,1.566751220703125,-0.31365564465522766,-0.6390997767448425,-0.24581536650657654
1772701762759800300,1.57680029296875,-0.3208294212818146,-0.9490951895713806,-0.15786686539649963
1772701762769848300,1.586848388671875,-0.3405812680721283,-0.918055534362793,0.010094712488353252
1772701762779897300,1.5968974609375,-0.31272515654563904,-0.8952820301055908,0.12307532876729965
1772701762789945300,1.6069453125,-0.18053196370601654,-0.9699927568435669,0.16552771627902985
1772701762799994400,1.616994384765625,-0.057484596967697144,-1.0801783800125122,0.05602411925792694
1772701762810042400,1.62704248046875,-0.09039673954248428,-1.0161938667297363,-0.15839123725891113
1772701762820091400,1.63709130859375,-0.34700003266334534,-0.5743748545646667,-0.40267980098724365
1772701762830139400,1.647139404296875,-0.6200971007347107,0.2613764703273773,-0.614027202129364
1772701762840188400,1.6571884765625,-0.7527848482131958,1.0240339040756226,-0.6775779724121094
1772701762850236400,1.667236328125,-0.8165339827537537,1.3114683628082275,-0.6412686705589294
1772701762860285400,1.677285400390625,-0.7996407151222229,1.0859383344650269,-0.47373560070991516
1772701762870333400,1.68733349609375,-0.6963614821434021,0.566200315952301,-0.19721347093582153
1772701762880382200,1.69738232421875,-0.5076000690460205,-0.007172158919274807,0.13339507579803467
1772701762890430500,1.707430419921875,-0.3165118992328644,-0.324352502822876,0.49143898487091064
1772701762900479200,1.717479248046875,-0.11159443855285645,-0.18438369035720825,0.8241662979125977
1772701762910527500,1.727527587890625,0.09373661130666733,0.2742941379547119,1.0075880289077759
1772701762920576300,1.737576171875,0.2845289409160614,0.724007248878479,1.0603392124176025
1772701762930624500,1.74762451171875,0.39864563941955566,0.9283270835876465,1.0484687089920044
1772701762940673300,1.75767333984375,0.46275806427001953,0.8041628003120422,1.0813791751861572
1772701762950721500,1.767721435546875,0.388608455657959,0.2083481401205063,1.1564329862594604
1772701762960770300,1.777770263671875,0.17551429569721222,-0.8238816261291504,1.1065133810043335
1772701762970818600,1.787818603515625,-0.10764922946691513,-1.6241838932037354,0.980821967124939
1772701762980867300,1.797867431640625,-0.37052294611930847,-1.829228162765503,0.8477491736412048
1772701762990915300,1.807915283203125,-0.4806446433067322,-1.676872968673706,0.7470811009407043
1772701763000964400,1.81796435546875,-0.48638883233070374,-1.462670922279358,0.7084969878196716
1772701763011012400,1.828012451171875,-0.40521326661109924,-1.1659483909606934,0.7250975370407104
1772701763021061400,1.838061279296875,-0.2656708359718323,-0.8357803821563721,0.7862069606781006
1772701763031109400,1.848109375,-0.15976622700691223,-0.617692232131958,0.9080572128295898
1772701763041158400,1.858158447265625,-0.07411790639162064,-0.4632347524166107,1.0729210376739502
1772701763051206400,1.868206298828125,0.015508386306464672,-0.41051775217056274,1.2124943733215332
1772701763061255400,1.87825537109375,0.08289994299411774,-0.39006999135017395,1.261143445968628
1772701763071303400,1.888303466796875,0.14198990166187286,-0.37570464611053467,1.2107683420181274
1772701763081352400,1.8983525390625,0.20186974108219147,-0.3015816807746887,1.0703893899917603
1772701763091400400,1.908400390625,0.2532136142253876,-0.15158392488956451,0.906320333480835
1772701763101449500,1.918449462890625,0.30331939458847046,-0.0005898901727050543,0.744335949420929
1772701763111497500,1.92849755859375,0.3066078722476959,0.14493535459041595,0.5873151421546936
1772701763121546500,1.93854638671875,0.3058989346027374,0.2621636986732483,0.4276517331600189
1772701763131594500,1.948594482421875,0.2863324284553528,0.3250129818916321,0.23593103885650635
1772701763141643300,1.958643310546875,0.24327656626701355,0.32532671093940735,-0.008371646516025066
1772701763151691500,1.96869140625,0.17061062157154083,0.298719584941864,-0.29612353444099426
1772701763161740300,1.978740234375,0.09172965586185455,0.18105927109718323,-0.6294370293617249
1772701763171788500,1.98878857421875,0.08350580930709839,-0.15661996603012085,-1.002493143081665
1772701763181837300,1.99883740234375,0.12181565165519714,-0.7161016464233398,-1.3436707258224487
1772701763191885800,2.0088857421875,0.1546737253665924,-1.0533555746078491,-1.6109099388122559
1772701763201934800,2.018934814453125,0.2250158041715622,-0.8873032331466675,-1.839624285697937
1772701763211982800,2.02898291015625,0.3300492763519287,-0.32404598593711853,-1.9497239589691162
1772701763222032000,2.039031982421875,0.5711386203765869,0.31287455558776855,-1.960951805114746
1772701763232080000,2.049079833984375,0.7703886032104492,1.257865309715271,-1.6403239965438843
1772701763242129000,2.05912890625,0.7884994149208069,2.265636682510376,-1.3747450113296509
1772701763252177000,2.069177001953125,0.7083670496940613,2.1108803749084473,-1.5120371580123901
1772701763262226000,2.079225830078125,1.1348850727081299,1.0141546726226807,-1.1585928201675415
1772701763272275000,2.08927490234375,1.0684759616851807,1.270358681678772,-0.88697350025177
1772701763282323000,2.099322998046875,0.9570063948631287,2.606942653656006,-1.6340941190719604
1772701763292372000,2.1093720703125,1.4090607166290283,1.6658767461776733,-2.47902250289917
1772701763302420000,2.119419921875,1.63528311252594,0.24347443878650665,-3.0520620346069336
1772701763312469000,2.129468994140625,1.7944872379302979,0.18578824400901794,-3.0115933418273926
1772701763322517000,2.13951708984375,1.8218090534210205,0.2505568563938141,-2.5562784671783447
1772701763332566000,2.14956591796875,1.7107347249984741,0.20997187495231628,-1.8678522109985352
1772701763342614000,2.159614013671875,1.5412352085113525,0.21965885162353516,-1.0185986757278442
1772701763352662800,2.169662841796875,1.3601256608963013,0.3895759880542755,-0.07554056495428085
1772701763362711000,2.1797109375,1.1226736307144165,0.29156339168548584,0.547827422618866
1772701763372759800,2.189759765625,0.8988624215126038,-0.0033065807074308395,0.8666623830795288
1772701763382808000,2.19980810546875,0.7318470478057861,-0.30685022473335266,1.003836989402771
1772701763392856800,2.20985693359375,0.5786737203598022,-0.4263207018375397,0.998221218585968
1772701763402905000,2.219905029296875,0.4395744502544403,-0.36560168862342834,0.8819553256034851
1772701763412953900,2.229953857421875,0.3254516124725342,-0.2552568018436432,0.6990270614624023
1772701763423002000,2.240002197265625,0.24627181887626648,-0.1672648936510086,0.44617003202438354
1772701763433051000,2.25005078125,0.16963377594947815,-0.00009880327706923708,0.15177780389785767
1772701763443099100,2.26009912109375,0.08383764326572418,0.16448268294334412,-0.12983016669750214
1772701763453148000,2.27014794921875,0.021528994664549828,0.2700085937976837,-0.34681469202041626
1772701763463196000,2.28019580078125,-0.009518403559923172,0.350053608417511,-0.4647362530231476
1772701763473245000,2.290244873046875,-0.016115587204694748,0.39398565888404846,-0.4832465648651123
1772701763483293000,2.30029296875,0.021378790959715843,0.39776575565338135,-0.40212053060531616
1772701763493342000,2.310342041015625,0.09194270521402359,0.43419593572616577,-0.27403128147125244
1772701763503390000,2.320389892578125,0.16370904445648193,0.5144590735435486,-0.10978402197360992
1772701763513439000,2.33043896484375,0.24925589561462402,0.6542297601699829,0.12941257655620575
1772701763523487000,2.340487060546875,0.3319145441055298,0.7652596235275269,0.3652157783508301
1772701763533536000,2.350535888671875,0.3474956452846527,0.7373155951499939,0.5155853033065796
1772701763543583700,2.360583740234375,0.2858639657497406,0.4709898829460144,0.5417237281799316
1772701763553633000,2.370633056640625,0.2073100507259369,-0.129801943898201,0.4877385199069977
1772701763563680800,2.3806806640625,0.136189267039299,-0.962510347366333,0.4039123058319092
1772701763573730000,2.39072998046875,0.04791692644357681,-1.5122227668762207,0.3353649377822876
1772701763583777800,2.40077783203125,0.004506867378950119,-1.1114649772644043,0.3268990218639374
1772701763593827000,2.4108271484375,0.02526780590415001,0.06823951005935669,0.36069080233573914
1772701763603874800,2.420874755859375,0.024400947615504265,0.9906506538391113,0.28669196367263794
1772701763613923800,2.430923828125,0.007027016952633858,1.1953403949737549,0.125227689743042
1772701763623971800,2.440971923828125,0.019293537363409996,1.0617657899856567,0.02101154252886772
1772701763634020900,2.451020751953125,-0.02311357483267784,0.7376570105552673,-0.052675195038318634
1772701763644070000,2.46106982421875,-0.11488290876150131,0.2714639902114868,-0.1793079674243927
1772701763654118000,2.471117919921875,-0.2126116007566452,-0.2124992161989212,-0.3749568462371826
1772701763664167000,2.4811669921875,-0.246715247631073,-0.5133131146430969,-0.47346848249435425
1772701763674215000,2.49121484375,-0.2449522316455841,-0.5445911288261414,-0.41522011160850525
1772701763684264000,2.501263916015625,-0.2643989026546478,-0.425290048122406,-0.28392893075942993
1772701763694312000,2.51131201171875,-0.3048137128353119,-0.28323090076446533,-0.11968139559030533
1772701763704361000,2.52136083984375,-0.3437158167362213,-0.16891951858997345,0.05080006271600723
1772701763714409000,2.531408935546875,-0.3704502284526825,-0.0979372188448906,0.16790245473384857
1772701763724458000,2.5414580078125,-0.4178049564361572,-0.0917821153998375,0.21488407254219055
1772701763734506000,2.551506103515625,-0.5079862475395203,-0.10763484984636307,0.2111646980047226
1772701763744555000,2.561554931640625,-0.6199479699134827,-0.09716995805501938,0.23821336030960083
1772701763754603000,2.57160302734375,-0.7418234944343567,-0.07413920760154724,0.2912219762802124
1772701763764652000,2.581652099609375,-0.8514994382858276,-0.07565614581108093,0.3528512716293335
1772701763774700000,2.591699951171875,-0.9118410348892212,-0.22725020349025726,0.37731799483299255
1772701763784748800,2.601748779296875,-0.9697187542915344,-0.514573872089386,0.359956830739975
1772701763794797000,2.611797119140625,-1.0822516679763794,-0.7234264016151428,0.2931325435638428
1772701763804845800,2.621845703125,-1.2112187147140503,-0.7805277705192566,0.2187264859676361
1772701763814894000,2.63189404296875,-1.287980556488037,-0.8318966627120972,0.1256343573331833
1772701763824942800,2.64194287109375,-1.3675086498260498,-0.9024454355239868,-0.0245524812489748
1772701763834991000,2.6519912109375,-1.4809374809265137,-0.9802871942520142,-0.2728155553340912
1772701763845039900,2.662039794921875,-1.551817536354065,-1.1685506105422974,-0.524958074092865
1772701763855087900,2.672087890625,-1.5853102207183838,-1.4261760711669922,-0.7479192018508911
1772701763865137000,2.682136962890625,-1.5771220922470093,-1.6007072925567627,-0.8441352248191833
1772701763875185000,2.692184814453125,-1.4943971633911133,-1.6062052249908447,-0.8868613839149475
1772701763885234000,2.70223388671875,-1.3124995231628418,-1.2661293745040894,-0.7928766012191772
1772701763895281700,2.71228173828125,-0.9938957095146179,-0.652359127998352,-0.4029778242111206
1772701763905331000,2.7223310546875,-0.6074050068855286,-0.17198188602924347,0.27485713362693787
1772701763915378700,2.732378662109375,-0.17749755084514618,-0.04062066227197647,1.077798843383789
1772701763925428000,2.742427978515625,0.20079675316810608,-0.26623356342315674,1.7648131847381592
1772701763935475700,2.752475830078125,0.4353855550289154,-0.8307379484176636,2.0724940299987793
1772701763945525000,2.76252490234375,0.5539500117301941,-1.4695360660552979,1.9677183628082275
1772701763955572700,2.77257275390625,0.5628883838653564,-1.769313097000122,1.6246472597122192
1772701763965622000,2.7826220703125,0.48085981607437134,-1.5543347597122192,1.1189616918563843
1772701763975670800,2.7926708984375,0.42855748534202576,-0.7235292196273804,0.6614195108413696
1772701763985719000,2.802718994140625,0.4356159269809723,0.08388771116733551,0.32142728567123413
1772701763995767800,2.812767822265625,0.41078221797943115,0.3006165623664856,0.01924879476428032
1772701764005816000,2.822816162109375,0.32977205514907837,0.10920212417840958,-0.1642981320619583
1772701764015864800,2.83286474609375,0.2894238233566284,-0.025061678141355515,-0.1341673880815506
1772701764025913000,2.8429130859375,0.2684282660484314,-0.09758275002241135,-0.008074970915913582
1772701764035961900,2.8529619140625,0.2552858293056488,-0.298233300447464,0.08243735134601593
1772701764046010000,2.863010009765625,0.2189456671476364,-0.5329073071479797,0.11824861168861389
1772701764056059000,2.873058837890625,0.1647079885005951,-0.6764453053474426,0.13653653860092163
1772701764066107000,2.88310693359375,0.14041942358016968,-0.670443594455719,0.11957406997680664
1772701764076156000,2.893156005859375,0.12207823991775513,-0.5555612444877625,0.07929002493619919
1772701764086204000,2.903203857421875,0.12482129037380219,-0.44415268301963806,0.057382065802812576
1772701764096253000,2.9132529296875,0.12391155958175659,-0.4376724064350128,0.04755020886659622
1772701764106301000,2.923301025390625,0.0439394935965538,-0.5538618564605713,0.02592773735523224
1772701764116350000,2.933349853515625,-0.03749517723917961,-0.5788649320602417,0.01722079887986183
1772701764126398000,2.94339794921875,-0.07679784297943115,-0.38353461027145386,0.09941287338733673
1772701764136447000,2.953447021484375,-0.09999877214431763,-0.0100774010643363,0.3116875886917114
1772701764146495000,2.963494873046875,-0.11902705579996109,0.35415008664131165,0.5815110802650452
1772701764156544000,2.9735439453125,-0.05264323577284813,0.5226645469665527,0.8242592811584473
1772701764166592000,2.983592041015625,0.00945182517170906,0.49024879932403564,0.9767782092094421
1772701764176641000,2.99364111328125,0.0012221246724948287,0.4279625415802002,1.059574007987976
1772701764186689000,3.00368896484375,-0.011640144512057304,0.33550742268562317,1.0924681425094604
1772701764196737300,3.0137373046875,-0.10549553483724594,0.19571730494499207,1.0144922733306885
1772701764206785500,3.02378564453125,-0.20754413306713104,0.1890580654144287,0.8932993412017822
1772701764216834300,3.033834228515625,-0.24419349431991577,0.31018397212028503,0.752030074596405
1772701764226882600,3.043882568359375,-0.2786124646663666,0.3865618109703064,0.5724688172340393
1772701764236931300,3.053931396484375,-0.2848338782787323,0.4209355115890503,0.400378555059433
1772701764246979600,3.0639794921875,-0.28409165143966675,0.4387206435203552,0.24224698543548584
1772701764257028400,3.0740283203125,-0.25803980231285095,0.4303140938282013,0.06155071407556534
1772701764267077400,3.084077392578125,-0.24373063445091248,0.47392523288726807,-0.11756497621536255
1772701764277125400,3.09412548828125,-0.23774199187755585,0.5725429058074951,-0.28914472460746765
1772701764287174400,3.10417431640625,-0.251423716545105,0.7553811073303223,-0.4667362868785858
1772701764297222400,3.114222412109375,-0.27371516823768616,0.9189791083335876,-0.6222675442695618
1772701764307271400,3.124271484375,-0.28850501775741577,0.9643338322639465,-0.762948215007782
1772701764317319400,3.1343193359375,-0.23089100420475006,0.7384101152420044,-0.8250925540924072
1772701764327368400,3.144368408203125,-0.12736009061336517,0.2596757709980011,-0.8066887855529785
1772701764337416400,3.15441650390625,-0.03551618382334709,-0.2704536020755768,-0.7961940765380859
1772701764347465500,3.164465576171875,0.032283104956150055,-0.6490235328674316,-0.8611102104187012
1772701764357513500,3.174513427734375,0.06661311537027359,-0.783779501914978,-0.9157521724700928
1772701764367562200,3.184562255859375,0.06743922829627991,-0.6010943651199341,-0.9812899231910706
1772701764377610500,3.194610595703125,0.08763184398412704,-0.23568043112754822,-0.9517844915390015
1772701764387659300,3.2046591796875,0.11227674037218094,0.17131449282169342,-0.9172187447547913
1772701764397707500,3.21470751953125,0.13174551725387573,0.7162800431251526,-0.7702634334564209
1772701764407756300,3.22475634765625,0.29753848910331726,1.6802088022232056,-0.5197774171829224
1772701764417804500,3.234804443359375,1.0672005414962769,2.4080381393432617,-0.22590263187885284
1772701764427853300,3.244853271484375,1.1786059141159058,1.931754231452942,-0.2894677519798279
1772701764437901600,3.254901611328125,0.5794801712036133,2.033226490020752,-0.3650277554988861
1772701764447950300,3.264950439453125,0.3377561867237091,1.9213439226150513,-0.39626452326774597
1772701764457998600,3.27499853515625,0.3323395848274231,0.7826982736587524,-0.6324917078018188
1772701764468047400,3.28504736328125,0.42668473720550537,-0.7185983657836914,-0.7084828615188599
1772701764478095400,3.295095458984375,0.5731644630432129,-1.728427767753601,-0.6940666437149048
1772701764488144400,3.305144287109375,0.5843744874000549,-1.8180463314056396,-0.6789686679840088
1772701764498192400,3.3151923828125,0.5803219676017761,-1.2486376762390137,-0.5311171412467957
1772701764508241400,3.325241455078125,0.6134247779846191,-0.5342023968696594,-0.2767258584499359
1772701764518290400,3.33529052734375,0.6826073527336121,0.005382515024393797,-0.03281653672456741
1772701764528338400,3.34533837890625,0.7396048307418823,0.2865595817565918,0.10326673090457916
1772701764538387200,3.35538720703125,0.7389262914657593,0.3405567705631256,0.10042327642440796
1772701764548435500,3.365435546875,0.7707116007804871,0.4051576256752014,-0.04657229408621788
1772701764558484200,3.375484130859375,0.7610228061676025,0.3629917800426483,-0.19320781528949738
1772701764568532500,3.385532470703125,0.6291102766990662,0.20175282657146454,-0.1863754689693451
1772701764578581200,3.395581298828125,0.40570035576820374,-0.10947615653276443,-0.07539009302854538
1772701764588629500,3.40562939453125,0.13666170835494995,-0.42857930064201355,0.07228697836399078
1772701764598678300,3.41567822265625,-0.15858671069145203,-0.5306657552719116,0.1961711049079895
1772701764608726500,3.4257265625,-0.35327231884002686,-0.4895521104335785,0.1784895807504654
1772701764618775300,3.435775390625,-0.46626517176628113,-0.084345243871212,0.16131086647510529
1772701764628823600,3.445823486328125,-0.5172790884971619,0.3631148338317871,0.18280524015426636
1772701764638872300,3.455872314453125,-0.5317131280899048,0.7038673162460327,0.17246738076210022
1772701764648920300,3.46592041015625,-0.5456899404525757,0.8758982419967651,0.17298589646816254
1772701764658969300,3.47596923828125,-0.573826789855957,0.8747552037239075,0.1662137359380722
1772701764669017300,3.486017333984375,-0.5705393552780151,0.6665071845054626,0.16151699423789978
1772701764679066400,3.49606640625,-0.5399940013885498,0.32729077339172363,0.15797019004821777
1772701764689114400,3.5061142578125,-0.5377374887466431,-0.10715974122285843,0.13835947215557098
1772701764699163400,3.516163330078125,-0.5782609581947327,-0.47823554277420044,0.1404079794883728
1772701764709211400,3.52621142578125,-0.6485982537269592,-0.6467382907867432,0.21256765723228455
1772701764719260400,3.536260498046875,-0.7179181575775146,-0.4676678478717804,0.3507010340690613
1772701764729308400,3.546308349609375,-0.7483663558959961,-0.0563247911632061,0.4692220687866211
1772701764739357400,3.556357421875,-0.7710868716239929,0.30316147208213806,0.5582028031349182
1772701764749406500,3.566406494140625,-0.8285043239593506,0.5250640511512756,0.638542652130127
1772701764759454500,3.576454345703125,-0.943154513835907,0.5823667645454407,0.6274524927139282
1772701764769503200,3.586503173828125,-1.0624114274978638,0.44151774048805237,0.5281197428703308
1772701764779551500,3.596551513671875,-1.1009953022003174,0.21063074469566345,0.4345541298389435
1772701764789600300,3.606600341796875,-1.1151363849639893,0.08404456824064255,0.4036944806575775
1772701764799648300,3.616648193359375,-1.1718436479568481,0.2552546560764313,0.4080958664417267
1772701764809697300,3.626697265625,-1.2122602462768555,0.440419465303421,0.470079630613327
1772701764819745300,3.636745361328125,-1.189793348312378,0.17181596159934998,0.4070303440093994
1772701764829794300,3.646794189453125,-1.1673535108566284,-0.2657043933868408,0.2714349627494812
1772701764839842300,3.65684228515625,-1.0719753503799438,-0.5511172413825989,0.1940709352493286
1772701764849891300,3.666891357421875,-0.9617843627929688,-0.638823390007019,0.16528509557247162
1772701764859939300,3.676939208984375,-0.8585490584373474,-0.5695201754570007,0.07184835523366928
1772701764869988400,3.68698828125,-0.7734850645065308,-0.3154708743095398,-0.0562552846968174
1772701764880036400,3.697036376953125,-0.6728058457374573,0.006871488410979509,-0.1526033878326416
1772701764890085400,3.70708544921875,-0.5399460792541504,0.08478812128305435,-0.15366412699222565
1772701764900133400,3.71713330078125,-0.37698641419410706,-0.14768506586551666,-0.06091075390577316
1772701764910182400,3.727182373046875,-0.16851018369197845,-0.45604583621025085,0.1269129365682602
1772701764920230400,3.73723046875,-0.0038892803713679314,-0.7952771782875061,0.35560178756713867
1772701764930279400,3.747279541015625,0.1423393040895462,-1.0173890590667725,0.5052559971809387
1772701764940327400,3.757327392578125,0.2883492410182953,-0.9012978672981262,0.541327714920044
1772701764950376400,3.76737646484375,0.48868393898010254,-0.6252042055130005,0.4678012728691101
1772701764960425500,3.777425537109375,0.6812126040458679,-0.41060829162597656,0.34601786732673645
1772701764970473200,3.78747314453125,0.8192373514175415,-0.3118811845779419,0.2732352614402771
1772701764980522500,3.7975224609375,0.9182435274124146,-0.3124106228351593,0.33839961886405945
1772701764990570200,3.8075703125,0.9516124129295349,-0.2170953005552292,0.5169544219970703
1772701765000619500,3.81761962890625,0.9451358914375305,0.14538303017616272,0.7374119758605957
1772701765010667300,3.827667236328125,0.9326552748680115,0.517562985420227,0.8889309167861938
1772701765020716500,3.837716552734375,0.9296197891235352,0.4357597231864929,0.8272222876548767
1772701765030764300,3.847764404296875,0.9349381327629089,-0.01991272158920765,0.5622119307518005
1772701765040813600,3.8578134765625,0.960418164730072,-0.6440479755401611,0.23785702884197235
1772701765050861300,3.867861328125,0.9249387383460999,-1.2037194967269897,-0.05314790830016136
1772701765060910300,3.877910400390625,0.8718392848968506,-1.6727505922317505,-0.19229407608509064
1772701765070958300,3.887958251953125,0.7060873508453369,-2.0439646244049072,-0.15030933916568756
1772701765081007400,3.89800732421875,0.4383898675441742,-2.3411362171173096,-0.02961381897330284
1772701765091055400,3.908055419921875,0.04869670048356056,-2.3105838298797607,0.024020114913582802
1772701765101104400,3.9181044921875,-0.34988877177238464,-1.8590956926345825,-0.017657557502388954
1772701765111152400,3.92815234375,-0.5829662084579468,-1.3899424076080322,-0.028569059446454048
1772701765121201400,3.938201416015625,-0.7078106999397278,-1.3200429677963257,0.009950102306902409
1772701765131249400,3.94824951171875,-0.8203915357589722,-1.247031569480896,0.07773980498313904
1772701765141298200,3.958298095703125,-0.9237595200538635,-1.0265297889709473,0.22381898760795593
1772701765151346400,3.968346435546875,-0.9900727272033691,-0.7521741390228271,0.44766539335250854
1772701765161395200,3.978395263671875,-1.0587437152862549,-0.39263224601745605,0.7283849120140076
1772701765171444500,3.988444580078125,-1.1062501668930054,0.05223231017589569,1.017417550086975
1772701765181492200,3.9984921875,-1.07220458984375,0.4864034652709961,1.2817163467407227
1772701765191541500,4.00854150390625,-1.0044004917144775,0.7806193828582764,1.4994734525680542
1772701765201589500,4.018589599609375,-0.9153484106063843,0.944730818271637,1.645058512687683
1772701765211638800,4.028638671875,-0.8113090991973877,1.0141572952270508,1.711379051208496
1772701765221686500,4.0386865234375,-0.7142329216003418,1.060670256614685,1.679646372795105
1772701765231735800,4.04873583984375,-0.6139103174209595,1.0727542638778687,1.5724730491638184
1772701765241783600,4.058783447265625,-0.49745479226112366,1.0145586729049683,1.39805006980896
1772701765251832800,4.068832763671875,-0.37849536538124084,0.8754795789718628,1.121279001235962
1772701765261880600,4.078880615234375,-0.26993080973625183,0.6599952578544617,0.781692624092102
1772701765271929900,4.088929931640625,-0.16361503303050995,0.49269652366638184,0.43386781215667725
1772701765281977600,4.0989775390625,-0.03449060022830963,0.42827439308166504,0.07581274211406708
1772701765292027000,4.10902685546875,0.09496805816888809,0.41601505875587463,-0.23687326908111572
1772701765302074600,4.11907470703125,0.21445131301879883,0.4088570177555084,-0.48686766624450684
1772701765312123600,4.12912353515625,0.33221548795700073,0.37137967348098755,-0.6424516439437866
1772701765322171600,4.139171630859375,0.47690609097480774,0.3004879355430603,-0.7525041103363037
1772701765332220700,4.149220703125,0.5975752472877502,0.17884084582328796,-0.8228017091751099
1772701765342268700,4.1592685546875,0.7000073790550232,0.011296330019831657,-0.8849899768829346
1772701765352317700,4.169317626953125,0.7747161984443665,-0.15824316442012787,-0.928212583065033
1772701765362366700,4.17936669921875,0.8166202306747437,-0.3108596205711365,-0.9462613463401794
1772701765372414500,4.18941455078125,0.8687481880187988,-0.4402295649051666,-0.9073184728622437
1772701765382463700,4.199463623046875,0.9425907135009766,-0.5514155030250549,-0.8035460114479065
1772701765392511500,4.209511474609375,1.0409132242202759,-0.6007558703422546,-0.6834635138511658
1772701765402560800,4.219560791015625,1.1397868394851685,-0.47737616300582886,-0.5899533033370972
1772701765412608500,4.2296083984375,1.1780400276184082,-0.1438802033662796,-0.621271014213562
1772701765422657800,4.23965771484375,1.0757492780685425,0.3282388746738434,-0.8806487917900085
1772701765432705500,4.24970556640625,0.772573709487915,0.854620099067688,-1.3571710586547852
1772701765442754800,4.2597548828125,0.399139940738678,1.3377138376235962,-2.1586408615112305
1772701765452802600,4.269802490234375,0.3974243104457855,1.9322022199630737,-2.758105754852295
1772701765462851800,4.279851806640625,0.9846068620681763,1.7836052179336548,-2.579725980758667
1772701765472899600,4.289899658203125,1.1314525604248047,0.9940453767776489,-1.929892659187317
1772701765482948600,4.299948486328125,0.8567788600921631,2.084665060043335,-1.530664086341858
1772701765492996600,4.30999658203125,0.8175651431083679,2.215693712234497,-1.184581995010376
1772701765503045600,4.320045654296875,0.8396576642990112,1.581708312034607,-1.1156405210494995
1772701765513093600,4.33009375,0.8420444130897522,0.9051399827003479,-1.0855766534805298
1772701765523142700,4.340142578125,0.8012136220932007,0.13382543623447418,-0.9464983344078064
1772701765533191700,4.350191650390625,0.8326418399810791,-0.4039895534515381,-0.6189489960670471
1772701765543239700,4.36023974609375,0.82518070936203,-0.6170741319656372,-0.11697722226381302
1772701765553288700,4.370288818359375,0.760631263256073,-0.5253423452377319,0.3482586443424225
1772701765563336700,4.380336669921875,0.6713528037071228,-0.19811254739761353,0.7778621912002563
1772701765573385700,4.3903857421875,0.6284804344177246,0.15912653505802155,1.1509673595428467
1772701765583433700,4.400433837890625,0.6258028745651245,0.5113370418548584,1.378616213798523
1772701765593482800,4.410482666015625,0.6141270995140076,0.795303225517273,1.4044246673583984
1772701765603530800,4.42053076171875,0.5487715005874634,1.0329376459121704,1.2153959274291992
1772701765613579800,4.430579833984375,0.45140448212623596,1.1837763786315918,0.936279833316803
1772701765623627800,4.440627685546875,0.3502938449382782,1.2531147003173828,0.6384207010269165
1772701765633676800,4.4506767578125,0.25960734486579895,1.3210208415985107,0.28998416662216187
1772701765643724800,4.460724853515625,0.2177666872739792,1.3780876398086548,-0.09496086835861206
1772701765653773600,4.470773681640625,0.20727436244487762,1.3832416534423828,-0.4326917827129364
1772701765663821800,4.48082177734375,0.2173144817352295,1.3670189380645752,-0.6732862591743469
1772701765673870600,4.49087060546875,0.20681948959827423,1.2900136709213257,-0.7922661900520325
1772701765683918600,4.500918701171875,0.13063950836658478,1.185838222503662,-0.812846839427948
1772701765693967600,4.510967529296875,0.017842913046479225,1.127498745918274,-0.7588240504264832
1772701765704015600,4.521015625,-0.09979210793972015,1.1001758575439453,-0.6183039546012878
1772701765714064600,4.531064697265625,-0.17963500320911407,1.0705457925796509,-0.4469769597053528
1772701765724113700,4.54111376953125,-0.23747220635414124,1.0644673109054565,-0.32746201753616333
1772701765734161700,4.55116162109375,-0.34797874093055725,1.1601920127868652,-0.2607836425304413
1772701765744210700,4.561210693359375,-0.432762086391449,1.2261345386505127,-0.2278406172990799
1772701765754258700,4.5712587890625,-0.5008636116981506,1.0804606676101685,-0.20160901546478271
1772701765764307700,4.5813076171875,-0.5480367541313171,0.8161472678184509,-0.1671927124261856
1772701765774355700,4.591355712890625,-0.567845344543457,0.46944233775138855,-0.11691303551197052
1772701765784404700,4.60140478515625,-0.5591996312141418,-0.013677729293704033,-0.04939604550600052
1772701765794452700,4.61145263671875,-0.5617972612380981,-0.6692297458648682,0.022698121145367622
1772701765804501800,4.621501708984375,-0.5687393546104431,-1.4699021577835083,-0.0005044027348048985
1772701765814549800,4.6315498046875,-0.6120908260345459,-1.997356653213501,-0.16918370127677917
1772701765824598500,4.6415986328125,-0.6594737768173218,-1.2016507387161255,-0.3064054548740387
1772701765834646800,4.651646728515625,-0.6164655685424805,0.804415762424469,-0.3564595878124237
1772701765844695600,4.661695556640625,-0.5779224634170532,2.073737859725952,-0.45813828706741333
1772701765854743800,4.671743896484375,-0.5443458557128906,1.9999191761016846,-0.5873801708221436
1772701765864792600,4.68179248046875,-0.39350736141204834,1.0788191556930542,-0.6198313236236572
1772701765874841600,4.691841552734375,-0.23464499413967133,-0.1354566216468811,-0.4948110580444336
1772701765884889600,4.7018896484375,-0.1599004566669464,-1.1663271188735962,-0.19778764247894287
1772701765894938600,4.711938720703125,-0.09182099997997284,-1.595066785812378,0.1990172266960144
1772701765904986600,4.721986572265625,-0.0883764699101448,-1.581833839416504,0.4739566445350647
1772701765915035600,4.73203564453125,-0.13106560707092285,-1.5655109882354736,0.5883194208145142
1772701765925083600,4.742083740234375,-0.1656763106584549,-1.5451135635375977,0.5218821167945862
1772701765935132700,4.752132568359375,-0.2676330506801605,-1.55069899559021,0.30829471349716187
1772701765945180700,4.7621806640625,-0.3939611613750458,-1.6490466594696045,0.08151989430189133
1772701765955229700,4.772229736328125,-0.5180801749229431,-1.9132801294326782,-0.0419546402990818
1772701765965277700,4.782277587890625,-0.6433536410331726,-2.119358777999878,-0.11528424918651581
1772701765975326500,4.792326416015625,-0.7842748165130615,-2.1742000579833984,-0.2477237731218338
1772701765985374700,4.802374755859375,-0.8473275899887085,-2.244159460067749,-0.4145745635032654
1772701765995423500,4.812423583984375,-0.8679646849632263,-2.271958112716675,-0.49925509095191956
1772701766005471700,4.8224716796875,-0.7924233078956604,-2.1829545497894287,-0.4631636440753937
1772701766015520500,4.8325205078125,-0.6912564635276794,-2.0349998474121094,-0.32210561633110046
1772701766025568800,4.84256884765625,-0.5943094491958618,-1.8610893487930298,-0.14976206421852112
1772701766035617500,4.852617431640625,-0.46196311712265015,-1.582740068435669,-0.0005422196118161082
1772701766045666800,4.862666748046875,-0.2603982985019684,-1.2466861009597778,0.10252957046031952
1772701766055714600,4.872714599609375,-0.03218456730246544,-1.0233417749404907,0.17647942900657654
1772701766065763600,4.882763671875,0.1707075536251068,-0.8843945264816284,0.2918507754802704
1772701766075811600,4.8928115234375,0.32744869589805603,-0.7595175504684448,0.4383384585380554
1772701766085860600,4.902860595703125,0.4256162941455841,-0.6670861840248108,0.5806682109832764
1772701766095908600,4.91290869140625,0.4371112883090973,-0.6110721826553345,0.6876732110977173
1772701766105957600,4.92295751953125,0.410869300365448,-0.5498535633087158,0.7988796234130859
1772701766116005600,4.933005615234375,0.36059626936912537,-0.36473748087882996,0.9041655659675598
1772701766126054700,4.9430546875,0.376123309135437,-0.09866292774677277,1.0099064111709595
1772701766136102700,4.9531025390625,0.3373956084251404,0.2095729261636734,1.0737031698226929
1772701766146151400,4.9631513671875,0.2887401878833771,0.4612240791320801,1.0736217498779297
1772701766156199700,4.97319970703125,0.2684977650642395,0.620387613773346,1.0147855281829834
1772701766166248400,4.98324853515625,0.23961712419986725,0.551333487033844,0.8618111610412598
1772701766176296700,4.993296630859375,0.15581542253494263,0.17005082964897156,0.5811672806739807
1772701766186345500,5.003345458984375,-0.16961246728897095,-0.11607494205236435,0.19888140261173248
1772701766196394200,5.013394287109375,-0.27008792757987976,0.04261377453804016,-0.06283062696456909
1772701766206442200,5.023442138671875,-0.3506815731525421,0.3091740906238556,-0.20743760466575623
1772701766216491300,5.0334912109375,-0.3950173556804657,0.41463926434516907,-0.27860206365585327
1772701766226539300,5.043539306640625,-0.41103628277778625,0.42494168877601624,-0.3232875168323517
1772701766236588300,5.05358837890625,-0.3947601020336151,0.45697394013404846,-0.37422552704811096
1772701766246636300,5.06363623046875,-0.35686543583869934,0.5059700012207031,-0.4241834878921509
1772701766256685300,5.073685302734375,-0.31061992049217224,0.5582765936851501,-0.48523592948913574
1772701766266733300,5.0837333984375,-0.2587367594242096,0.5816527605056763,-0.5400011539459229
1772701766276782300,5.0937822265625,-0.19911682605743408,0.6348360776901245,-0.5608206987380981
1772701766286830300,5.103830322265625,-0.15561622381210327,0.7645490765571594,-0.5365723371505737
1772701766296879400,5.11387939453125,-0.09538990259170532,0.8243098855018616,-0.5010995864868164
1772701766306927000,5.123927001953125,-0.022111693397164345,0.7043920159339905,-0.47737428545951843
1772701766316976400,5.133976318359375,0.06414595991373062,0.5667526125907898,-0.451967716217041
1772701766327024000,5.144024169921875,0.11886140704154968,0.45504048466682434,-0.4491114914417267
1772701766337073400,5.154073486328125,0.1545669436454773,0.2884317934513092,-0.4684833288192749
1772701766347122400,5.164122314453125,0.22080641984939575,0.0832405611872673,-0.4944179952144623
1772701766357170400,5.17417041015625,0.32005202770233154,-0.15759921073913574,-0.5170252919197083
1772701766367219200,5.18421923828125,0.4482800364494324,-0.4290893077850342,-0.4665977954864502
1772701766377267500,5.194267333984375,0.6320634484291077,-0.6866787672042847,-0.3334765136241913
1772701766387316200,5.204316162109375,0.7982481718063354,-0.9510286450386047,-0.1816539466381073
1772701766397364500,5.214364501953125,0.8664258718490601,-1.1456066370010376,-0.09840832650661469
1772701766407413200,5.224413330078125,0.7193309664726257,-1.1225322484970093,-0.10943328589200974
1772701766417461500,5.23446142578125,0.32387927174568176,-0.6102002263069153,-0.1912439912557602
1772701766427510300,5.24451025390625,0.09870181232690811,0.571807861328125,-0.31559470295906067
1772701766437558500,5.25455859375,0.36903929710388184,2.304267644882202,-0.19998662173748016
1772701766447607300,5.264607177734375,0.5574533939361572,3.0270726680755615,-0.149920254945755
1772701766457655600,5.274655517578125,0.36550554633140564,2.097165107727051,-0.5051212310791016
1772701766467704300,5.284704345703125,0.33563101291656494,1.1908197402954102,-0.7694492936134338
1772701766477752300,5.29475244140625,0.3030509650707245,0.08641105145215988,-1.0722254514694214
1772701766487801300,5.30480126953125,0.3603760302066803,-0.4852156937122345,-1.1463744640350342
1772701766497849300,5.314849365234375,0.34194427728652954,-0.6465026140213013,-0.977159321308136
1772701766507898400,5.3248984375,0.2796473503112793,-0.534679651260376,-0.5742049813270569
1772701766517946400,5.3349462890625,0.28160637617111206,-0.1868649572134018,0.023021696135401726
1772701766527995400,5.344995361328125,0.3726135194301605,0.20142978429794312,0.6557027697563171
1772701766538044200,5.355044189453125,0.5196858048439026,0.5190298557281494,1.167400598526001
1772701766548092400,5.365092529296875,0.6536065936088562,0.793954610824585,1.5548714399337769
1772701766558141200,5.37514111328125,0.7789389491081238,1.0660409927368164,1.8113772869110107
1772701766568189400,5.385189453125,0.862694263458252,1.2007255554199219,1.8672982454299927
1772701766578238200,5.39523828125,0.8842496275901794,1.251655101776123,1.747869610786438
1772701766588286500,5.405286376953125,0.8098409175872803,1.2445958852767944,1.4792323112487793
1772701766598335200,5.415335205078125,0.6259310245513916,1.094309687614441,1.1056091785430908
1772701766608383500,5.425383544921875,0.3940833806991577,0.7141218185424805,0.6855953931808472
1772701766618432300,5.435432373046875,0.1950741559267044,0.2013581395149231,0.22562913596630096
1772701766628480500,5.44548046875,0.042085401713848114,-0.2823294401168823,-0.15682822465896606
1772701766638529300,5.455529296875,-0.0825691819190979,-0.47565653920173645,-0.4312099814414978
1772701766648577300,5.465577392578125,-0.223798468708992,-0.4492286741733551,-0.7143120169639587
1772701766658626300,5.475626220703125,-0.3520650863647461,-0.21340815722942352,-0.9579361081123352
1772701766668674300,5.48567431640625,-0.47010332345962524,0.2035331428050995,-1.0438398122787476
1772701766678723300,5.495723388671875,-0.5322574973106384,0.725350558757782,-0.9988747239112854
1772701766688772000,5.505772216796875,-0.48958221077919006,1.2868753671646118,-0.8993082046508789
1772701766698820400,5.5158203125,-0.41203176975250244,1.7459747791290283,-0.7449604272842407
1772701766708869000,5.525869140625,-0.357221782207489,2.070620536804199,-0.5081937313079834
1772701766718917400,5.53591748046875,-0.288779079914093,2.1393301486968994,-0.14429938793182373
1772701766728966100,5.545966064453125,-0.20887358486652374,1.7713123559951782,0.3228451609611511
1772701766739014400,5.556014404296875,-0.16083015501499176,0.819501519203186,0.7937929630279541
1772701766749063200,5.566063232421875,-0.19084079563617706,-0.5198695659637451,1.1115291118621826
1772701766759111400,5.576111328125,-0.27627232670783997,-1.8829278945922852,1.1867839097976685
1772701766769160200,5.58616015625,-0.41671040654182434,-2.1858839988708496,1.1817431449890137
1772701766779208400,5.59620849609375,-0.5231931805610657,-0.9759063124656677,1.4056720733642578
1772701766789257200,5.60625732421875,-0.49470028281211853,0.7706128358840942,1.6241817474365234
1772701766799305500,5.616305419921875,-0.42052537202835083,1.722218632698059,1.5786737203598022
1772701766809354200,5.626354248046875,-0.3444804251194,1.9021010398864746,1.359859824180603
1772701766819403500,5.636403564453125,-0.36844566464424133,1.73552405834198,1.0471898317337036
1772701766829451300,5.646451171875,-0.4838601350784302,1.2718695402145386,0.6863626837730408
1772701766839500500,5.65650048828125,-0.5967169404029846,0.6405671834945679,0.3368382155895233
1772701766849548300,5.66654833984375,-0.6617504954338074,0.24109651148319244,0.09637953341007233
1772701766859597300,5.676597412109375,-0.6517652869224548,0.24560390412807465,0.0017563547007739544
1772701766869645300,5.686645263671875,-0.5747391581535339,0.35859304666519165,-0.012914200313389301
1772701766879694300,5.6966943359375,-0.4770195484161377,0.31832897663116455,0.041610825806856155
1772701766889742300,5.706742431640625,-0.3855910897254944,0.022291457280516624,0.1888253092765808
1772701766899791400,5.716791259765625,-0.24358336627483368,-0.45838114619255066,0.3438548445701599
1772701766909839400,5.72683935546875,-0.12417228519916534,-1.0210202932357788,0.5190505981445312
1772701766919888400,5.736888427734375,-0.034138262271881104,-1.5879286527633667,0.67582106590271
1772701766929937400,5.7469375,0.021811289712786674,-2.02000093460083,0.7961823344230652
1772701766939985200,5.756985107421875,0.021468540653586388,-2.2150163650512695,0.8551942706108093
1772701766950034400,5.767034423828125,0.05112816393375397,-2.211613416671753,0.795968234539032
1772701766960082200,5.777082275390625,0.08045276254415512,-2.2362287044525146,0.6420454978942871
1772701766970131500,5.78713134765625,0.22646349668502808,-2.1130402088165283,0.4173508882522583
1772701766980179200,5.79717919921875,0.43110159039497375,-1.8588179349899292,0.269621342420578
1772701766990228500,5.807228515625,0.5766074061393738,-1.6895588636398315,0.1423978954553604
1772701767000276200,5.817276123046875,0.653937578201294,-1.639695167541504,0.07388407737016678
1772701767010325500,5.827325439453125,0.6871477365493774,-1.6920061111450195,0.03257152438163757
1772701767020373200,5.837373291015625,0.6490368247032166,-1.692798137664795,0.033667415380477905
1772701767030422300,5.84742236328125,0.5300540328025818,-1.5378706455230713,0.08796314150094986
1772701767040471300,5.85747119140625,0.3697199821472168,-1.2634360790252686,0.09676089882850647
1772701767050519300,5.867519287109375,0.22895514965057373,-1.055609941482544,-0.0007257114048115909
1772701767060568300,5.877568359375,0.15031041204929352,-1.029007911682129,-0.09500321000814438
1772701767070616300,5.8876162109375,0.12607963383197784,-1.003011703491211,-0.08129538595676422
1772701767080665300,5.897665283203125,0.15096767246723175,-0.9891158938407898,0.009119728580117226
1772701767090713300,5.90771337890625,0.21313756704330444,-0.9940536022186279,0.10559513419866562
1772701767100762400,5.917762451171875,0.2641264498233795,-0.9689935445785522,0.19672131538391113
1772701767110810400,5.927810302734375,0.2641451060771942,-0.8642668724060059,0.2499547153711319
1772701767120859400,5.937859375,0.20958518981933594,-0.7623103857040405,0.2708256244659424
1772701767130907400,5.947907470703125,0.11892612278461456,-0.7960729002952576,0.2785179018974304
1772701767140956400,5.957956298828125,0.017545970156788826,-1.0044162273406982,0.24522307515144348
1772701767151005200,5.968005126953125,-0.050516437739133835,-1.2118916511535645,0.16044266521930695
1772701767161053400,5.978053466796875,-0.09434221684932709,-1.2911436557769775,0.05090312659740448
1772701767171102200,5.988102294921875,-0.1211559846997261,-1.228492259979248,-0.05048208311200142
1772701767181150500,5.998150390625,-0.1577235907316208,-1.1368237733840942,-0.09372089803218842
1772701767191199200,6.00819921875,-0.17177201807498932,-1.0496375560760498,-0.06912846863269806
1772701767201248300,6.018248291015625,-0.199215367436409,-0.9179165363311768,0.048040229827165604
1772701767211297000,6.028297119140625,-0.24670937657356262,-0.7504039406776428,0.22626349329948425
1772701767221345300,6.03834521484375,-0.28003937005996704,-0.5350370407104492,0.41886329650878906
1772701767231394000,6.04839404296875,-0.3156639635562897,-0.2751074731349945,0.5955325961112976
1772701767241442000,6.058442138671875,-0.3733522891998291,-0.011899003759026527,0.7123556137084961
1772701767251491000,6.068490966796875,-0.4519354999065399,0.11844249069690704,0.7934712767601013
1772701767261539000,6.0785390625,-0.47865501046180725,0.11377263814210892,0.8261687755584717
1772701767271588000,6.088588134765625,-0.49906787276268005,0.18313679099082947,0.7572349905967712
1772701767281636900,6.098636962890625,-0.5340167880058289,0.35543292760849,0.6896849274635315
1772701767291685000,6.10868505859375,-0.5891146659851074,0.42780113220214844,0.6164155006408691
1772701767301734000,6.11873388671875,-0.6387269496917725,0.4163695275783539,0.540814220905304
1772701767311782100,6.1287822265625,-0.6674275994300842,0.4355030059814453,0.46530190110206604
1772701767321831000,6.138830810546875,-0.6805399060249329,0.5258209109306335,0.3734886348247528
1772701767331879200,6.148879150390625,-0.6802661418914795,0.6320466995239258,0.2745564579963684
1772701767341928000,6.158927978515625,-0.666996955871582,0.7372516393661499,0.16322274506092072
1772701767351976200,6.16897607421875,-0.6337606906890869,0.8279243111610413,0.06655532121658325
1772701767362025000,6.17902490234375,-0.5723250508308411,0.872022807598114,-0.04872759059071541
1772701767372073200,6.1890732421875,-0.48193761706352234,0.8448343276977539,-0.16256308555603027
1772701767382122000,6.1991220703125,-0.35229599475860596,0.7580634951591492,-0.2770763337612152
1772701767392171300,6.209171142578125,-0.21222278475761414,0.649582028388977,-0.37064677476882935
1772701767402219000,6.219218994140625,-0.08153853565454483,0.5370293855667114,-0.4246855080127716
1772701767412268300,6.229268310546875,0.04559944197535515,0.4008510112762451,-0.39753884077072144
1772701767422316000,6.23931591796875,0.18034234642982483,0.2602449059486389,-0.28993383049964905
1772701767432365000,6.249364990234375,0.25094273686408997,0.2027626931667328,-0.15962481498718262
1772701767442413000,6.2594130859375,0.2179272621870041,0.3025982081890106,-0.024750353768467903
1772701767452462000,6.269462158203125,0.06817692518234253,0.6013523936271667,0.0029108349699527025
1772701767462510000,6.279510009765625,-0.1932794451713562,0.9881241321563721,-0.14801077544689178
1772701767472558800,6.289558837890625,-0.5471070408821106,1.214227557182312,-0.5595040321350098
1772701767482607000,6.299607177734375,-0.666405439376831,1.6622785329818726,-1.2998913526535034
1772701767492655900,6.30965576171875,-0.022822758182883263,0.1528790295124054,-1.7533378601074219
1772701767502705200,6.319705078125,0.7041949033737183,-0.862535297870636,-2.206413984298706
1772701767512753000,6.3297529296875,0.9580197334289551,0.25850826501846313,-1.9063855409622192
1772701767522802200,6.33980224609375,1.2047178745269775,1.737393856048584,-1.6043401956558228
1772701767532850000,6.349849853515625,1.4832123517990112,1.0143040418624878,-1.8036775588989258
1772701767542899200,6.359899169921875,1.2428778409957886,0.2539321482181549,-1.9448164701461792
1772701767552947000,6.369947021484375,0.7005881667137146,0.4490731358528137,-1.6568976640701294
1772701767562996200,6.379996337890625,0.2149573117494583,0.8150076866149902,-1.0095388889312744
1772701767573044000,6.3900439453125,-0.2012939602136612,0.8666139245033264,-0.33118486404418945
1772701767583093200,6.40009326171875,-0.46913444995880127,0.8803619742393494,0.31730419397354126
1772701767593141000,6.41014111328125,-0.7962822318077087,0.09970315545797348,0.9300970435142517
1772701767603190300,6.420190185546875,-1.0419799089431763,-0.8070645928382874,1.5522948503494263
1772701767613239000,6.430239013671875,-0.9724934697151184,-0.9006219506263733,1.8984053134918213
1772701767623287000,6.440287109375,-0.7418336272239685,-0.16684703528881073,1.984408974647522
1772701767633336000,6.450336181640625,-0.5227654576301575,0.6478448510169983,1.9441344738006592
1772701767643384000,6.460384033203125,-0.33585816621780396,1.076818585395813,1.7091845273971558
1772701767653433000,6.47043310546875,-0.16586805880069733,1.483127474784851,1.3035238981246948
1772701767663481000,6.480481201171875,-0.060870274901390076,1.8163975477218628,0.8693103790283203
1772701767673530000,6.490530029296875,0.0014410364674404263,1.9191374778747559,0.45443540811538696
1772701767683578000,6.500578125,0.08347385376691818,1.722904920578003,0.04698774963617325
1772701767693627100,6.510627197265625,0.1402367353439331,1.337287425994873,-0.33640173077583313
1772701767703675100,6.520675048828125,0.11189430952072144,0.9325199723243713,-0.665506899356842
1772701767713724200,6.53072412109375,0.0021784657146781683,0.6011151075363159,-0.9515578150749207
1772701767723773000,6.54077294921875,-0.17236538231372833,0.3549477159976959,-1.1461927890777588
1772701767733821200,6.5508212890625,-0.3398608863353729,0.2755439579486847,-1.1553658246994019
1772701767743870000,6.560869873046875,-0.4668619930744171,0.40013834834098816,-1.106482982635498
1772701767753918200,6.570918212890625,-0.6058350801467896,0.6730966567993164,-1.073401927947998
1772701767763967000,6.580967041015625,-0.7137801647186279,1.0326892137527466,-1.0023163557052612
1772701767774015200,6.59101513671875,-0.7380213141441345,1.2943295240402222,-0.8320615291595459
1772701767784064000,6.60106396484375,-0.6776179075241089,1.2997418642044067,-0.5068482756614685
1772701767794112000,6.611112060546875,-0.5597155094146729,0.9123331904411316,-0.03237578272819519
1772701767804161000,6.6211611328125,-0.501641035079956,0.05756768956780434,0.41322460770606995
1772701767814209000,6.631208984375,-0.5759091377258301,-1.0586893558502197,0.6114827990531921
1772701767824258000,6.641258056640625,-0.6853548884391785,-2.137308359146118,0.5483036041259766
1772701767834307000,6.65130712890625,-0.6961889266967773,-2.177156925201416,0.46076229214668274
1772701767844355000,6.66135498046875,-0.5875111818313599,-0.9077126383781433,0.5297322869300842
1772701767854404000,6.671404052734375,-0.49460598826408386,0.6287696361541748,0.4796912372112274
1772701767864452000,6.6814521484375,-0.4283042252063751,1.3429975509643555,0.21350908279418945
1772701767874500900,6.6915009765625,-0.38954484462738037,1.5308606624603271,-0.034924961626529694
1772701767884549000,6.701549072265625,-0.31840887665748596,1.490313172340393,-0.18546760082244873
1772701767894598000,6.711597900390625,-0.12417121976613998,1.2163360118865967,-0.26747432351112366
1772701767904646100,6.721646240234375,0.003044259501621127,0.7851023077964783,-0.3044893145561218
1772701767914695000,6.73169482421875,-0.020677048712968826,0.3181585371494293,-0.2730589509010315
1772701767924743200,6.7417431640625,0.0211271233856678,-0.09211261570453644,-0.21061742305755615
1772701767934792000,6.7517919921875,0.08206743746995926,-0.40358075499534607,-0.1523599773645401
1772701767944841200,6.76184130859375,0.12587697803974152,-0.5745421051979065,-0.08522435277700424
1772701767954889000,6.771888916015625,0.16555407643318176,-0.645104169845581,-0.016926253214478493
1772701767964938200,6.781938232421875,0.19106397032737732,-0.8040730357170105,0.07182172685861588
1772701767974986000,6.791986083984375,0.21393358707427979,-1.2278672456741333,0.23283538222312927
1772701767985035300,6.80203515625,0.24760687351226807,-1.9742932319641113,0.49013057351112366
1772701767995083000,6.8120830078125,0.2393292337656021,-2.8749895095825195,0.6291030645370483
1772701768005132000,6.822132080078125,0.0439770445227623,-3.3503029346466064,0.41453486680984497
1772701768015180000,6.832179931640625,-0.2106160968542099,-3.267544984817505,-0.0034972631838172674
1772701768025229000,6.84222900390625,-0.3170674443244934,-2.5997493267059326,-0.37833264470100403
1772701768035278000,6.852278076171875,-0.27066904306411743,-1.6088382005691528,-0.4478811025619507
1772701768045326000,6.862326171875,-0.15102893114089966,-0.9068180322647095,-0.19113054871559143
1772701768055375000,6.872375,-0.0041404166258871555,-0.639725387096405,0.1367378681898117
1772701768065423000,6.882423095703125,0.17054936289787292,-0.5531779527664185,0.35312584042549133
1772701768075472100,6.89247216796875,0.29181188344955444,-0.68462735414505,0.487301230430603
1772701768085520100,6.90252001953125,0.43376022577285767,-0.9162733554840088,0.5069630742073059
1772701768095569200,6.912569091796875,0.5606398582458496,-0.9884860515594482,0.3196999728679657
1772701768105617200,6.9226171875,0.6074603796005249,-0.807239830493927,-0.00686190091073513
1772701768115666200,6.932666259765625,0.6256750822067261,-0.46730247139930725,-0.341798335313797
1772701768125714200,6.942714111328125,0.7036406993865967,0.0986112654209137,-0.6567533612251282
1772701768135763200,6.95276318359375,0.8038994073867798,0.8050000667572021,-0.9267323613166809
1772701768145812000,6.96281201171875,0.8452670574188232,1.617106556892395,-1.1429044008255005
1772701768155860200,6.972860107421875,0.8375037312507629,2.526059150695801,-1.2681964635849
1772701768165909000,6.982908935546875,0.8163065314292908,3.4268808364868164,-1.3518551588058472
1772701768175957000,6.99295703125,0.8316202759742737,4.104867935180664,-1.4171860218048096
1772701768186006000,7.003006103515625,0.8339366912841797,4.322876453399658,-1.2889904975891113
1772701768196054000,7.013053955078125,0.8636780381202698,3.494476318359375,-1.1038589477539062
1772701768206102500,7.0231025390625,0.8598105907440186,1.901265263557434,-1.0345020294189453
1772701768216150800,7.03315087890625,0.7783147096633911,0.5294116735458374,-0.8572374582290649
1772701768226199600,7.043199462890625,0.6703232526779175,-0.11843796074390411,-0.5910022854804993
1772701768236247800,7.053247802734375,0.5134484171867371,-0.11885660886764526,-0.3669516444206238
1772701768246296600,7.063296630859375,0.386285662651062,0.10287578403949738,-0.08365042507648468
1772701768256345900,7.073345947265625,0.2524527609348297,0.20023562014102936,0.2379435896873474
1772701768266393600,7.0833935546875,0.40140601992607117,0.1160629540681839,0.5277879238128662
1772701768276443000,7.09344287109375,0.4436008632183075,-0.1387948989868164,0.778188169002533
1772701768286490600,7.10349072265625,0.43649742007255554,-0.4053376317024231,0.9451957941055298
1772701768296540000,7.113539794921875,0.4234306216239929,-0.639885425567627,1.0216221809387207
1772701768306587600,7.123587646484375,0.4327407777309418,-0.8684789538383484,0.9856950044631958
1772701768316637000,7.133636962890625,0.46179160475730896,-1.0751601457595825,0.8236491680145264
1772701768326684700,7.1436845703125,0.5250352621078491,-1.2087875604629517,0.5939203500747681
1772701768336733700,7.153733642578125,0.6238002181053162,-1.134416103363037,0.40872570872306824
1772701768346782700,7.16378271484375,0.7085457444190979,-0.904973030090332,0.25073474645614624
1772701768356830700,7.173830810546875,0.757181704044342,-0.5540717244148254,0.18204490840435028
1772701768366879700,7.183879638671875,0.7652542591094971,-0.15759921073913574,0.19847847521305084
1772701768376927500,7.193927490234375,0.7587255239486694,0.1788320690393448,0.268947571516037
1772701768386976800,7.203976806640625,0.7250897884368896,0.26627910137176514,0.31859368085861206
1772701768397024500,7.2140244140625,0.6785822510719299,0.14277952909469604,0.3119400441646576
1772701768407073800,7.22407373046875,0.6214028000831604,-0.019953468814492226,0.24095802009105682
1772701768417121500,7.23412158203125,0.5458886027336121,-0.19409038126468658,0.10206884145736694
1772701768427170800,7.2441708984375,0.44143572449684143,-0.32658129930496216,-0.10447101294994354
1772701768437219600,7.254219482421875,0.34592944383621216,-0.3616117238998413,-0.3277917206287384
1772701768447267800,7.264267822265625,0.23906823992729187,-0.3252020478248596,-0.5419042706489563
1772701768457316600,7.274316650390625,0.10657491534948349,-0.307942658662796,-0.697492241859436
1772701768467364900,7.28436474609375,-0.05325310304760933,-0.3884854316711426,-0.7986931800842285
1772701768477413600,7.29441357421875,-0.2793181836605072,-0.6085538864135742,-0.9357514381408691
1772701768487462000,7.3044619140625,-0.6242769360542297,-0.8938266038894653,-1.127787709236145
1772701768497510700,7.3145107421875,-1.0468119382858276,-1.145719289779663,-1.3637669086456299
1772701768507558700,7.32455859375,-1.3774864673614502,-1.2960728406906128,-1.6208943128585815
1772701768517607700,7.334607666015625,-1.3654226064682007,-1.3189915418624878,-1.711989402770996
1772701768527656700,7.34465673828125,-0.7280829548835754,-1.3781235218048096,-1.4802895784378052
1772701768537704700,7.35470458984375,-0.0021526331547647715,-1.4464911222457886,-1.057337760925293
1772701768547753700,7.364753662109375,0.07837843149900436,-1.3446757793426514,-0.8591005802154541
1772701768557801700,7.3748017578125,0.3165723383426666,-0.5216730237007141,-0.7191118001937866
1772701768567850500,7.3848505859375,0.513917088508606,1.9886279106140137,-0.5368264317512512
1772701768577898800,7.394898681640625,0.32601407170295715,2.7257864475250244,-0.6255600452423096
1772701768587947500,7.404947509765625,0.24038730561733246,2.2292168140411377,-0.6146162748336792
1772701768597995800,7.414995849609375,0.27731069922447205,1.3699947595596313,-0.5656993389129639
1772701768608044500,7.42504443359375,0.42513319849967957,-0.048580318689346313,-0.4308840036392212
1772701768618093800,7.43509375,0.4732160270214081,-0.6008692979812622,-0.1633782684803009
1772701768628141600,7.4451416015625,0.41684994101524353,-0.6397610902786255,0.23942670226097107
1772701768638190800,7.45519091796875,0.3300769627094269,-0.4677099287509918,0.6093653440475464
1772701768648238600,7.465238525390625,0.2496013045310974,-0.057864099740982056,0.9096900224685669
1772701768658287900,7.475287841796875,0.19869151711463928,0.4796752631664276,1.1425776481628418
1772701768668335600,7.485335693359375,0.1786791980266571,1.0146808624267578,1.2949652671813965
1772701768678385000,7.495385009765625,0.18298234045505524,1.4969135522842407,1.3962799310684204
1772701768688432600,7.5054326171875,0.20124709606170654,1.8847640752792358,1.3720566034317017
1772701768698482000,7.51548193359375,0.2185017168521881,2.0381224155426025,1.16123628616333
1772701768708529700,7.52552978515625,0.21486276388168335,2.0326197147369385,0.859173595905304
1772701768718578700,7.53557861328125,0.18462976813316345,1.8646572828292847,0.4982422888278961
1772701768728627700,7.545627685546875,0.11624884605407715,1.489933967590332,0.17961449921131134
1772701768738675700,7.55567578125,0.0692850649356842,0.8249160051345825,-0.07919149100780487
1772701768748724700,7.565724853515625,0.12424392253160477,0.024053670465946198,-0.27081817388534546
1772701768758772700,7.575772705078125,0.23134374618530273,-0.7563843727111816,-0.4000736474990845
1772701768768821800,7.58582177734375,0.2856099009513855,-1.1205703020095825,-0.47944197058677673
1772701768778869500,7.595869384765625,0.29460206627845764,-0.8816772699356079,-0.5767637491226196
1772701768788918800,7.605918701171875,0.17935164272785187,-0.44433698058128357,-0.6483843922615051
1772701768798966500,7.615966552734375,0.02942020632326603,-0.013775200583040714,-0.6318397521972656
1772701768809015800,7.626015869140625,-0.0300843995064497,0.33666378259658813,-0.5439506769180298
1772701768819064600,7.636064697265625,-0.08561157435178757,0.5460487008094788,-0.3771853744983673
1772701768829112800,7.64611279296875,-0.2316039353609085,0.5852741003036499,-0.19601663947105408
1772701768839161600,7.65616162109375,-0.45076504349708557,0.48049551248550415,-0.08176703751087189
1772701768849209900,7.6662099609375,-0.6507822871208191,0.3069937527179718,-0.07505960017442703
1772701768859258600,7.676258544921875,-0.8146529793739319,0.15906421840190887,-0.15801893174648285
1772701768869307000,7.686306884765625,-0.9437363743782043,0.044390901923179626,-0.2832109332084656
1772701768879355600,7.696355712890625,-0.9955945611000061,-0.07315037399530411,-0.3844784200191498
1772701768889404700,7.70640478515625,-0.9666659235954285,-0.1030864343047142,-0.3276529610157013
1772701768899452700,7.71645263671875,-0.9482376575469971,0.0018314558546990156,-0.24900928139686584
1772701768909501700,7.726501708984375,-0.8708488941192627,0.5526541471481323,-0.15897341072559357
1772701768919549700,7.7365498046875,-0.7125558853149414,1.0534663200378418,-0.025857163593173027
1772701768929598700,7.7465986328125,-0.5275352001190186,1.1657657623291016,0.11642728000879288
1772701768939646700,7.756646728515625,-0.3728364109992981,0.8489928245544434,0.1508273333311081
1772701768949695500,7.766695556640625,-0.22795113921165466,0.2701539993286133,0.08190471678972244
1772701768959743700,7.77674365234375,-0.0858408734202385,-0.22252468764781952,-0.013295832090079784
1772701768969792500,7.78679248046875,-0.00028762139845639467,-0.5706584453582764,-0.034986745566129684
1772701768979841800,7.796841796875,0.026754116639494896,-0.8196163177490234,0.031013043597340584
1772701768989889500,7.8068896484375,0.023483222350478172,-1.1275041103363037,0.17772844433784485
1772701768999938800,7.816938720703125,0.02130688726902008,-1.3433610200881958,0.38345685601234436
1772701769009986600,7.826986572265625,0.028024977073073387,-1.2884941101074219,0.560371458530426
1772701769020035800,7.837035888671875,0.030836209654808044,-1.0740646123886108,0.5935443043708801
1772701769030083600,7.84708349609375,0.0015773903578519821,-1.0725862979888916,0.45864853262901306
1772701769040132900,7.8571328125,0.03664083406329155,-1.3491688966751099,0.16917943954467773
1772701769050180600,7.8671806640625,0.07450646162033081,-1.7073384523391724,-0.19650453329086304
1772701769060230000,7.87722998046875,0.05378227308392525,-1.8432310819625854,-0.47159576416015625
1772701769070278700,7.887278564453125,-0.011630024760961533,-1.63474440574646,-0.6245128512382507
1772701769080327000,7.897326904296875,-0.1235661432147026,-1.2938395738601685,-0.6839303970336914
1772701769090375700,7.907375732421875,-0.22917592525482178,-0.9975146651268005,-0.6437118649482727
1772701769100424000,7.917423828125,-0.321991890668869,-0.8849087953567505,-0.5280558466911316
1772701769110472700,7.92747265625,-0.3837399482727051,-0.9481524229049683,-0.38371169567108154
1772701769120520700,7.937520751953125,-0.39877402782440186,-1.051203727722168,-0.24817384779453278
1772701769130569700,7.94756982421875,-0.3869756758213043,-1.0673246383666992,-0.13162966072559357
1772701769140617700,7.95761767578125,-0.3651689291000366,-0.9605135321617126,-0.06496887654066086
1772701769150666800,7.967666748046875,-0.3210459351539612,-0.724006712436676,-0.02749127894639969
1772701769160715500,7.977715576171875,-0.23984934389591217,-0.43180039525032043,-0.01619068719446659
1772701769170763800,7.987763671875,-0.15322710573673248,-0.16099980473518372,-0.02846173569560051
1772701769180812500,7.9978125,-0.08072227984666824,0.03509114310145378,-0.049664758145809174
1772701769190860800,8.00786083984375,-0.034694332629442215,0.2209366410970688,-0.10039345175027847
1772701769200910800,8.017910888671874,-0.011591674759984016,0.4594927430152893,-0.1829482465982437
1772701769210958800,8.027958740234375,-0.05229569599032402,0.7326518297195435,-0.2917756736278534
1772701769221008000,8.0380078125,-0.0651976466178894,0.9437568783760071,-0.41315534710884094
1772701769231057000,8.048056884765625,-0.06500403583049774,1.0617616176605225,-0.514123797416687
1772701769241105000,8.05810498046875,-0.06650179624557495,1.1070315837860107,-0.6002935767173767
1772701769251154000,8.06815380859375,-0.0999244675040245,1.0715007781982422,-0.6433523297309875
1772701769261202000,8.078201904296876,-0.12558242678642273,0.8618960976600647,-0.6485859751701355
1772701769271251000,8.0882509765625,-0.18395625054836273,0.569494366645813,-0.6112098693847656
1772701769281299000,8.098298828125,-0.24071860313415527,0.3657521605491638,-0.5301514863967896
1772701769291348000,8.108347900390624,-0.1902407854795456,0.25210335850715637,-0.40158045291900635
1772701769301396000,8.11839599609375,-0.06163406744599342,0.22215557098388672,-0.20703786611557007
1772701769311445000,8.128445068359374,0.08199845999479294,0.18603618443012238,-0.023551931604743004
1772701769321493800,8.13849365234375,0.18112477660179138,0.16048847138881683,0.11483683437108994
1772701769331542000,8.1485419921875,0.25654152035713196,0.1733558028936386,0.22922013700008392
1772701769341590800,8.1585908203125,0.32953953742980957,0.1624443084001541,0.33421260118484497
1772701769351638800,8.168638671875,0.3919520676136017,0.10895391553640366,0.42255258560180664
1772701769361687800,8.178687744140625,0.44100216031074524,0.022487198933959007,0.48721200227737427
1772701769371735800,8.18873583984375,0.4752323031425476,-0.06462293863296509,0.537512481212616
1772701769381784800,8.198784912109375,0.5009965300559998,-0.13569897413253784,0.567112147808075
1772701769391832800,8.208832763671875,0.508228063583374,-0.18572592735290527,0.6034078598022461
1772701769401881900,8.2188818359375,0.4826497435569763,-0.21244995296001434,0.6295145750045776
1772701769411931000,8.228930908203125,0.44402191042900085,-0.21567343175411224,0.6516909599304199
1772701769421979000,8.238978759765626,0.3928878903388977,-0.2148904651403427,0.6793937087059021
1772701769432028000,8.24902783203125,0.3366643190383911,-0.21541963517665863,0.6873781085014343
1772701769442076000,8.259075927734376,0.2809171676635742,-0.18085233867168427,0.6858087182044983
1772701769452125000,8.269125,0.2168220579624176,-0.09353900700807571,0.6570641398429871
1772701769462173000,8.2791728515625,0.15675845742225647,0.008866461925208569,0.6107438206672668
1772701769472222000,8.289221923828125,0.1305825114250183,0.05979995056986809,0.5543694496154785
1772701769482271000,8.29927099609375,0.13418497145175934,-0.06431081146001816,0.46798476576805115
1772701769492319000,8.309319091796874,0.13446566462516785,-0.3721972703933716,0.3732297718524933
1772701769502368000,8.319367919921875,0.11498650908470154,-0.7395395636558533,0.25841131806373596
1772701769512416000,8.329416015625,0.02581774815917015,-1.0167349576950073,0.11728641390800476
1772701769522465000,8.339465087890625,-0.1641644388437271,-1.1372337341308594,-0.0677870362997055
1772701769532513000,8.349512939453126,-0.3639603853225708,-0.9594234824180603,-0.2971358001232147
1772701769542562000,8.35956201171875,-0.5084927678108215,-0.4667453467845917,-0.5241045355796814
1772701769552610000,8.369610107421876,-0.47703713178634644,-0.03104793094098568,-0.6744570136070251
1772701769562658800,8.379658935546875,-0.29459354281425476,0.13435940444469452,-0.7620262503623962
1772701769572707800,8.389707763671876,0.031318239867687225,0.4370846450328827,-0.7470289468765259
1772701769582755800,8.399755859375,0.26697710156440735,0.8496298789978027,-0.6652685403823853
1772701769592804900,8.409804931640625,0.2550911605358124,1.3051356077194214,-0.6358576416969299
1772701769602852900,8.419852783203124,0.19218222796916962,1.3543037176132202,-0.636509358882904
1772701769612902000,8.42990185546875,0.22114357352256775,1.0426768064498901,-0.6304988265037537
1772701769622950000,8.439949951171876,0.2791096568107605,0.6785507798194885,-0.44854211807250977
1772701769632999000,8.4499990234375,0.2781653106212616,0.23609508574008942,-0.2146417200565338
1772701769643048000,8.4600478515625,0.26643887162208557,-0.08898979425430298,0.07555574178695679
1772701769653096000,8.470095947265625,0.2531987130641937,-0.16694264113903046,0.3878481388092041
1772701769663144700,8.480144775390626,0.2747465968132019,-0.05434739589691162,0.6770018935203552
1772701769673193000,8.49019287109375,0.30653223395347595,0.18334665894508362,0.9057046175003052
1772701769683241700,8.50024169921875,0.3593277931213379,0.45087477564811707,1.069408893585205
1772701769693290000,8.5102900390625,0.4068005084991455,0.7116866707801819,1.1597981452941895
1772701769703338800,8.5203388671875,0.4655376076698303,0.9658533930778503,1.1460527181625366
1772701769713387000,8.530386962890624,0.5148012638092041,1.0849369764328003,1.0506508350372314
1772701769723435800,8.540435791015625,0.5461512207984924,1.0714472532272339,0.8981121778488159
1772701769733485000,8.550485107421874,0.5767639875411987,0.9836316108703613,0.6922562122344971
1772701769743532800,8.56053271484375,0.5655904412269592,0.8725130558013916,0.4912858307361603
1772701769753582000,8.57058203125,0.5145650506019592,0.6898125410079956,0.2597881555557251
1772701769763629800,8.5806298828125,0.4179418385028839,0.47397103905677795,0.013835654594004154
1772701769773679000,8.59067919921875,0.3320026993751526,0.36764007806777954,-0.2070506513118744
1772701769783726800,8.600726806640624,0.26117727160453796,0.3424127399921417,-0.38419613242149353
1772701769793775900,8.61077587890625,0.21602976322174072,0.4274136424064636,-0.5462585687637329
1772701769803825000,8.620824951171874,0.17053765058517456,0.6204614043235779,-0.6927486658096313
1772701769813873000,8.630872802734375,0.10415862500667572,0.926581621170044,-0.772433876991272
1772701769823922000,8.640921875,0.036193422973155975,1.2524244785308838,-0.7670548558235168
1772701769833970000,8.650969970703125,-0.028986910358071327,1.5151461362838745,-0.6954061985015869
1772701769844019000,8.66101904296875,-0.05782201886177063,1.6786394119262695,-0.6155329346656799
1772701769854067000,8.67106689453125,-0.04566575586795807,1.6988219022750854,-0.5315222144126892
1772701769864116000,8.681115966796876,-0.0010239854454994202,1.550399661064148,-0.41885051131248474
1772701769874164700,8.691164794921875,-0.013795174658298492,1.2744985818862915,-0.25709572434425354
1772701769884213000,8.701212890625,-0.03592577576637268,0.9581307768821716,-0.09692095220088959
1772701769894261800,8.71126171875,-0.03767174482345581,0.614768922328949,0.022586802020668983
1772701769904310000,8.72131005859375,-0.01098474022001028,0.28461283445358276,0.1215333566069603
1772701769914358800,8.73135888671875,0.021260282024741173,0.0036360137164592743,0.1911768764257431
1772701769924407000,8.741406982421875,0.02798369713127613,-0.23744983971118927,0.22477878630161285
1772701769934455800,8.751455810546876,0.001674861996434629,-0.4187037944793701,0.23287266492843628
1772701769944504000,8.761504150390625,-0.0370514951646328,-0.5028572678565979,0.21418632566928864
1772701769954552800,8.771552734375,-0.10167869180440903,-0.4049363136291504,0.1796264797449112
1772701769964602000,8.78160205078125,-0.17608235776424408,-0.009780991822481155,0.12969434261322021
1772701769974649900,8.79164990234375,-0.17059224843978882,0.5333318114280701,0.0634697824716568
1772701769984699100,8.80169921875,-0.1356089562177658,0.9586455821990967,-0.05997598543763161
1772701769994747000,8.811746826171875,-0.0961875170469284,1.0801477432250977,-0.16885294020175934
1772701770004796000,8.8217958984375,-0.04009095951914787,0.8008468747138977,-0.201587975025177
1772701770014844000,8.831843994140625,0.08281125873327255,0.2336449772119522,-0.1590634137392044
1772701770024893000,8.841892822265624,0.2034013271331787,-0.5318748354911804,-0.06587382405996323
1772701770034942000,8.85194189453125,0.23937183618545532,-1.2112696170806885,0.038483478128910065
1772701770044990000,8.861989990234376,0.21682845056056976,-1.6464780569076538,0.09697181731462479
1772701770055039000,8.8720390625,0.15048430860042572,-1.8593980073928833,0.15069417655467987
1772701770065086700,8.882086669921875,0.05252658948302269,-1.875933289527893,0.2055124044418335
1772701770075136000,8.892135986328125,-0.018734006211161613,-1.6995047330856323,0.199811652302742
1772701770085183700,8.902183837890625,-0.03873727470636368,-1.3834404945373535,0.1569504737854004
1772701770095233000,8.91223291015625,-0.040895503014326096,-1.1786959171295166,0.12146038562059402
1772701770105281800,8.92228173828125,-0.12414644658565521,-1.1303960084915161,0.1402260810136795
1772701770115330000,8.932330078125,-0.2695465087890625,-1.1888062953948975,0.19082854688167572
1772701770125378800,8.94237890625,-0.41882362961769104,-1.2935439348220825,0.2408653348684311
1772701770135427000,8.952427001953126,-0.5120318531990051,-1.4217170476913452,0.33086472749710083
1772701770145475800,8.962475830078125,-0.5053068399429321,-1.5259300470352173,0.3985505700111389
1772701770155524000,8.972524169921876,-0.47167325019836426,-1.6053119897842407,0.43907830119132996
1772701770165572900,8.98257275390625,-0.41493380069732666,-1.5053749084472656,0.4954254627227783
1772701770175620900,8.992620849609375,-0.32318922877311707,-1.2006014585494995,0.6285161375999451
1772701770185670000,9.002669921875,-0.2437061369419098,-0.7829123735427856,0.8023995161056519
1772701770195719000,9.012718994140625,-0.19171670079231262,-0.4601005017757416,0.9420466423034668
1772701770205765600,9.022765625,-0.14932876825332642,-0.2717646658420563,1.0324281454086304
1772701770215815000,9.03281494140625,-0.08492553979158401,-0.1297084540128708,1.0748366117477417
1772701770225862700,9.042862548828126,0.018488463014364243,0.0339377261698246,1.0677638053894043
1772701770235912000,9.052911865234375,0.11638812720775604,0.2384016513824463,1.002930998802185
1772701770245959700,9.062959716796875,0.2064162939786911,0.4804624915122986,0.8542723059654236
1772701770256009000,9.073009033203125,0.3367231488227844,0.7100802063941956,0.6763086915016174
1772701770266057700,9.0830576171875,0.3878353536128998,0.928217887878418,0.525783121585846
1772701770276106000,9.09310595703125,0.39233049750328064,1.1752407550811768,0.3707258701324463
1772701770286154800,9.10315478515625,0.3991668224334717,1.3591463565826416,0.1852518767118454
1772701770296203000,9.113203125,0.3954988718032837,1.343421220779419,0.012408998794853687
1772701770306251800,9.123251708984375,0.35922500491142273,1.1732044219970703,-0.08789949864149094
1772701770316300000,9.133300048828126,0.2676197290420532,0.8806626200675964,-0.14309829473495483
1772701770326348800,9.143348876953125,0.1387413740158081,0.47125062346458435,-0.14391721785068512
1772701770336397800,9.153397705078126,-0.019766513258218765,0.030522489920258522,-0.08028391748666763
1772701770346445800,9.16344580078125,-0.21200919151306152,-0.29375413060188293,0.05967904254794121
1772701770356494800,9.173494873046875,-0.18475386500358582,-0.2034362107515335,0.17238162457942963
1772701770366542800,9.18354296875,-0.212215855717659,0.07110986113548279,0.25914981961250305
1772701770376592000,9.193591796875,-0.22640784084796906,0.26350435614585876,0.323527455329895
1772701770386640000,9.203639892578124,-0.24508032202720642,0.3131467401981354,0.3492019474506378
1772701770396689000,9.21368896484375,-0.24824842810630798,0.2436549961566925,0.35778796672821045
1772701770406738000,9.223738037109374,-0.2478092610836029,0.046486277133226395,0.3512802720069885
1772701770416785700,9.23378564453125,-0.2520306408405304,-0.2609080374240875,0.3729187250137329
1772701770426835000,9.2438349609375,-0.2468385398387909,-0.643986165523529,0.3932245075702667
1772701770436882700,9.253882568359375,-0.24574612081050873,-1.0528753995895386,0.36780065298080444
1772701770446931700,9.263931640625,-0.2560110092163086,-1.3266468048095703,0.24724334478378296
1772701770456979700,9.273979736328124,-0.28304794430732727,-1.232546091079712,0.09489801526069641
1772701770467028700,9.28402880859375,-0.2827773690223694,-0.7496766448020935,-0.01918621174991131
1772701770477077800,9.294077880859374,-0.24989931285381317,-0.10924659669399261,-0.11195848882198334
1772701770487125800,9.304125732421875,-0.21953049302101135,0.4966672956943512,-0.21950332820415497
1772701770497174800,9.3141748046875,-0.21413493156433105,0.6727980971336365,-0.3941909670829773
1772701770507222800,9.324222900390625,-0.253966748714447,0.566649317741394,-0.565006673336029
1772701770517271800,9.334271728515626,-0.34493929147720337,0.31282609701156616,-0.8056222200393677
1772701770527319800,9.34431982421875,-0.4856221079826355,0.07654271274805069,-1.103060007095337
1772701770537368800,9.354368896484376,-0.6604005694389343,0.05158010497689247,-1.4201021194458008
1772701770547416800,9.364416748046875,-0.8369457721710205,0.09810099750757217,-1.7057679891586304
1772701770557465900,9.3744658203125,-0.9909606575965881,-0.09401198476552963,-1.9816640615463257
1772701770567515000,9.384514892578125,-1.1835956573486328,-0.6193442344665527,-2.317976713180542
1772701770577563000,9.39456298828125,-1.4383184909820557,-1.318307876586914,-2.730886936187744
1772701770587612000,9.40461181640625,-1.6326991319656372,-2.127629280090332,-3.068495750427246
1772701770597660000,9.414659912109375,-1.625306487083435,-2.7955169677734375,-3.1554672718048096
1772701770607709000,9.424708984375,-1.272803544998169,-2.978062629699707,-3.017641067504883
1772701770617757000,9.4347568359375,-0.5668394565582275,-2.4767422676086426,-2.735335350036621
1772701770627805700,9.4448056640625,0.028210865333676338,-1.237768530845642,-2.455301523208618
1772701770637854700,9.454854736328125,0.2772499918937683,0.55986088514328,-2.3472611904144287
1772701770647902700,9.46490283203125,0.3373660445213318,2.3242344856262207,-2.432530164718628
1772701770657951700,9.47495166015625,0.3522384762763977,3.197066068649292,-2.721593141555786
1772701770667999700,9.484999755859375,0.25870373845100403,2.7239830493927,-3.0885603427886963
1772701770678048800,9.495048828125,0.2329152673482895,1.7517378330230713,-3.2346723079681396
1772701770688096800,9.5050966796875,0.16808994114398956,0.9841133952140808,-3.257112741470337
1772701770698145800,9.515145751953124,0.06083458662033081,0.5862594842910767,-2.96336030960083
1772701770708194800,9.52519482421875,-0.010773285292088985,0.5786095857620239,-2.3027377128601074
1772701770718242800,9.535242919921876,-0.1767963469028473,0.6226465106010437,-1.4304602146148682
1772701770728291800,9.545291748046875,-0.317324161529541,0.40260177850723267,-0.7199371457099915
1772701770738339800,9.55533984375,-0.34713825583457947,0.20419281721115112,-0.1769164502620697
1772701770748388900,9.565388916015625,-0.2503158450126648,0.26287850737571716,0.3742457628250122
1772701770758436900,9.575436767578125,-0.11323601007461548,0.5738952159881592,0.8380411267280579
1772701770768486000,9.58548583984375,0.03960759565234184,0.9231589436531067,1.1497797966003418
1772701770778535000,9.595534912109375,0.08767605572938919,1.1176810264587402,1.2465028762817383
1772701770788583000,9.6055830078125,-0.003373159794136882,1.0612717866897583,1.2293274402618408
1772701770798632000,9.6156318359375,-0.09915001690387726,0.7994338274002075,1.224167823791504
1772701770808680000,9.625679931640626,-0.1579510122537613,0.36783260107040405,1.206031084060669
1772701770818729000,9.63572900390625,-0.19303922355175018,-0.18219830095767975,1.168504238128662
1772701770828777000,9.64577685546875,-0.16984336078166962,-0.6889445781707764,1.1509146690368652
1772701770838825700,9.65582568359375,-0.1323561817407608,-1.0520689487457275,1.1061575412750244
1772701770848874800,9.665874755859376,-0.12559866905212402,-1.2935644388198853,0.9958438277244568
1772701770858922800,9.6759228515625,-0.14418940246105194,-1.3281421661376953,0.7507538795471191
1772701770868971800,9.6859716796875,-0.19865743815898895,-0.9732807278633118,0.43270429968833923
1772701770879021000,9.69602099609375,-0.2811483144760132,-0.2632167339324951,0.2340013086795807
1772701770889068800,9.70606884765625,-0.3525058627128601,0.39410629868507385,0.15267902612686157
1772701770899117800,9.716117919921874,-0.41728246212005615,0.6918445229530334,0.12587323784828186
1772701770909165800,9.726165771484375,-0.450058251619339,0.6680382490158081,0.0908321663737297
1772701770919214800,9.73621484375,-0.4230005145072937,0.5037273168563843,0.11583419144153595
1772701770929262800,9.746262939453125,-0.3353785276412964,0.33944836258888245,0.2384786158800125
1772701770939311600,9.7563115234375,-0.21318843960762024,0.14560353755950928,0.39406314492225647
1772701770949361000,9.76636083984375,-0.0989537462592125,-0.03741474822163582,0.5180585980415344
1772701770959408600,9.77640869140625,0.013717143796384335,-0.01835024543106556,0.622624933719635
1772701770969458000,9.7864580078125,0.12613555788993835,0.17610898613929749,0.7034750580787659
1772701770979505700,9.796505615234375,0.222190722823143,0.3747693598270416,0.6970986723899841
1772701770989555000,9.806554931640624,0.28779637813568115,0.4651101529598236,0.6151918172836304
1772701770999602700,9.816602783203125,0.30092760920524597,0.44785580039024353,0.5142004489898682
1772701771009652000,9.82665185546875,0.29580608010292053,0.3431083559989929,0.4486667513847351
1772701771019700700,9.83670068359375,0.26975399255752563,0.20018023252487183,0.40204623341560364
1772701771029749000,9.8467490234375,0.2524777948856354,0.046956323087215424,0.3642120361328125
1772701771039797800,9.8567978515625,0.2454153597354889,-0.09275603294372559,0.34750762581825256
1772701771049846000,9.866845947265626,0.23707540333271027,-0.18466252088546753,0.35974085330963135
1772701771059894800,9.876894775390625,0.2076898068189621,-0.2059350609779358,0.37665513157844543
1772701771069942800,9.88694287109375,0.1563134342432022,-0.17553827166557312,0.37747564911842346
1772701771079991800,9.89699169921875,0.11771704256534576,-0.07798774540424347,0.33089616894721985
1772701771090040800,9.907040771484375,0.08414390683174133,0.05573383718729019,0.28753724694252014
1772701771100088800,9.9170888671875,0.06389349699020386,0.08018005639314651,0.23569108545780182
1772701771110137900,9.927137939453125,0.047585628926754,0.03218137100338936,0.178519144654274
1772701771120185900,9.937185791015626,0.06228840723633766,0.07759039849042892,0.17664560675621033
1772701771130234600,9.947234619140625,0.08803105354309082,0.18965329229831696,0.18978804349899292
1772701771140283000,9.957282958984376,0.1281696856021881,0.16784439980983734,0.14318378269672394
1772701771150331600,9.96733154296875,0.15976063907146454,0.12451023608446121,0.041428398340940475
1772701771160381000,9.977380859375,0.1811079978942871,0.07423854619264603,-0.09922724962234497
1772701771170428700,9.9874287109375,0.17568367719650269,0.04336957633495331,-0.21758505702018738
1772701771180478000,9.99747802734375,0.13942819833755493,-0.0033135050907731056,-0.33789709210395813
1772701771190525700,10.007525634765624,0.11072571575641632,-0.07712088525295258,-0.44938924908638
1772701771200575000,10.017574951171875,0.10146324336528778,-0.08952668309211731,-0.5046660900115967
1772701771210623700,10.027623779296874,0.12838886678218842,0.02618180215358734,-0.48182496428489685
1772701771220672000,10.037672119140625,0.16533036530017853,0.22748056054115295,-0.4046801030635834
1772701771230720800,10.047720703125,0.20547886192798615,0.32275381684303284,-0.2869800925254822
1772701771240768800,10.057768798828125,0.23082096874713898,0.24166534841060638,-0.15909990668296814
1772701771250817800,10.06781787109375,0.2526167929172516,0.05407867953181267,-0.04187607765197754
1772701771260865800,10.07786572265625,0.2787695825099945,-0.08068685978651047,0.06345593929290771
1772701771270914800,10.087914794921875,0.3044898509979248,-0.07707533985376358,0.13188771903514862
1772701771280963800,10.0979638671875,0.3289368748664856,-0.002305764937773347,0.1690974086523056
1772701771291011800,10.10801171875,0.3434271514415741,0.06490310281515121,0.19739750027656555
1772701771301060600,10.118060546875,0.3313576877117157,0.09826052188873291,0.18777815997600555
1772701771311108900,10.12810888671875,0.301704466342926,0.13709419965744019,0.16892190277576447
1772701771321157600,10.13815771484375,0.28013870120048523,0.1560463309288025,0.14563016593456268
1772701771331206000,10.148205810546875,0.25835832953453064,0.1631670892238617,0.10537063330411911
1772701771341254700,10.158254638671876,0.237807497382164,0.17695507407188416,0.07820133119821548
1772701771351304000,10.168303955078125,0.21703989803791046,0.18794620037078857,0.08742918074131012
1772701771361351700,10.1783515625,0.1992236226797104,0.1984206736087799,0.09281808882951736
1772701771371401000,10.18840087890625,0.19320274889469147,0.18483243882656097,0.10216951370239258
1772701771381448700,10.19844873046875,0.1775638610124588,0.11626136302947998,0.08847180753946304
1772701771391497700,10.208497802734374,0.178012877702713,0.03822221979498863,0.0864613875746727
1772701771401545700,10.218545654296875,0.17586582899093628,-0.023367108777165413,0.08526855707168579
1772701771411594800,10.2285947265625,0.1774674654006958,-0.04442765191197395,0.08562196046113968
1772701771421643800,10.238643798828125,0.17374862730503082,-0.017590710893273354,0.08664488047361374
1772701771431691800,10.24869189453125,0.17772898077964783,0.029406623914837837,0.08343976736068726
1772701771441740800,10.25874072265625,0.17881475389003754,0.08063466101884842,0.09643306583166122
1772701771451788500,10.26878857421875,0.16849340498447418,0.12461277097463608,0.09776650369167328
1772701771461837800,10.278837890625,0.14568902552127838,0.11430872976779938,0.0871916264295578
1772701771471886800,10.288886962890626,0.12767434120178223,0.11177074164152145,0.06931382417678833
1772701771481934800,10.298934814453125,0.1304008811712265,0.11222933232784271,0.05013001337647438
1772701771491984000,10.30898388671875,0.14654868841171265,0.10785403102636337,0.032340630888938904
1772701771502032000,10.319031982421874,0.18267686665058136,0.015851933509111404,0.11144264042377472
1772701771512080600,10.32908056640625,0.20622481405735016,-0.29892945289611816,0.10686173290014267
1772701771522129000,10.33912890625,0.13486221432685852,-0.4851168990135193,0.02918744646012783
1772701771532177700,10.349177734375,0.05849926173686981,-0.4393185079097748,-0.07958617061376572
1772701771542226700,10.359226806640624,0.029039906337857246,-0.20762403309345245,-0.11403895169496536
1772701771552274700,10.369274658203125,0.00637773796916008,-0.0193723663687706,-0.12369131296873093
1772701771562323700,10.37932373046875,-0.031144604086875916,0.06107746809720993,-0.14851942658424377
1772701771572371700,10.389371826171875,-0.06290332973003387,0.026196982711553574,-0.13216762244701385
1772701771582420700,10.399420654296875,-0.07727108895778656,-0.12390436977148056,-0.1496153175830841
1772701771592468700,10.40946875,-0.07706096023321152,-0.22770719230175018,-0.18602313101291656
